welcome_mouse.x,welcome_mouse.y,welcome_mouse.leftButton,welcome_mouse.midButton,welcome_mouse.rightButton,welcome_mouse.time,"ID",date,expName,psychopyVersion,OS,frameRate,refresh_mouse.x,refresh_mouse.y,refresh_mouse.leftButton,refresh_mouse.midButton,refresh_mouse.rightButton,refresh_mouse.time,braille_mouse.x,braille_mouse.y,braille_mouse.leftButton,braille_mouse.midButton,braille_mouse.rightButton,braille_mouse.time,trials.thisRepN,trials.thisTrialN,trials.thisN,trials.thisIndex,trials.ran,nlLet,brLet,cbLet,trainInstr_mouse.x,trainInstr_mouse.y,trainInstr_mouse.leftButton,trainInstr_mouse.midButton,trainInstr_mouse.rightButton,trainInstr_mouse.time,translation_key.keys,translation_key.corr,translation_key.rt,word_rsp.text,word_mouse.x,word_mouse.y,word_mouse.leftButton,word_mouse.midButton,word_mouse.rightButton,word_mouse.time,train_loop.thisRepN,train_loop.thisTrialN,train_loop.thisN,train_loop.thisIndex,train_loop.ran,nlWrd,brWrd,cbWrd,test,testResp,mouse.x,mouse.y,mouse.leftButton,mouse.midButton,mouse.rightButton,testInstr_mouse.x,testInstr_mouse.y,testInstr_mouse.leftButton,testInstr_mouse.midButton,testInstr_mouse.rightButton,test_mouse.x,test_mouse.y,test_mouse.leftButton,test_mouse.midButton,test_mouse.rightButton,test_response.text,test_loop.thisRepN,test_loop.thisTrialN,test_loop.thisN,test_loop.thisIndex,test_loop.ran
-0.054629601,-0.095370399,1,0,0,158.7064,00086,2023-10-24_19h23.07.724,vbt_B1_day2,2022.2.4,Win32,58.08212813,,,,,,,,,,,,,,,,,,,,,,,,,,,,,,,,,,,,,,,,,,,,,,,,,,,,,,,,,,,,,,,,,,,
,,,,,,00086,2023-10-24_19h23.07.724,vbt_B1_day2,2022.2.4,Win32,58.08212813,-0.054629601,-0.095370399,1,0,0,1.5389,,,,,,,,,,,,,,,,,,,,,,,,,,,,,,,,,,,,,,,,,,,,,,,,,,,,,,,,,,,,,
,,,,,,00086,2023-10-24_19h23.07.724,vbt_B1_day2,2022.2.4,Win32,58.08212813,,,,,,,-0.054629601,-0.095370399,1,0,0,3.5299,0,0,0,23,1,x,images/br_x.png,images/cb_x.png,,,,,,,,,,,,,,,,,,,,,,,,,,,,,,,,,,,,,,,,,,,,,,,
,,,,,,00086,2023-10-24_19h23.07.724,vbt_B1_day2,2022.2.4,Win32,58.08212813,,,,,,,-0.054629601,-0.095370399,1,0,0,2.3013,0,1,1,24,1,y,images/br_y.png,images/cb_y.png,,,,,,,,,,,,,,,,,,,,,,,,,,,,,,,,,,,,,,,,,,,,,,,
,,,,,,00086,2023-10-24_19h23.07.724,vbt_B1_day2,2022.2.4,Win32,58.08212813,,,,,,,-0.054629601,-0.095370399,1,0,0,1.7058,0,2,2,21,1,v,images/br_v.png,images/cb_v.png,,,,,,,,,,,,,,,,,,,,,,,,,,,,,,,,,,,,,,,,,,,,,,,
,,,,,,00086,2023-10-24_19h23.07.724,vbt_B1_day2,2022.2.4,Win32,58.08212813,,,,,,,-0.054629601,-0.095370399,1,0,0,0.702,0,3,3,22,1,w,images/br_w.png,images/cb_w.png,,,,,,,,,,,,,,,,,,,,,,,,,,,,,,,,,,,,,,,,,,,,,,,
,,,,,,00086,2023-10-24_19h23.07.724,vbt_B1_day2,2022.2.4,Win32,58.08212813,,,,,,,-0.054629601,-0.095370399,1,0,0,0.7193,0,4,4,11,1,l,images/br_l.png,images/cb_l.png,,,,,,,,,,,,,,,,,,,,,,,,,,,,,,,,,,,,,,,,,,,,,,,
,,,,,,00086,2023-10-24_19h23.07.724,vbt_B1_day2,2022.2.4,Win32,58.08212813,,,,,,,-0.054629601,-0.095370399,1,0,0,0.7525,0,5,5,0,1,a,images/br_a.png,images/cb_a.png,,,,,,,,,,,,,,,,,,,,,,,,,,,,,,,,,,,,,,,,,,,,,,,
,,,,,,00086,2023-10-24_19h23.07.724,vbt_B1_day2,2022.2.4,Win32,58.08212813,,,,,,,-0.054629601,-0.095370399,1,0,0,4.6069,0,6,6,18,1,s,images/br_s.png,images/cb_s.png,,,,,,,,,,,,,,,,,,,,,,,,,,,,,,,,,,,,,,,,,,,,,,,
,,,,,,00086,2023-10-24_19h23.07.724,vbt_B1_day2,2022.2.4,Win32,58.08212813,,,,,,,-0.054629601,-0.095370399,1,0,0,3.6185,0,7,7,9,1,j,images/br_j.png,images/cb_j.png,,,,,,,,,,,,,,,,,,,,,,,,,,,,,,,,,,,,,,,,,,,,,,,
,,,,,,00086,2023-10-24_19h23.07.724,vbt_B1_day2,2022.2.4,Win32,58.08212813,,,,,,,-0.054629601,-0.095370399,1,0,0,0.2549,0,8,8,2,1,c,images/br_c.png,images/cb_c.png,,,,,,,,,,,,,,,,,,,,,,,,,,,,,,,,,,,,,,,,,,,,,,,
,,,,,,00086,2023-10-24_19h23.07.724,vbt_B1_day2,2022.2.4,Win32,58.08212813,,,,,,,-0.054629601,-0.095370399,1,0,0,0.3955,0,9,9,7,1,h,images/br_h.png,images/cb_h.png,,,,,,,,,,,,,,,,,,,,,,,,,,,,,,,,,,,,,,,,,,,,,,,
,,,,,,00086,2023-10-24_19h23.07.724,vbt_B1_day2,2022.2.4,Win32,58.08212813,,,,,,,-0.054629601,-0.095370399,1,0,0,2.8348,0,10,10,25,1,z,images/br_z.png,images/cb_z.png,,,,,,,,,,,,,,,,,,,,,,,,,,,,,,,,,,,,,,,,,,,,,,,
,,,,,,00086,2023-10-24_19h23.07.724,vbt_B1_day2,2022.2.4,Win32,58.08212813,,,,,,,-0.054629601,-0.095370399,1,0,0,0.5686,0,11,11,6,1,g,images/br_g.png,images/cb_g.png,,,,,,,,,,,,,,,,,,,,,,,,,,,,,,,,,,,,,,,,,,,,,,,
,,,,,,00086,2023-10-24_19h23.07.724,vbt_B1_day2,2022.2.4,Win32,58.08212813,,,,,,,-0.054629601,-0.095370399,1,0,0,0.05,0,12,12,1,1,b,images/br_b.png,images/cb_b.png,,,,,,,,,,,,,,,,,,,,,,,,,,,,,,,,,,,,,,,,,,,,,,,
,,,,,,00086,2023-10-24_19h23.07.724,vbt_B1_day2,2022.2.4,Win32,58.08212813,,,,,,,-0.054629601,-0.095370399,1,0,0,0.5061,0,13,13,5,1,f,images/br_f.png,images/cb_f.png,,,,,,,,,,,,,,,,,,,,,,,,,,,,,,,,,,,,,,,,,,,,,,,
,,,,,,00086,2023-10-24_19h23.07.724,vbt_B1_day2,2022.2.4,Win32,58.08212813,,,,,,,-0.054629601,-0.095370399,1,0,0,1.2365,0,14,14,15,1,p,images/br_p.png,images/cb_p.png,,,,,,,,,,,,,,,,,,,,,,,,,,,,,,,,,,,,,,,,,,,,,,,
,,,,,,00086,2023-10-24_19h23.07.724,vbt_B1_day2,2022.2.4,Win32,58.08212813,,,,,,,-0.054629601,-0.095370399,1,0,0,1.5845,0,15,15,14,1,o,images/br_o.png,images/cb_o.png,,,,,,,,,,,,,,,,,,,,,,,,,,,,,,,,,,,,,,,,,,,,,,,
,,,,,,00086,2023-10-24_19h23.07.724,vbt_B1_day2,2022.2.4,Win32,58.08212813,,,,,,,-0.054629601,-0.095370399,1,0,0,0.9105,0,16,16,13,1,n,images/br_n.png,images/cb_n.png,,,,,,,,,,,,,,,,,,,,,,,,,,,,,,,,,,,,,,,,,,,,,,,
,,,,,,00086,2023-10-24_19h23.07.724,vbt_B1_day2,2022.2.4,Win32,58.08212813,,,,,,,-0.054629601,-0.095370399,1,0,0,0.9105,0,17,17,4,1,e,images/br_e.png,images/cb_e.png,,,,,,,,,,,,,,,,,,,,,,,,,,,,,,,,,,,,,,,,,,,,,,,
,,,,,,00086,2023-10-24_19h23.07.724,vbt_B1_day2,2022.2.4,Win32,58.08212813,,,,,,,-0.054629601,-0.095370399,1,0,0,1.2026,0,18,18,20,1,u,images/br_u.png,images/cb_u.png,,,,,,,,,,,,,,,,,,,,,,,,,,,,,,,,,,,,,,,,,,,,,,,
,,,,,,00086,2023-10-24_19h23.07.724,vbt_B1_day2,2022.2.4,Win32,58.08212813,,,,,,,-0.054629601,-0.095370399,1,0,0,0.7139,0,19,19,12,1,m,images/br_m.png,images/cb_m.png,,,,,,,,,,,,,,,,,,,,,,,,,,,,,,,,,,,,,,,,,,,,,,,
,,,,,,00086,2023-10-24_19h23.07.724,vbt_B1_day2,2022.2.4,Win32,58.08212813,,,,,,,-0.054629601,-0.095370399,1,0,0,1.3212,0,20,20,19,1,t,images/br_t.png,images/cb_t.png,,,,,,,,,,,,,,,,,,,,,,,,,,,,,,,,,,,,,,,,,,,,,,,
,,,,,,00086,2023-10-24_19h23.07.724,vbt_B1_day2,2022.2.4,Win32,58.08212813,,,,,,,-0.054629601,-0.095370399,1,0,0,1.1646,0,21,21,16,1,q,images/br_q.png,images/cb_q.png,,,,,,,,,,,,,,,,,,,,,,,,,,,,,,,,,,,,,,,,,,,,,,,
,,,,,,00086,2023-10-24_19h23.07.724,vbt_B1_day2,2022.2.4,Win32,58.08212813,,,,,,,-0.054629601,-0.095370399,1,0,0,2.522,0,22,22,17,1,r,images/br_r.png,images/cb_r.png,,,,,,,,,,,,,,,,,,,,,,,,,,,,,,,,,,,,,,,,,,,,,,,
,,,,,,00086,2023-10-24_19h23.07.724,vbt_B1_day2,2022.2.4,Win32,58.08212813,,,,,,,-0.054629601,-0.095370399,1,0,0,0.2391,0,23,23,8,1,i,images/br_i.png,images/cb_i.png,,,,,,,,,,,,,,,,,,,,,,,,,,,,,,,,,,,,,,,,,,,,,,,
,,,,,,00086,2023-10-24_19h23.07.724,vbt_B1_day2,2022.2.4,Win32,58.08212813,,,,,,,-0.054629601,-0.095370399,1,0,0,0.9865,0,24,24,3,1,d,images/br_d.png,images/cb_d.png,,,,,,,,,,,,,,,,,,,,,,,,,,,,,,,,,,,,,,,,,,,,,,,
,,,,,,00086,2023-10-24_19h23.07.724,vbt_B1_day2,2022.2.4,Win32,58.08212813,,,,,,,-0.054629601,-0.095370399,1,0,0,1.358,0,25,25,10,1,k,images/br_k.png,images/cb_k.png,,,,,,,,,,,,,,,,,,,,,,,,,,,,,,,,,,,,,,,,,,,,,,,
,,,,,,00086,2023-10-24_19h23.07.724,vbt_B1_day2,2022.2.4,Win32,58.08212813,,,,,,,,,,,,,,,,,,,,,-0.054629601,-0.095370399,1,0,0,30.0036,,,,,,,,,,,,,,,,,,,,,,,,,,,,,,,,,,,,,,,,,
,,,,,,00086,2023-10-24_19h23.07.724,vbt_B1_day2,2022.2.4,Win32,58.08212813,,,,,,,,,,,,,,,,,,,,,,,,,,,down,0,25.7322,,-0.054629601,-0.095370399,1,0,0,63.6114,0,0,0,148,1,smullen,images/br_smullen.png,images/cb_smullen.png,0,,,,,,,,,,,,,,,,,,,,,,
,,,,,,00086,2023-10-24_19h23.07.724,vbt_B1_day2,2022.2.4,Win32,58.08212813,,,,,,,,,,,,,,,,,,,,,,,,,,,down,0,15.9626,,-0.280555556,0.007407379,1,0,0,6.1344,0,1,1,56,1,traag,images/br_traag.png,images/cb_traag.png,1,traag,,,,,,,,,,,,,,,,,,,,,
,,,,,,00086,2023-10-24_19h23.07.724,vbt_B1_day2,2022.2.4,Win32,58.08212813,,,,,,,,,,,,,,,,,,,,,,,,,,,down,0,51.5698,,-0.351851824,-0.087037065,1,0,0,8.2847,0,2,2,147,1,komisch,images/br_komisch.png,images/cb_komisch.png,0,,,,,,,,,,,,,,,,,,,,,,
,,,,,,00086,2023-10-24_19h23.07.724,vbt_B1_day2,2022.2.4,Win32,58.08212813,,,,,,,,,,,,,,,,,,,,,,,,,,,down,0,15.1323,,-0.044444444,-0.117592621,1,0,0,1.5444,0,3,3,30,1,uien,images/br_uien.png,images/cb_uien.png,0,,,,,,,,,,,,,,,,,,,,,,
,,,,,,00086,2023-10-24_19h23.07.724,vbt_B1_day2,2022.2.4,Win32,58.08212813,,,,,,,,,,,,,,,,,,,,,,,,,,,down,0,76.0746,,-0.044444444,-0.117592621,1,0,0,27.091,0,4,4,195,1,middelen,images/br_middelen.png,images/cb_middelen.png,0,,,,,,,,,,,,,,,,,,,,,,
,,,,,,00086,2023-10-24_19h23.07.724,vbt_B1_day2,2022.2.4,Win32,58.08212813,,,,,,,,,,,,,,,,,,,,,,,,,,,down,0,19.1142,,-0.044444444,-0.117592621,1,0,0,1.7855,0,5,5,158,1,innemen,images/br_innemen.png,images/cb_innemen.png,0,,,,,,,,,,,,,,,,,,,,,,
,,,,,,00086,2023-10-24_19h23.07.724,vbt_B1_day2,2022.2.4,Win32,58.08212813,,,,,,,,,,,,,,,,,,,,,,,,,,,down,0,41.137,,0.004629686,-0.167592621,1,0,0,2.0216,0,6,6,176,1,techniek,images/br_techniek.png,images/cb_techniek.png,1,techniek,,,,,,,,,,,,,,,,,,,,,
,,,,,,00086,2023-10-24_19h23.07.724,vbt_B1_day2,2022.2.4,Win32,58.08212813,,,,,,,,,,,,,,,,,,,,,,,,,,,down,0,48.4196,,-0.062962935,-0.040740755,1,0,0,28.0925,0,7,7,135,1,gedicht,images/br_gedicht.png,images/cb_gedicht.png,0,,,,,,,,,,,,,,,,,,,,,,
,,,,,,00086,2023-10-24_19h23.07.724,vbt_B1_day2,2022.2.4,Win32,58.08212813,,,,,,,,,,,,,,,,,,,,,,,,,,,down,0,19.0184,,-0.240740712,-0.065740755,1,0,0,2.8182,0,8,8,160,1,daarheen,images/br_daarheen.png,images/cb_daarheen.png,0,,,,,,,,,,,,,,,,,,,,,,
,,,,,,00086,2023-10-24_19h23.07.724,vbt_B1_day2,2022.2.4,Win32,58.08212813,,,,,,,,,,,,,,,,,,,,,,,,,,,down,0,34.7291,,-0.117592536,-0.134259288,1,0,0,6.811,0,9,9,131,1,opzicht,images/br_opzicht.png,images/cb_opzicht.png,0,,,,,,,,,,,,,,,,,,,,,,
,,,,,,00086,2023-10-24_19h23.07.724,vbt_B1_day2,2022.2.4,Win32,58.08212813,,,,,,,,,,,,,,,,,,,,,,,,,,,down,0,12.5177,,-0.173148092,-0.117592621,1,0,0,1.841,0,10,10,156,1,rechten,images/br_rechten.png,images/cb_rechten.png,0,,,,,,,,,,,,,,,,,,,,,,
,,,,,,00086,2023-10-24_19h23.07.724,vbt_B1_day2,2022.2.4,Win32,58.08212813,,,,,,,,,,,,,,,,,,,,,,,,,,,down,0,25.6533,,-0.387037023,-0.086111111,1,0,0,3.4608,0,11,11,9,1,hier,images/br_hier.png,images/cb_hier.png,0,,,,,,,,,,,,,,,,,,,,,,
,,,,,,00086,2023-10-24_19h23.07.724,vbt_B1_day2,2022.2.4,Win32,58.08212813,,,,,,,,,,,,,,,,,,,,,,,,,,,down,0,21.9996,,-0.160185157,-0.15648151,1,0,0,2.4673,0,12,12,149,1,redding,images/br_redding.png,images/cb_redding.png,0,,,,,,,,,,,,,,,,,,,,,,
,,,,,,00086,2023-10-24_19h23.07.724,vbt_B1_day2,2022.2.4,Win32,58.08212813,,,,,,,,,,,,,,,,,,,,,,,,,,,down,0,17.5169,,-0.222222222,-0.133333333,1,0,0,1.8301,0,13,13,162,1,uitdelen,images/br_uitdelen.png,images/cb_uitdelen.png,0,,,,,,,,,,,,,,,,,,,,,,
,,,,,,00086,2023-10-24_19h23.07.724,vbt_B1_day2,2022.2.4,Win32,58.08212813,,,,,,,,,,,,,,,,,,,,,,,,,,,down,0,5.417,,-0.392592578,-0.105555556,1,0,0,1.8281,0,14,14,64,1,wegen,images/br_wegen.png,images/cb_wegen.png,0,,,,,,,,,,,,,,,,,,,,,,
,,,,,,00086,2023-10-24_19h23.07.724,vbt_B1_day2,2022.2.4,Win32,58.08212813,,,,,,,,,,,,,,,,,,,,,,,,,,,down,0,6.3856,,-0.44351849,-0.072222222,1,0,0,0.7963,0,15,15,181,1,toegeven,images/br_toegeven.png,images/cb_toegeven.png,0,,,,,,,,,,,,,,,,,,,,,,
,,,,,,00086,2023-10-24_19h23.07.724,vbt_B1_day2,2022.2.4,Win32,58.08212813,,,,,,,,,,,,,,,,,,,,,,,,,,,down,0,5.5038,,-0.234259245,-0.052777778,1,0,0,0.9357,0,16,16,73,1,volop,images/br_volop.png,images/cb_volop.png,0,,,,,,,,,,,,,,,,,,,,,,
,,,,,,00086,2023-10-24_19h23.07.724,vbt_B1_day2,2022.2.4,Win32,58.08212813,,,,,,,,,,,,,,,,,,,,,,,,,,,down,0,15.1591,,-0.338888889,-0.025925954,1,0,0,1.4675,0,17,17,152,1,afnemen,images/br_afnemen.png,images/cb_afnemen.png,0,,,,,,,,,,,,,,,,,,,,,,
,,,,,,00086,2023-10-24_19h23.07.724,vbt_B1_day2,2022.2.4,Win32,58.08212813,,,,,,,,,,,,,,,,,,,,,,,,,,,down,0,9.3597,,-0.570370356,-0.026851866,1,0,0,1.4168,0,18,18,88,1,boeien,images/br_boeien.png,images/cb_boeien.png,0,,,,,,,,,,,,,,,,,,,,,,
,,,,,,00086,2023-10-24_19h23.07.724,vbt_B1_day2,2022.2.4,Win32,58.08212813,,,,,,,,,,,,,,,,,,,,,,,,,,,down,0,6.2664,,-0.570370356,-0.026851866,1,0,0,0.9356,0,19,19,36,1,vuur,images/br_vuur.png,images/cb_vuur.png,0,,,,,,,,,,,,,,,,,,,,,,
,,,,,,00086,2023-10-24_19h23.07.724,vbt_B1_day2,2022.2.4,Win32,58.08212813,,,,,,,,,,,,,,,,,,,,,,,,,,,down,0,4.631,,-0.570370356,-0.026851866,1,0,0,0.7723,0,20,20,34,1,vorm,images/br_vorm.png,images/cb_vorm.png,0,,,,,,,,,,,,,,,,,,,,,,
,,,,,,00086,2023-10-24_19h23.07.724,vbt_B1_day2,2022.2.4,Win32,58.08212813,,,,,,,,,,,,,,,,,,,,,,,,,,,down,0,16.3494,,-0.570370356,-0.026851866,1,0,0,2.2691,0,21,21,14,1,rijp,images/br_rijp.png,images/cb_rijp.png,0,,,,,,,,,,,,,,,,,,,,,,
,,,,,,00086,2023-10-24_19h23.07.724,vbt_B1_day2,2022.2.4,Win32,58.08212813,,,,,,,,,,,,,,,,,,,,,,,,,,,down,0,15.0835,,-0.570370356,-0.026851866,1,0,0,3.1347,0,22,22,80,1,kanjer,images/br_kanjer.png,images/cb_kanjer.png,0,,,,,,,,,,,,,,,,,,,,,,
,,,,,,00086,2023-10-24_19h23.07.724,vbt_B1_day2,2022.2.4,Win32,58.08212813,,,,,,,,,,,,,,,,,,,,,,,,,,,down,0,7.0497,,-0.570370356,-0.026851866,1,0,0,1.0856,0,23,23,119,1,liefje,images/br_liefje.png,images/cb_liefje.png,0,,,,,,,,,,,,,,,,,,,,,,
,,,,,,00086,2023-10-24_19h23.07.724,vbt_B1_day2,2022.2.4,Win32,58.08212813,,,,,,,,,,,,,,,,,,,,,,,,,,,down,0,7.3213,,-0.570370356,-0.026851866,1,0,0,0.867,0,24,24,92,1,geheim,images/br_geheim.png,images/cb_geheim.png,0,,,,,,,,,,,,,,,,,,,,,,
,,,,,,00086,2023-10-24_19h23.07.724,vbt_B1_day2,2022.2.4,Win32,58.08212813,,,,,,,,,,,,,,,,,,,,,,,,,,,down,0,52.6747,,-0.259259245,-0.093518533,1,0,0,3.6172,0,25,25,179,1,woestijn,images/br_woestijn.png,images/cb_woestijn.png,1,woestijn,,,,,,,,,,,,,,,,,,,,,
,,,,,,00086,2023-10-24_19h23.07.724,vbt_B1_day2,2022.2.4,Win32,58.08212813,,,,,,,,,,,,,,,,,,,,,,,,,,,down,0,6.5222,,-0.058333333,-0.114814843,1,0,0,0.7183,0,26,26,113,1,koppen,images/br_koppen.png,images/cb_koppen.png,0,,,,,,,,,,,,,,,,,,,,,,
,,,,,,00086,2023-10-24_19h23.07.724,vbt_B1_day2,2022.2.4,Win32,58.08212813,,,,,,,,,,,,,,,,,,,,,,,,,,,down,0,2.3513,,-0.058333333,-0.114814843,1,0,0,0.7866,0,27,27,84,1,lokken,images/br_lokken.png,images/cb_lokken.png,0,,,,,,,,,,,,,,,,,,,,,,
,,,,,,00086,2023-10-24_19h23.07.724,vbt_B1_day2,2022.2.4,Win32,58.08212813,,,,,,,,,,,,,,,,,,,,,,,,,,,down,0,8.6747,,-0.044444444,-0.127777778,1,0,0,0.6679,0,28,28,58,1,tekst,images/br_tekst.png,images/cb_tekst.png,1,tekst,,,,,,,,,,,,,,,,,,,,,
,,,,,,00086,2023-10-24_19h23.07.724,vbt_B1_day2,2022.2.4,Win32,58.08212813,,,,,,,,,,,,,,,,,,,,,,,,,,,down,0,12.5726,,-0.044444444,-0.127777778,1,0,0,0.5543,0,29,29,141,1,knielen,images/br_knielen.png,images/cb_knielen.png,0,,,,,,,,,,,,,,,,,,,,,,
,,,,,,00086,2023-10-24_19h23.07.724,vbt_B1_day2,2022.2.4,Win32,58.08212813,,,,,,,,,,,,,,,,,,,,,,,,,,,down,0,5.8161,,-0.044444444,-0.127777778,1,0,0,0.6557,0,30,30,20,1,site,images/br_site.png,images/cb_site.png,0,,,,,,,,,,,,,,,,,,,,,,
,,,,,,00086,2023-10-24_19h23.07.724,vbt_B1_day2,2022.2.4,Win32,58.08212813,,,,,,,,,,,,,,,,,,,,,,,,,,,down,0,11.7383,,-0.044444444,-0.127777778,1,0,0,0.4852,0,31,31,194,1,driemaal,images/br_driemaal.png,images/cb_driemaal.png,0,,,,,,,,,,,,,,,,,,,,,,
,,,,,,00086,2023-10-24_19h23.07.724,vbt_B1_day2,2022.2.4,Win32,58.08212813,,,,,,,,,,,,,,,,,,,,,,,,,,,down,0,10.6754,,-0.044444444,-0.127777778,1,0,0,0.6035,0,32,32,161,1,attentie,images/br_attentie.png,images/cb_attentie.png,0,,,,,,,,,,,,,,,,,,,,,,
,,,,,,00086,2023-10-24_19h23.07.724,vbt_B1_day2,2022.2.4,Win32,58.08212813,,,,,,,,,,,,,,,,,,,,,,,,,,,down,0,2.6518,,-0.044444444,-0.127777778,1,0,0,1.5854,0,33,33,112,1,lukken,images/br_lukken.png,images/cb_lukken.png,0,,,,,,,,,,,,,,,,,,,,,,
,,,,,,00086,2023-10-24_19h23.07.724,vbt_B1_day2,2022.2.4,Win32,58.08212813,,,,,,,,,,,,,,,,,,,,,,,,,,,down,0,2.6007,,-0.044444444,-0.127777778,1,0,0,0.6713,0,34,34,35,1,lust,images/br_lust.png,images/cb_lust.png,0,,,,,,,,,,,,,,,,,,,,,,
,,,,,,00086,2023-10-24_19h23.07.724,vbt_B1_day2,2022.2.4,Win32,58.08212813,,,,,,,,,,,,,,,,,,,,,,,,,,,down,0,6.2856,,-0.044444444,-0.127777778,1,0,0,0.4597,0,35,35,76,1,afval,images/br_afval.png,images/cb_afval.png,0,,,,,,,,,,,,,,,,,,,,,,
,,,,,,00086,2023-10-24_19h23.07.724,vbt_B1_day2,2022.2.4,Win32,58.08212813,,,,,,,,,,,,,,,,,,,,,,,,,,,down,0,9.1672,,-0.044444444,-0.127777778,1,0,0,0.5107,0,36,36,40,1,schep,images/br_schep.png,images/cb_schep.png,0,,,,,,,,,,,,,,,,,,,,,,
,,,,,,00086,2023-10-24_19h23.07.724,vbt_B1_day2,2022.2.4,Win32,58.08212813,,,,,,,,,,,,,,,,,,,,,,,,,,,down,0,10.3391,,-0.044444444,-0.127777778,1,0,0,0.5023,0,37,37,106,1,zingen,images/br_zingen.png,images/cb_zingen.png,0,,,,,,,,,,,,,,,,,,,,,,
,,,,,,00086,2023-10-24_19h23.07.724,vbt_B1_day2,2022.2.4,Win32,58.08212813,,,,,,,,,,,,,,,,,,,,,,,,,,,down,0,16.0674,,-0.044444444,-0.127777778,1,0,0,1.717,0,38,38,59,1,kring,images/br_kring.png,images/cb_kring.png,1,kreng,,,,,,,,,,,,,,,,,,,,,
,,,,,,00086,2023-10-24_19h23.07.724,vbt_B1_day2,2022.2.4,Win32,58.08212813,,,,,,,,,,,,,,,,,,,,,,,,,,,down,0,9.8015,,-0.044444444,-0.127777778,1,0,0,0.4014,0,39,39,120,1,klimmen,images/br_klimmen.png,images/cb_klimmen.png,0,,,,,,,,,,,,,,,,,,,,,,
,,,,,,00086,2023-10-24_19h23.07.724,vbt_B1_day2,2022.2.4,Win32,58.08212813,,,,,,,,,,,,,,,,,,,,,,,,,,,down,0,6.2175,,0.000925954,-0.137037065,1,0,0,0.5022,0,40,40,99,1,koffie,images/br_koffie.png,images/cb_koffie.png,1,koffie,,,,,,,,,,,,,,,,,,,,,
,,,,,,00086,2023-10-24_19h23.07.724,vbt_B1_day2,2022.2.4,Win32,58.08212813,,,,,,,,,,,,,,,,,,,,,,,,,,,down,0,8.4127,,0.000925954,-0.137037065,1,0,0,0.5009,0,41,41,45,1,piste,images/br_piste.png,images/cb_piste.png,0,,,,,,,,,,,,,,,,,,,,,,
,,,,,,00086,2023-10-24_19h23.07.724,vbt_B1_day2,2022.2.4,Win32,58.08212813,,,,,,,,,,,,,,,,,,,,,,,,,,,down,0,7.493,,0.000925954,-0.137037065,1,0,0,0.6172,0,42,42,142,1,snuiven,images/br_snuiven.png,images/cb_snuiven.png,0,,,,,,,,,,,,,,,,,,,,,,
,,,,,,00086,2023-10-24_19h23.07.724,vbt_B1_day2,2022.2.4,Win32,58.08212813,,,,,,,,,,,,,,,,,,,,,,,,,,,down,0,7.5345,,0.010185242,-0.136111111,1,0,0,0.4729,0,43,43,57,1,steek,images/br_steek.png,images/cb_steek.png,1,steek,,,,,,,,,,,,,,,,,,,,,
,,,,,,00086,2023-10-24_19h23.07.724,vbt_B1_day2,2022.2.4,Win32,58.08212813,,,,,,,,,,,,,,,,,,,,,,,,,,,down,0,15.1991,,0.010185242,-0.136111111,1,0,0,0.4865,0,44,44,23,1,zout,images/br_zout.png,images/cb_zout.png,0,,,,,,,,,,,,,,,,,,,,,,
,,,,,,00086,2023-10-24_19h23.07.724,vbt_B1_day2,2022.2.4,Win32,58.08212813,,,,,,,,,,,,,,,,,,,,,,,,,,,down,0,9.9847,,0.010185242,-0.136111111,1,0,0,0.5823,0,45,45,37,1,mijn,images/br_mijn.png,images/cb_mijn.png,0,,,,,,,,,,,,,,,,,,,,,,
,,,,,,00086,2023-10-24_19h23.07.724,vbt_B1_day2,2022.2.4,Win32,58.08212813,,,,,,,,,,,,,,,,,,,,,,,,,,,down,0,9.0669,,0.010185242,-0.136111111,1,0,0,0.5869,0,46,46,47,1,kabel,images/br_kabel.png,images/cb_kabel.png,0,,,,,,,,,,,,,,,,,,,,,,
,,,,,,00086,2023-10-24_19h23.07.724,vbt_B1_day2,2022.2.4,Win32,58.08212813,,,,,,,,,,,,,,,,,,,,,,,,,,,down,0,5.7878,,0.010185242,-0.136111111,1,0,0,0.8507,0,47,47,96,1,slagen,images/br_slagen.png,images/cb_slagen.png,1,slagen,,,,,,,,,,,,,,,,,,,,,
,,,,,,00086,2023-10-24_19h23.07.724,vbt_B1_day2,2022.2.4,Win32,58.08212813,,,,,,,,,,,,,,,,,,,,,,,,,,,down,0,7.1841,,0.010185242,-0.136111111,1,0,0,1.5077,0,48,48,63,1,flirt,images/br_flirt.png,images/cb_flirt.png,0,,,,,,,,,,,,,,,,,,,,,,
,,,,,,00086,2023-10-24_19h23.07.724,vbt_B1_day2,2022.2.4,Win32,58.08212813,,,,,,,,,,,,,,,,,,,,,,,,,,,down,0,5.835,,0.010185242,-0.136111111,1,0,0,0.5871,0,49,49,5,1,blad,images/br_blad.png,images/cb_blad.png,0,,,,,,,,,,,,,,,,,,,,,,
,,,,,,00086,2023-10-24_19h23.07.724,vbt_B1_day2,2022.2.4,Win32,58.08212813,,,,,,,,,,,,,,,,,,,,,,,,,,,down,0,9.6609,,0.010185242,-0.136111111,1,0,0,0.5684,0,50,50,146,1,opkomen,images/br_opkomen.png,images/cb_opkomen.png,0,,,,,,,,,,,,,,,,,,,,,,
,,,,,,00086,2023-10-24_19h23.07.724,vbt_B1_day2,2022.2.4,Win32,58.08212813,,,,,,,,,,,,,,,,,,,,,,,,,,,down,0,7.3761,,0.010185242,-0.136111111,1,0,0,1.4199,0,51,51,18,1,blik,images/br_blik.png,images/cb_blik.png,1,blik,,,,,,,,,,,,,,,,,,,,,
,,,,,,00086,2023-10-24_19h23.07.724,vbt_B1_day2,2022.2.4,Win32,58.08212813,,,,,,,,,,,,,,,,,,,,,,,,,,,down,0,10.2388,,0.010185242,-0.136111111,1,0,0,0.6974,0,52,52,199,1,beseffen,images/br_beseffen.png,images/cb_beseffen.png,0,,,,,,,,,,,,,,,,,,,,,,
,,,,,,00086,2023-10-24_19h23.07.724,vbt_B1_day2,2022.2.4,Win32,58.08212813,,,,,,,,,,,,,,,,,,,,,,,,,,,down,0,10.7183,,0.010185242,-0.136111111,1,0,0,1.5034,0,53,53,151,1,aanzoek,images/br_aanzoek.png,images/cb_aanzoek.png,0,,,,,,,,,,,,,,,,,,,,,,
,,,,,,00086,2023-10-24_19h23.07.724,vbt_B1_day2,2022.2.4,Win32,58.08212813,,,,,,,,,,,,,,,,,,,,,,,,,,,down,0,24.2474,,0.010185242,-0.136111111,1,0,0,0.6538,0,54,54,185,1,mijnheer,images/br_mijnheer.png,images/cb_mijnheer.png,0,,,,,,,,,,,,,,,,,,,,,,
,,,,,,00086,2023-10-24_19h23.07.724,vbt_B1_day2,2022.2.4,Win32,58.08212813,,,,,,,,,,,,,,,,,,,,,,,,,,,down,0,14.3402,,0.010185242,-0.136111111,1,0,0,1.0665,0,55,55,178,1,huisdier,images/br_huisdier.png,images/cb_huisdier.png,1,huisdier,,,,,,,,,,,,,,,,,,,,,
,,,,,,00086,2023-10-24_19h23.07.724,vbt_B1_day2,2022.2.4,Win32,58.08212813,,,,,,,,,,,,,,,,,,,,,,,,,,,down,0,28.764,,0.010185242,-0.136111111,1,0,0,1.9694,0,56,56,114,1,vullen,images/br_vullen.png,images/cb_vullen.png,0,,,,,,,,,,,,,,,,,,,,,,
,,,,,,00086,2023-10-24_19h23.07.724,vbt_B1_day2,2022.2.4,Win32,58.08212813,,,,,,,,,,,,,,,,,,,,,,,,,,,down,0,13.8206,,-0.098148092,-0.097222222,1,0,0,0.7843,0,57,57,85,1,heilig,images/br_heilig.png,images/cb_heilig.png,0,,,,,,,,,,,,,,,,,,,,,,
,,,,,,00086,2023-10-24_19h23.07.724,vbt_B1_day2,2022.2.4,Win32,58.08212813,,,,,,,,,,,,,,,,,,,,,,,,,,,down,0,7.6025,,-0.098148092,-0.097222222,1,0,0,0.6349,0,58,58,93,1,waarop,images/br_waarop.png,images/cb_waarop.png,0,,,,,,,,,,,,,,,,,,,,,,
,,,,,,00086,2023-10-24_19h23.07.724,vbt_B1_day2,2022.2.4,Win32,58.08212813,,,,,,,,,,,,,,,,,,,,,,,,,,,down,0,16.5315,,-0.098148092,-0.095370399,1,0,0,2.7684,0,59,59,83,1,mening,images/br_mening.png,images/cb_mening.png,0,,,,,,,,,,,,,,,,,,,,,,
,,,,,,00086,2023-10-24_19h23.07.724,vbt_B1_day2,2022.2.4,Win32,58.08212813,,,,,,,,,,,,,,,,,,,,,,,,,,,down,0,10.387,,-0.095370314,-0.093518533,1,0,0,2.7167,0,60,60,3,1,mand,images/br_mand.png,images/cb_mand.png,0,,,,,,,,,,,,,,,,,,,,,,
,,,,,,00086,2023-10-24_19h23.07.724,vbt_B1_day2,2022.2.4,Win32,58.08212813,,,,,,,,,,,,,,,,,,,,,,,,,,,down,0,3.4668,,-0.294444444,-0.190740755,1,0,0,0.6107,0,61,61,68,1,schat,images/br_schat.png,images/cb_schat.png,0,,,,,,,,,,,,,,,,,,,,,,
,,,,,,00086,2023-10-24_19h23.07.724,vbt_B1_day2,2022.2.4,Win32,58.08212813,,,,,,,,,,,,,,,,,,,,,,,,,,,down,0,19.4817,,-0.294444444,-0.190740755,1,0,0,0.6439,0,62,62,129,1,verhaal,images/br_verhaal.png,images/cb_verhaal.png,0,,,,,,,,,,,,,,,,,,,,,,
,,,,,,00086,2023-10-24_19h23.07.724,vbt_B1_day2,2022.2.4,Win32,58.08212813,,,,,,,,,,,,,,,,,,,,,,,,,,,down,0,5.9543,,-0.294444444,-0.190740755,1,0,0,0.4937,0,63,63,188,1,strekken,images/br_strekken.png,images/cb_strekken.png,0,,,,,,,,,,,,,,,,,,,,,,
,,,,,,00086,2023-10-24_19h23.07.724,vbt_B1_day2,2022.2.4,Win32,58.08212813,,,,,,,,,,,,,,,,,,,,,,,,,,,down,0,4.2232,,-0.294444444,-0.190740755,1,0,0,0.7421,0,64,64,38,1,baai,images/br_baai.png,images/cb_baai.png,0,,,,,,,,,,,,,,,,,,,,,,
,,,,,,00086,2023-10-24_19h23.07.724,vbt_B1_day2,2022.2.4,Win32,58.08212813,,,,,,,,,,,,,,,,,,,,,,,,,,,down,0,7.917,,-0.294444444,-0.190740755,1,0,0,2.1655,0,65,65,167,1,eenhoorn,images/br_eenhoorn.png,images/cb_eenhoorn.png,0,,,,,,,,,,,,,,,,,,,,,,
,,,,,,00086,2023-10-24_19h23.07.724,vbt_B1_day2,2022.2.4,Win32,58.08212813,,,,,,,,,,,,,,,,,,,,,,,,,,,down,0,13.8375,,-0.294444444,-0.190740755,1,0,0,3.8669,0,66,66,117,1,kennis,images/br_kennis.png,images/cb_kennis.png,0,,,,,,,,,,,,,,,,,,,,,,
,,,,,,00086,2023-10-24_19h23.07.724,vbt_B1_day2,2022.2.4,Win32,58.08212813,,,,,,,,,,,,,,,,,,,,,,,,,,,down,0,2.494,,-0.294444444,-0.190740755,1,0,0,0.6034,0,67,67,50,1,stoom,images/br_stoom.png,images/cb_stoom.png,0,,,,,,,,,,,,,,,,,,,,,,
,,,,,,00086,2023-10-24_19h23.07.724,vbt_B1_day2,2022.2.4,Win32,58.08212813,,,,,,,,,,,,,,,,,,,,,,,,,,,down,0,7.5168,,-0.294444444,-0.190740755,1,0,0,0.9029,0,68,68,107,1,maling,images/br_maling.png,images/cb_maling.png,0,,,,,,,,,,,,,,,,,,,,,,
,,,,,,00086,2023-10-24_19h23.07.724,vbt_B1_day2,2022.2.4,Win32,58.08212813,,,,,,,,,,,,,,,,,,,,,,,,,,,down,0,7.8382,,-0.294444444,-0.190740755,1,0,0,0.8192,0,69,69,124,1,bloeien,images/br_bloeien.png,images/cb_bloeien.png,0,,,,,,,,,,,,,,,,,,,,,,
,,,,,,00086,2023-10-24_19h23.07.724,vbt_B1_day2,2022.2.4,Win32,58.08212813,,,,,,,,,,,,,,,,,,,,,,,,,,,down,0,12.0501,,-0.294444444,-0.190740755,1,0,0,1.8858,0,70,70,190,1,goedkoop,images/br_goedkoop.png,images/cb_goedkoop.png,0,,,,,,,,,,,,,,,,,,,,,,
,,,,,,00086,2023-10-24_19h23.07.724,vbt_B1_day2,2022.2.4,Win32,58.08212813,,,,,,,,,,,,,,,,,,,,,,,,,,,down,0,24.3805,,-0.294444444,-0.190740755,1,0,0,0.7195,0,71,71,70,1,ijdel,images/br_ijdel.png,images/cb_ijdel.png,0,,,,,,,,,,,,,,,,,,,,,,
,,,,,,00086,2023-10-24_19h23.07.724,vbt_B1_day2,2022.2.4,Win32,58.08212813,,,,,,,,,,,,,,,,,,,,,,,,,,,down,0,11.0275,,-0.036111111,-0.1,1,0,0,1.2411,0,72,72,138,1,akkoord,images/br_akkoord.png,images/cb_akkoord.png,1,akkoord,,,,,,,,,,,,,,,,,,,,,
,,,,,,00086,2023-10-24_19h23.07.724,vbt_B1_day2,2022.2.4,Win32,58.08212813,,,,,,,,,,,,,,,,,,,,,,,,,,,down,0,2.6866,,-0.036111111,-0.1,1,0,0,1.4287,0,73,73,7,1,geld,images/br_geld.png,images/cb_geld.png,0,,,,,,,,,,,,,,,,,,,,,,
,,,,,,00086,2023-10-24_19h23.07.724,vbt_B1_day2,2022.2.4,Win32,58.08212813,,,,,,,,,,,,,,,,,,,,,,,,,,,down,0,4.084,,-0.036111111,-0.1,1,0,0,1.1696,0,74,74,21,1,mist,images/br_mist.png,images/cb_mist.png,0,,,,,,,,,,,,,,,,,,,,,,
,,,,,,00086,2023-10-24_19h23.07.724,vbt_B1_day2,2022.2.4,Win32,58.08212813,,,,,,,,,,,,,,,,,,,,,,,,,,,down,0,5.9342,,-0.036111111,-0.1,1,0,0,0.4611,0,75,75,150,1,gegeven,images/br_gegeven.png,images/cb_gegeven.png,0,,,,,,,,,,,,,,,,,,,,,,
,,,,,,00086,2023-10-24_19h23.07.724,vbt_B1_day2,2022.2.4,Win32,58.08212813,,,,,,,,,,,,,,,,,,,,,,,,,,,down,0,6.9273,,-0.036111111,-0.1,1,0,0,0.6372,0,76,76,172,1,weigeren,images/br_weigeren.png,images/cb_weigeren.png,0,,,,,,,,,,,,,,,,,,,,,,
,,,,,,00086,2023-10-24_19h23.07.724,vbt_B1_day2,2022.2.4,Win32,58.08212813,,,,,,,,,,,,,,,,,,,,,,,,,,,down,0,5.6716,,-0.036111111,-0.1,1,0,0,0.4667,0,77,77,173,1,apparaat,images/br_apparaat.png,images/cb_apparaat.png,0,,,,,,,,,,,,,,,,,,,,,,
,,,,,,00086,2023-10-24_19h23.07.724,vbt_B1_day2,2022.2.4,Win32,58.08212813,,,,,,,,,,,,,,,,,,,,,,,,,,,down,0,9.5201,,-0.036111111,-0.1,1,0,0,0.5919,0,78,78,187,1,opkijken,images/br_opkijken.png,images/cb_opkijken.png,0,,,,,,,,,,,,,,,,,,,,,,
,,,,,,00086,2023-10-24_19h23.07.724,vbt_B1_day2,2022.2.4,Win32,58.08212813,,,,,,,,,,,,,,,,,,,,,,,,,,,down,0,5.0442,,-0.036111111,-0.1,1,0,0,0.9089,0,79,79,12,1,kust,images/br_kust.png,images/cb_kust.png,0,,,,,,,,,,,,,,,,,,,,,,
,,,,,,00086,2023-10-24_19h23.07.724,vbt_B1_day2,2022.2.4,Win32,58.08212813,,,,,,,,,,,,,,,,,,,,,,,,,,,down,0,17.3121,,-0.036111111,-0.1,1,0,0,0.8036,0,80,80,123,1,hiervan,images/br_hiervan.png,images/cb_hiervan.png,0,,,,,,,,,,,,,,,,,,,,,,
,,,,,,00086,2023-10-24_19h23.07.724,vbt_B1_day2,2022.2.4,Win32,58.08212813,,,,,,,,,,,,,,,,,,,,,,,,,,,down,0,8.4838,,-0.036111111,-0.1,1,0,0,0.6359,0,81,81,130,1,keihard,images/br_keihard.png,images/cb_keihard.png,0,,,,,,,,,,,,,,,,,,,,,,
,,,,,,00086,2023-10-24_19h23.07.724,vbt_B1_day2,2022.2.4,Win32,58.08212813,,,,,,,,,,,,,,,,,,,,,,,,,,,down,0,2.0352,,-0.036111111,-0.1,1,0,0,0.6958,0,82,82,49,1,laken,images/br_laken.png,images/cb_laken.png,0,,,,,,,,,,,,,,,,,,,,,,
,,,,,,00086,2023-10-24_19h23.07.724,vbt_B1_day2,2022.2.4,Win32,58.08212813,,,,,,,,,,,,,,,,,,,,,,,,,,,down,0,10.2294,,-0.036111111,-0.1,1,0,0,0.6407,0,83,83,175,1,heengaan,images/br_heengaan.png,images/cb_heengaan.png,0,,,,,,,,,,,,,,,,,,,,,,
,,,,,,00086,2023-10-24_19h23.07.724,vbt_B1_day2,2022.2.4,Win32,58.08212813,,,,,,,,,,,,,,,,,,,,,,,,,,,down,0,14.9568,,-0.036111111,-0.1,1,0,0,1.2802,0,84,84,105,1,wijlen,images/br_wijlen.png,images/cb_wijlen.png,0,,,,,,,,,,,,,,,,,,,,,,
,,,,,,00086,2023-10-24_19h23.07.724,vbt_B1_day2,2022.2.4,Win32,58.08212813,,,,,,,,,,,,,,,,,,,,,,,,,,,down,0,12.5847,,-0.036111111,-0.1,1,0,0,0.6801,0,85,85,100,1,geduld,images/br_geduld.png,images/cb_geduld.png,0,,,,,,,,,,,,,,,,,,,,,,
,,,,,,00086,2023-10-24_19h23.07.724,vbt_B1_day2,2022.2.4,Win32,58.08212813,,,,,,,,,,,,,,,,,,,,,,,,,,,down,0,10.4893,,-0.036111111,-0.1,1,0,0,0.7377,0,86,86,180,1,openbaar,images/br_openbaar.png,images/cb_openbaar.png,0,,,,,,,,,,,,,,,,,,,,,,
,,,,,,00086,2023-10-24_19h23.07.724,vbt_B1_day2,2022.2.4,Win32,58.08212813,,,,,,,,,,,,,,,,,,,,,,,,,,,down,0,3.0171,,-0.036111111,-0.1,1,0,0,1.3695,0,87,87,66,1,lever,images/br_lever.png,images/cb_lever.png,0,,,,,,,,,,,,,,,,,,,,,,
,,,,,,00086,2023-10-24_19h23.07.724,vbt_B1_day2,2022.2.4,Win32,58.08212813,,,,,,,,,,,,,,,,,,,,,,,,,,,down,0,16.7325,,-0.036111111,-0.1,1,0,0,0.9018,0,88,88,75,1,snoep,images/br_snoep.png,images/cb_snoep.png,0,,,,,,,,,,,,,,,,,,,,,,
,,,,,,00086,2023-10-24_19h23.07.724,vbt_B1_day2,2022.2.4,Win32,58.08212813,,,,,,,,,,,,,,,,,,,,,,,,,,,down,0,1.2169,,-0.036111111,-0.1,1,0,0,0.6975,0,89,89,13,1,kaal,images/br_kaal.png,images/cb_kaal.png,0,,,,,,,,,,,,,,,,,,,,,,
,,,,,,00086,2023-10-24_19h23.07.724,vbt_B1_day2,2022.2.4,Win32,58.08212813,,,,,,,,,,,,,,,,,,,,,,,,,,,down,0,7.0172,,-0.036111111,-0.1,1,0,0,0.8766,0,90,90,139,1,stiekem,images/br_stiekem.png,images/cb_stiekem.png,1,stiekem,,,,,,,,,,,,,,,,,,,,,
,,,,,,00086,2023-10-24_19h23.07.724,vbt_B1_day2,2022.2.4,Win32,58.08212813,,,,,,,,,,,,,,,,,,,,,,,,,,,down,0,5.1014,,-0.003703647,-0.103703732,1,0,0,1.4497,0,91,91,52,1,wagon,images/br_wagon.png,images/cb_wagon.png,0,,,,,,,,,,,,,,,,,,,,,,
,,,,,,00086,2023-10-24_19h23.07.724,vbt_B1_day2,2022.2.4,Win32,58.08212813,,,,,,,,,,,,,,,,,,,,,,,,,,,down,0,14.9156,,-0.003703647,-0.103703732,1,0,0,0.6043,0,92,92,196,1,nakijken,images/br_nakijken.png,images/cb_nakijken.png,0,,,,,,,,,,,,,,,,,,,,,,
,,,,,,00086,2023-10-24_19h23.07.724,vbt_B1_day2,2022.2.4,Win32,58.08212813,,,,,,,,,,,,,,,,,,,,,,,,,,,down,0,8.6768,,-0.003703647,-0.103703732,1,0,0,0.5799,0,93,93,193,1,weeshuis,images/br_weeshuis.png,images/cb_weeshuis.png,0,,,,,,,,,,,,,,,,,,,,,,
,,,,,,00086,2023-10-24_19h23.07.724,vbt_B1_day2,2022.2.4,Win32,58.08212813,,,,,,,,,,,,,,,,,,,,,,,,,,,down,0,1.1518,,-0.003703647,-0.103703732,1,0,0,0.488,0,94,94,28,1,stal,images/br_stal.png,images/cb_stal.png,0,,,,,,,,,,,,,,,,,,,,,,
,,,,,,00086,2023-10-24_19h23.07.724,vbt_B1_day2,2022.2.4,Win32,58.08212813,,,,,,,,,,,,,,,,,,,,,,,,,,,down,0,6.7838,,-0.003703647,-0.103703732,1,0,0,0.593,0,95,95,157,1,uitlaat,images/br_uitlaat.png,images/cb_uitlaat.png,0,,,,,,,,,,,,,,,,,,,,,,
,,,,,,00086,2023-10-24_19h23.07.724,vbt_B1_day2,2022.2.4,Win32,58.08212813,,,,,,,,,,,,,,,,,,,,,,,,,,,down,0,4.9618,,-0.003703647,-0.103703732,1,0,0,0.9814,0,96,96,43,1,klauw,images/br_klauw.png,images/cb_klauw.png,0,,,,,,,,,,,,,,,,,,,,,,
,,,,,,00086,2023-10-24_19h23.07.724,vbt_B1_day2,2022.2.4,Win32,58.08212813,,,,,,,,,,,,,,,,,,,,,,,,,,,down,0,12.7023,,-0.003703647,-0.103703732,1,0,0,0.6862,0,97,97,192,1,schaamte,images/br_schaamte.png,images/cb_schaamte.png,0,,,,,,,,,,,,,,,,,,,,,,
,,,,,,00086,2023-10-24_19h23.07.724,vbt_B1_day2,2022.2.4,Win32,58.08212813,,,,,,,,,,,,,,,,,,,,,,,,,,,down,0,26.1983,,-0.003703647,-0.103703732,1,0,0,3.622,0,98,98,159,1,sufferd,images/br_sufferd.png,images/cb_sufferd.png,0,,,,,,,,,,,,,,,,,,,,,,
,,,,,,00086,2023-10-24_19h23.07.724,vbt_B1_day2,2022.2.4,Win32,58.08212813,,,,,,,,,,,,,,,,,,,,,,,,,,,down,0,2.9749,,-0.003703647,-0.103703732,1,0,0,0.8682,0,99,99,25,1,plek,images/br_plek.png,images/cb_plek.png,0,,,,,,,,,,,,,,,,,,,,,,
,,,,,,00086,2023-10-24_19h23.07.724,vbt_B1_day2,2022.2.4,Win32,58.08212813,,,,,,,,,,,,,,,,,,,,,,,,,,,down,0,3.1175,,-0.003703647,-0.103703732,1,0,0,0.7349,0,100,100,184,1,aandelen,images/br_aandelen.png,images/cb_aandelen.png,0,,,,,,,,,,,,,,,,,,,,,,
,,,,,,00086,2023-10-24_19h23.07.724,vbt_B1_day2,2022.2.4,Win32,58.08212813,,,,,,,,,,,,,,,,,,,,,,,,,,,down,0,1.9393,,-0.003703647,-0.103703732,1,0,0,0.5359,0,101,101,46,1,jagen,images/br_jagen.png,images/cb_jagen.png,0,,,,,,,,,,,,,,,,,,,,,,
,,,,,,00086,2023-10-24_19h23.07.724,vbt_B1_day2,2022.2.4,Win32,58.08212813,,,,,,,,,,,,,,,,,,,,,,,,,,,down,0,5.3838,,-0.003703647,-0.103703732,1,0,0,0.6873,0,102,102,155,1,gerucht,images/br_gerucht.png,images/cb_gerucht.png,0,,,,,,,,,,,,,,,,,,,,,,
,,,,,,00086,2023-10-24_19h23.07.724,vbt_B1_day2,2022.2.4,Win32,58.08212813,,,,,,,,,,,,,,,,,,,,,,,,,,,down,0,5.5057,,-0.003703647,-0.103703732,1,0,0,0.6509,0,103,103,191,1,opheffen,images/br_opheffen.png,images/cb_opheffen.png,0,,,,,,,,,,,,,,,,,,,,,,
,,,,,,00086,2023-10-24_19h23.07.724,vbt_B1_day2,2022.2.4,Win32,58.08212813,,,,,,,,,,,,,,,,,,,,,,,,,,,down,0,6.4521,,-0.003703647,-0.103703732,1,0,0,1.5177,0,104,104,8,1,knie,images/br_knie.png,images/cb_knie.png,0,,,,,,,,,,,,,,,,,,,,,,
,,,,,,00086,2023-10-24_19h23.07.724,vbt_B1_day2,2022.2.4,Win32,58.08212813,,,,,,,,,,,,,,,,,,,,,,,,,,,down,0,13.5064,,-0.003703647,-0.103703732,1,0,0,0.5025,0,105,105,104,1,zweven,images/br_zweven.png,images/cb_zweven.png,0,,,,,,,,,,,,,,,,,,,,,,
,,,,,,00086,2023-10-24_19h23.07.724,vbt_B1_day2,2022.2.4,Win32,58.08212813,,,,,,,,,,,,,,,,,,,,,,,,,,,down,0,3.3852,,-0.003703647,-0.103703732,1,0,0,0.6253,0,106,106,54,1,gebit,images/br_gebit.png,images/cb_gebit.png,0,,,,,,,,,,,,,,,,,,,,,,
,,,,,,00086,2023-10-24_19h23.07.724,vbt_B1_day2,2022.2.4,Win32,58.08212813,,,,,,,,,,,,,,,,,,,,,,,,,,,down,0,14.0888,,-0.003703647,-0.103703732,1,0,0,0.6998,0,107,107,145,1,invloed,images/br_invloed.png,images/cb_invloed.png,0,,,,,,,,,,,,,,,,,,,,,,
,,,,,,00086,2023-10-24_19h23.07.724,vbt_B1_day2,2022.2.4,Win32,58.08212813,,,,,,,,,,,,,,,,,,,,,,,,,,,down,0,3.3031,,-0.003703647,-0.103703732,1,0,0,0.7106,0,108,108,29,1,baas,images/br_baas.png,images/cb_baas.png,0,,,,,,,,,,,,,,,,,,,,,,
,,,,,,00086,2023-10-24_19h23.07.724,vbt_B1_day2,2022.2.4,Win32,58.08212813,,,,,,,,,,,,,,,,,,,,,,,,,,,down,0,2.3112,,-0.003703647,-0.103703732,1,0,0,0.9419,0,109,109,53,1,baron,images/br_baron.png,images/cb_baron.png,0,,,,,,,,,,,,,,,,,,,,,,
,,,,,,00086,2023-10-24_19h23.07.724,vbt_B1_day2,2022.2.4,Win32,58.08212813,,,,,,,,,,,,,,,,,,,,,,,,,,,down,0,6.6507,,-0.003703647,-0.103703732,1,0,0,1.9004,0,110,110,169,1,oprotten,images/br_oprotten.png,images/cb_oprotten.png,0,,,,,,,,,,,,,,,,,,,,,,
,,,,,,00086,2023-10-24_19h23.07.724,vbt_B1_day2,2022.2.4,Win32,58.08212813,,,,,,,,,,,,,,,,,,,,,,,,,,,down,0,8.4996,,-0.003703647,-0.103703732,1,0,0,1.352,0,111,111,126,1,kasteel,images/br_kasteel.png,images/cb_kasteel.png,0,,,,,,,,,,,,,,,,,,,,,,
,,,,,,00086,2023-10-24_19h23.07.724,vbt_B1_day2,2022.2.4,Win32,58.08212813,,,,,,,,,,,,,,,,,,,,,,,,,,,down,0,13.2755,,-0.003703647,-0.103703732,1,0,0,0.6949,0,112,112,182,1,bijkomen,images/br_bijkomen.png,images/cb_bijkomen.png,0,,,,,,,,,,,,,,,,,,,,,,
,,,,,,00086,2023-10-24_19h23.07.724,vbt_B1_day2,2022.2.4,Win32,58.08212813,,,,,,,,,,,,,,,,,,,,,,,,,,,down,0,2.506,,0.077777778,-0.136111111,1,0,0,0.4913,0,113,113,17,1,taal,images/br_taal.png,images/cb_taal.png,1,taal,,,,,,,,,,,,,,,,,,,,,
,,,,,,00086,2023-10-24_19h23.07.724,vbt_B1_day2,2022.2.4,Win32,58.08212813,,,,,,,,,,,,,,,,,,,,,,,,,,,down,0,18.5154,,0.077777778,-0.136111111,1,0,0,1.6842,0,114,114,189,1,aanraden,images/br_aanraden.png,images/cb_aanraden.png,0,,,,,,,,,,,,,,,,,,,,,,
,,,,,,00086,2023-10-24_19h23.07.724,vbt_B1_day2,2022.2.4,Win32,58.08212813,,,,,,,,,,,,,,,,,,,,,,,,,,,down,0,19.0613,,0.077777778,-0.136111111,1,0,0,1.6008,0,115,115,82,1,muziek,images/br_muziek.png,images/cb_muziek.png,0,,,,,,,,,,,,,,,,,,,,,,
,,,,,,00086,2023-10-24_19h23.07.724,vbt_B1_day2,2022.2.4,Win32,58.08212813,,,,,,,,,,,,,,,,,,,,,,,,,,,down,0,5.1007,,-0.127777778,-0.164814843,1,0,0,0.7355,0,116,116,101,1,staren,images/br_staren.png,images/cb_staren.png,0,,,,,,,,,,,,,,,,,,,,,,
,,,,,,00086,2023-10-24_19h23.07.724,vbt_B1_day2,2022.2.4,Win32,58.08212813,,,,,,,,,,,,,,,,,,,,,,,,,,,down,0,1.9221,,-0.188888889,-0.15,1,0,0,0.6845,0,117,117,115,1,kleren,images/br_kleren.png,images/cb_kleren.png,0,,,,,,,,,,,,,,,,,,,,,,
,,,,,,00086,2023-10-24_19h23.07.724,vbt_B1_day2,2022.2.4,Win32,58.08212813,,,,,,,,,,,,,,,,,,,,,,,,,,,down,0,2.6344,,-0.398148134,-0.075925954,1,0,0,0.6833,0,118,118,74,1,graaf,images/br_graaf.png,images/cb_graaf.png,0,,,,,,,,,,,,,,,,,,,,,,
,,,,,,00086,2023-10-24_19h23.07.724,vbt_B1_day2,2022.2.4,Win32,58.08212813,,,,,,,,,,,,,,,,,,,,,,,,,,,down,0,4.6826,,-0.090740712,-0.144444444,1,0,0,0.8005,0,119,119,78,1,leren,images/br_leren.png,images/cb_leren.png,0,,,,,,,,,,,,,,,,,,,,,,
,,,,,,00086,2023-10-24_19h23.07.724,vbt_B1_day2,2022.2.4,Win32,58.08212813,,,,,,,,,,,,,,,,,,,,,,,,,,,down,0,4.749,,-0.173148092,-0.094444444,1,0,0,0.5508,0,120,120,81,1,dubbel,images/br_dubbel.png,images/cb_dubbel.png,0,,,,,,,,,,,,,,,,,,,,,,
,,,,,,00086,2023-10-24_19h23.07.724,vbt_B1_day2,2022.2.4,Win32,58.08212813,,,,,,,,,,,,,,,,,,,,,,,,,,,down,0,6.8335,,-0.232407379,-0.105555556,1,0,0,0.567,0,121,121,121,1,twijfel,images/br_twijfel.png,images/cb_twijfel.png,0,,,,,,,,,,,,,,,,,,,,,,
,,,,,,00086,2023-10-24_19h23.07.724,vbt_B1_day2,2022.2.4,Win32,58.08212813,,,,,,,,,,,,,,,,,,,,,,,,,,,down,0,9.9167,,-0.164814758,-0.15,1,0,0,2.7497,0,122,122,134,1,geliefd,images/br_geliefd.png,images/cb_geliefd.png,0,,,,,,,,,,,,,,,,,,,,,,
,,,,,,00086,2023-10-24_19h23.07.724,vbt_B1_day2,2022.2.4,Win32,58.08212813,,,,,,,,,,,,,,,,,,,,,,,,,,,down,0,4.4201,,-0.139814758,-0.17129631,1,0,0,0.785,0,123,123,4,1,moes,images/br_moes.png,images/cb_moes.png,0,,,,,,,,,,,,,,,,,,,,,,
,,,,,,00086,2023-10-24_19h23.07.724,vbt_B1_day2,2022.2.4,Win32,58.08212813,,,,,,,,,,,,,,,,,,,,,,,,,,,down,0,2.6833,,-0.545370356,-0.139814843,1,0,0,0.6013,0,124,124,109,1,totaal,images/br_totaal.png,images/cb_totaal.png,0,,,,,,,,,,,,,,,,,,,,,,
,,,,,,00086,2023-10-24_19h23.07.724,vbt_B1_day2,2022.2.4,Win32,58.08212813,,,,,,,,,,,,,,,,,,,,,,,,,,,down,0,8.834,,-0.434259245,-0.162037065,1,0,0,0.6673,0,125,125,183,1,getuigen,images/br_getuigen.png,images/cb_getuigen.png,0,,,,,,,,,,,,,,,,,,,,,,
,,,,,,00086,2023-10-24_19h23.07.724,vbt_B1_day2,2022.2.4,Win32,58.08212813,,,,,,,,,,,,,,,,,,,,,,,,,,,down,0,2.3341,,-0.087036981,-0.218518575,1,0,0,0.5833,0,126,126,10,1,leek,images/br_leek.png,images/cb_leek.png,0,,,,,,,,,,,,,,,,,,,,,,
,,,,,,00086,2023-10-24_19h23.07.724,vbt_B1_day2,2022.2.4,Win32,58.08212813,,,,,,,,,,,,,,,,,,,,,,,,,,,down,0,1.0831,,-0.087036981,-0.218518575,1,0,0,0.7345,0,127,127,0,1,slak,images/br_slak.png,images/cb_slak.png,0,,,,,,,,,,,,,,,,,,,,,,
,,,,,,00086,2023-10-24_19h23.07.724,vbt_B1_day2,2022.2.4,Win32,58.08212813,,,,,,,,,,,,,,,,,,,,,,,,,,,down,0,5.984,,-0.152777778,-0.175,1,0,0,0.5527,0,128,128,69,1,waken,images/br_waken.png,images/cb_waken.png,0,,,,,,,,,,,,,,,,,,,,,,
,,,,,,00086,2023-10-24_19h23.07.724,vbt_B1_day2,2022.2.4,Win32,58.08212813,,,,,,,,,,,,,,,,,,,,,,,,,,,down,0,5.3603,,-0.152777778,-0.175,1,0,0,1.1167,0,129,129,174,1,stemming,images/br_stemming.png,images/cb_stemming.png,0,,,,,,,,,,,,,,,,,,,,,,
,,,,,,00086,2023-10-24_19h23.07.724,vbt_B1_day2,2022.2.4,Win32,58.08212813,,,,,,,,,,,,,,,,,,,,,,,,,,,down,0,3.6957,,-0.152777778,-0.175,1,0,0,1.0252,0,130,130,26,1,leuk,images/br_leuk.png,images/cb_leuk.png,0,,,,,,,,,,,,,,,,,,,,,,
,,,,,,00086,2023-10-24_19h23.07.724,vbt_B1_day2,2022.2.4,Win32,58.08212813,,,,,,,,,,,,,,,,,,,,,,,,,,,down,0,21.7936,,-0.096296268,-0.187037065,1,0,0,0.7952,0,131,131,198,1,bedoelen,images/br_bedoelen.png,images/cb_bedoelen.png,0,,,,,,,,,,,,,,,,,,,,,,
,,,,,,00086,2023-10-24_19h23.07.724,vbt_B1_day2,2022.2.4,Win32,58.08212813,,,,,,,,,,,,,,,,,,,,,,,,,,,down,0,5.1035,,-0.096296268,-0.187037065,1,0,0,0.5494,0,132,132,89,1,slapen,images/br_slapen.png,images/cb_slapen.png,0,,,,,,,,,,,,,,,,,,,,,,
,,,,,,00086,2023-10-24_19h23.07.724,vbt_B1_day2,2022.2.4,Win32,58.08212813,,,,,,,,,,,,,,,,,,,,,,,,,,,down,0,2.9844,,-0.062962935,-0.198148176,1,0,0,0.6038,0,133,133,15,1,soda,images/br_soda.png,images/cb_soda.png,0,,,,,,,,,,,,,,,,,,,,,,
,,,,,,00086,2023-10-24_19h23.07.724,vbt_B1_day2,2022.2.4,Win32,58.08212813,,,,,,,,,,,,,,,,,,,,,,,,,,,down,0,7.8167,,-0.062962935,-0.198148176,1,0,0,0.6845,0,134,134,177,1,maaltijd,images/br_maaltijd.png,images/cb_maaltijd.png,1,maaltijd,,,,,,,,,,,,,,,,,,,,,
,,,,,,00086,2023-10-24_19h23.07.724,vbt_B1_day2,2022.2.4,Win32,58.08212813,,,,,,,,,,,,,,,,,,,,,,,,,,,down,0,4.1948,,-0.095370314,-0.093518533,1,0,0,2.8026,0,135,135,186,1,voorraad,images/br_voorraad.png,images/cb_voorraad.png,0,,,,,,,,,,,,,,,,,,,,,,
,,,,,,00086,2023-10-24_19h23.07.724,vbt_B1_day2,2022.2.4,Win32,58.08212813,,,,,,,,,,,,,,,,,,,,,,,,,,,down,0,12.2662,,-0.095370314,-0.093518533,1,0,0,4.3717,0,136,136,65,1,parel,images/br_parel.png,images/cb_parel.png,0,,,,,,,,,,,,,,,,,,,,,,
,,,,,,00086,2023-10-24_19h23.07.724,vbt_B1_day2,2022.2.4,Win32,58.08212813,,,,,,,,,,,,,,,,,,,,,,,,,,,down,0,3.0393,,-0.095370314,-0.093518533,1,0,0,1.2185,0,137,137,60,1,jasje,images/br_jasje.png,images/cb_jasje.png,0,,,,,,,,,,,,,,,,,,,,,,
,,,,,,00086,2023-10-24_19h23.07.724,vbt_B1_day2,2022.2.4,Win32,58.08212813,,,,,,,,,,,,,,,,,,,,,,,,,,,down,0,8.5848,,0.125925954,-0.075,1,0,0,4.7485,0,138,138,98,1,kreeft,images/br_kreeft.png,images/cb_kreeft.png,1,kreeft,,,,,,,,,,,,,,,,,,,,,
,,,,,,00086,2023-10-24_19h23.07.724,vbt_B1_day2,2022.2.4,Win32,58.08212813,,,,,,,,,,,,,,,,,,,,,,,,,,,down,0,3.2806,,-0.033333333,-0.098148176,1,0,0,1.2477,0,139,139,118,1,vinger,images/br_vinger.png,images/cb_vinger.png,0,,,,,,,,,,,,,,,,,,,,,,
,,,,,,00086,2023-10-24_19h23.07.724,vbt_B1_day2,2022.2.4,Win32,58.08212813,,,,,,,,,,,,,,,,,,,,,,,,,,,down,0,3.3266,,-0.033333333,-0.098148176,1,0,0,0.6681,0,140,140,79,1,nodig,images/br_nodig.png,images/cb_nodig.png,0,,,,,,,,,,,,,,,,,,,,,,
,,,,,,00086,2023-10-24_19h23.07.724,vbt_B1_day2,2022.2.4,Win32,58.08212813,,,,,,,,,,,,,,,,,,,,,,,,,,,down,0,5.4995,,-0.033333333,-0.098148176,1,0,0,0.651,0,141,141,197,1,spanning,images/br_spanning.png,images/cb_spanning.png,0,,,,,,,,,,,,,,,,,,,,,,
,,,,,,00086,2023-10-24_19h23.07.724,vbt_B1_day2,2022.2.4,Win32,58.08212813,,,,,,,,,,,,,,,,,,,,,,,,,,,down,0,8.1554,,-0.033333333,-0.098148176,1,0,0,0.6171,0,142,142,127,1,doodmoe,images/br_doodmoe.png,images/cb_doodmoe.png,0,,,,,,,,,,,,,,,,,,,,,,
,,,,,,00086,2023-10-24_19h23.07.724,vbt_B1_day2,2022.2.4,Win32,58.08212813,,,,,,,,,,,,,,,,,,,,,,,,,,,down,0,2.6998,,-0.033333333,-0.098148176,1,0,0,0.5682,0,143,143,27,1,dans,images/br_dans.png,images/cb_dans.png,0,,,,,,,,,,,,,,,,,,,,,,
,,,,,,00086,2023-10-24_19h23.07.724,vbt_B1_day2,2022.2.4,Win32,58.08212813,,,,,,,,,,,,,,,,,,,,,,,,,,,down,0,10.6059,,-0.033333333,-0.098148176,1,0,0,0.527,0,144,144,136,1,waarbij,images/br_waarbij.png,images/cb_waarbij.png,1,waarbij,,,,,,,,,,,,,,,,,,,,,
,,,,,,00086,2023-10-24_19h23.07.724,vbt_B1_day2,2022.2.4,Win32,58.08212813,,,,,,,,,,,,,,,,,,,,,,,,,,,down,0,9.9195,,0.112963019,-0.197222222,1,0,0,0.5833,0,145,145,170,1,schatten,images/br_schatten.png,images/cb_schatten.png,0,,,,,,,,,,,,,,,,,,,,,,
,,,,,,00086,2023-10-24_19h23.07.724,vbt_B1_day2,2022.2.4,Win32,58.08212813,,,,,,,,,,,,,,,,,,,,,,,,,,,down,0,10.7677,,0.112963019,-0.197222222,1,0,0,1.0528,0,146,146,133,1,seizoen,images/br_seizoen.png,images/cb_seizoen.png,0,,,,,,,,,,,,,,,,,,,,,,
,,,,,,00086,2023-10-24_19h23.07.724,vbt_B1_day2,2022.2.4,Win32,58.08212813,,,,,,,,,,,,,,,,,,,,,,,,,,,down,0,2.4968,,0.112963019,-0.197222222,1,0,0,0.5607,0,147,147,51,1,samen,images/br_samen.png,images/cb_samen.png,0,,,,,,,,,,,,,,,,,,,,,,
,,,,,,00086,2023-10-24_19h23.07.724,vbt_B1_day2,2022.2.4,Win32,58.08212813,,,,,,,,,,,,,,,,,,,,,,,,,,,down,0,2.4521,,0.112963019,-0.197222222,1,0,0,0.5189,0,148,148,31,1,poes,images/br_poes.png,images/cb_poes.png,0,,,,,,,,,,,,,,,,,,,,,,
,,,,,,00086,2023-10-24_19h23.07.724,vbt_B1_day2,2022.2.4,Win32,58.08212813,,,,,,,,,,,,,,,,,,,,,,,,,,,down,0,4.2328,,0.001851908,-0.137037065,1,0,0,5.867,0,149,149,1,1,zaal,images/br_zaal.png,images/cb_zaal.png,0,,,,,,,,,,,,,,,,,,,,,,
,,,,,,00086,2023-10-24_19h23.07.724,vbt_B1_day2,2022.2.4,Win32,58.08212813,,,,,,,,,,,,,,,,,,,,,,,,,,,down,0,4.5573,,0.001851908,-0.137037065,1,0,0,0.7185,0,150,150,171,1,aarzelen,images/br_aarzelen.png,images/cb_aarzelen.png,0,,,,,,,,,,,,,,,,,,,,,,
,,,,,,00086,2023-10-24_19h23.07.724,vbt_B1_day2,2022.2.4,Win32,58.08212813,,,,,,,,,,,,,,,,,,,,,,,,,,,down,0,5.382,,0.001851908,-0.137037065,1,0,0,0.5683,0,151,151,86,1,woning,images/br_woning.png,images/cb_woning.png,0,,,,,,,,,,,,,,,,,,,,,,
,,,,,,00086,2023-10-24_19h23.07.724,vbt_B1_day2,2022.2.4,Win32,58.08212813,,,,,,,,,,,,,,,,,,,,,,,,,,,down,0,8.3334,,0.001851908,-0.137037065,1,0,0,0.4791,0,152,152,67,1,zwart,images/br_zwart.png,images/cb_zwart.png,0,,,,,,,,,,,,,,,,,,,,,,
,,,,,,00086,2023-10-24_19h23.07.724,vbt_B1_day2,2022.2.4,Win32,58.08212813,,,,,,,,,,,,,,,,,,,,,,,,,,,down,0,2.156,,-0.001851824,-0.137037065,1,0,0,0.6831,0,153,153,103,1,joggen,images/br_joggen.png,images/cb_joggen.png,0,,,,,,,,,,,,,,,,,,,,,,
,,,,,,00086,2023-10-24_19h23.07.724,vbt_B1_day2,2022.2.4,Win32,58.08212813,,,,,,,,,,,,,,,,,,,,,,,,,,,down,0,4.1152,,-0.003703647,-0.137962977,1,0,0,0.5955,0,154,154,116,1,besmet,images/br_besmet.png,images/cb_besmet.png,0,,,,,,,,,,,,,,,,,,,,,,
,,,,,,00086,2023-10-24_19h23.07.724,vbt_B1_day2,2022.2.4,Win32,58.08212813,,,,,,,,,,,,,,,,,,,,,,,,,,,down,0,4.5506,,-0.003703647,-0.137962977,1,0,0,0.4124,0,155,155,19,1,geit,images/br_geit.png,images/cb_geit.png,1,geit,,,,,,,,,,,,,,,,,,,,,
,,,,,,00086,2023-10-24_19h23.07.724,vbt_B1_day2,2022.2.4,Win32,58.08212813,,,,,,,,,,,,,,,,,,,,,,,,,,,down,0,9.1873,,-0.003703647,-0.137962977,1,0,0,0.569,0,156,156,94,1,oceaan,images/br_oceaan.png,images/cb_oceaan.png,0,,,,,,,,,,,,,,,,,,,,,,
,,,,,,00086,2023-10-24_19h23.07.724,vbt_B1_day2,2022.2.4,Win32,58.08212813,,,,,,,,,,,,,,,,,,,,,,,,,,,down,0,2.363,,-0.003703647,-0.137962977,1,0,0,0.6551,0,157,157,132,1,grappen,images/br_grappen.png,images/cb_grappen.png,0,,,,,,,,,,,,,,,,,,,,,,
,,,,,,00086,2023-10-24_19h23.07.724,vbt_B1_day2,2022.2.4,Win32,58.08212813,,,,,,,,,,,,,,,,,,,,,,,,,,,down,0,2.835,,-0.003703647,-0.137962977,1,0,0,0.7675,0,158,158,42,1,bleek,images/br_bleek.png,images/cb_bleek.png,0,,,,,,,,,,,,,,,,,,,,,,
,,,,,,00086,2023-10-24_19h23.07.724,vbt_B1_day2,2022.2.4,Win32,58.08212813,,,,,,,,,,,,,,,,,,,,,,,,,,,down,0,2.3936,,-0.003703647,-0.137962977,1,0,0,0.6851,0,159,159,102,1,legaal,images/br_legaal.png,images/cb_legaal.png,0,,,,,,,,,,,,,,,,,,,,,,
,,,,,,00086,2023-10-24_19h23.07.724,vbt_B1_day2,2022.2.4,Win32,58.08212813,,,,,,,,,,,,,,,,,,,,,,,,,,,down,0,3.6033,,-0.003703647,-0.137962977,1,0,0,0.6128,0,160,160,128,1,prikken,images/br_prikken.png,images/cb_prikken.png,0,,,,,,,,,,,,,,,,,,,,,,
,,,,,,00086,2023-10-24_19h23.07.724,vbt_B1_day2,2022.2.4,Win32,58.08212813,,,,,,,,,,,,,,,,,,,,,,,,,,,down,0,5.8347,,-0.003703647,-0.137962977,1,0,0,0.5171,0,161,161,111,1,ticket,images/br_ticket.png,images/cb_ticket.png,0,,,,,,,,,,,,,,,,,,,,,,
,,,,,,00086,2023-10-24_19h23.07.724,vbt_B1_day2,2022.2.4,Win32,58.08212813,,,,,,,,,,,,,,,,,,,,,,,,,,,down,0,3.5334,,-0.003703647,-0.137962977,1,0,0,0.7965,0,162,162,77,1,woede,images/br_woede.png,images/cb_woede.png,0,,,,,,,,,,,,,,,,,,,,,,
,,,,,,00086,2023-10-24_19h23.07.724,vbt_B1_day2,2022.2.4,Win32,58.08212813,,,,,,,,,,,,,,,,,,,,,,,,,,,down,0,1.7646,,-0.003703647,-0.137962977,1,0,0,0.4829,0,163,163,22,1,stof,images/br_stof.png,images/cb_stof.png,0,,,,,,,,,,,,,,,,,,,,,,
,,,,,,00086,2023-10-24_19h23.07.724,vbt_B1_day2,2022.2.4,Win32,58.08212813,,,,,,,,,,,,,,,,,,,,,,,,,,,down,0,6.8333,,-0.003703647,-0.137962977,1,0,0,0.6024,0,164,164,108,1,excuus,images/br_excuus.png,images/cb_excuus.png,0,,,,,,,,,,,,,,,,,,,,,,
,,,,,,00086,2023-10-24_19h23.07.724,vbt_B1_day2,2022.2.4,Win32,58.08212813,,,,,,,,,,,,,,,,,,,,,,,,,,,down,0,10.3348,,-0.003703647,-0.137962977,1,0,0,0.5034,0,165,165,71,1,bever,images/br_bever.png,images/cb_bever.png,0,,,,,,,,,,,,,,,,,,,,,,
,,,,,,00086,2023-10-24_19h23.07.724,vbt_B1_day2,2022.2.4,Win32,58.08212813,,,,,,,,,,,,,,,,,,,,,,,,,,,down,0,5.5875,,-0.003703647,-0.137962977,1,0,0,0.4841,0,166,166,16,1,ziek,images/br_ziek.png,images/cb_ziek.png,1,ziek,,,,,,,,,,,,,,,,,,,,,
,,,,,,00086,2023-10-24_19h23.07.724,vbt_B1_day2,2022.2.4,Win32,58.08212813,,,,,,,,,,,,,,,,,,,,,,,,,,,down,0,28.3462,,-0.003703647,-0.137962977,1,0,0,6.7914,0,167,167,168,1,bisschop,images/br_bisschop.png,images/cb_bisschop.png,0,,,,,,,,,,,,,,,,,,,,,,
,,,,,,00086,2023-10-24_19h23.07.724,vbt_B1_day2,2022.2.4,Win32,58.08212813,,,,,,,,,,,,,,,,,,,,,,,,,,,down,0,0.2069,,-0.003703647,-0.137962977,1,0,0,0.5174,0,168,168,39,1,laag,images/br_laag.png,images/cb_laag.png,0,,,,,,,,,,,,,,,,,,,,,,
,,,,,,00086,2023-10-24_19h23.07.724,vbt_B1_day2,2022.2.4,Win32,58.08212813,,,,,,,,,,,,,,,,,,,,,,,,,,,down,0,7.6763,,-0.003703647,-0.137962977,1,0,0,0.5504,0,169,169,165,1,feestdag,images/br_feestdag.png,images/cb_feestdag.png,0,,,,,,,,,,,,,,,,,,,,,,
,,,,,,00086,2023-10-24_19h23.07.724,vbt_B1_day2,2022.2.4,Win32,58.08212813,,,,,,,,,,,,,,,,,,,,,,,,,,,down,0,3.9547,,-0.003703647,-0.137962977,1,0,0,0.585,0,170,170,48,1,steel,images/br_steel.png,images/cb_steel.png,0,,,,,,,,,,,,,,,,,,,,,,
,,,,,,00086,2023-10-24_19h23.07.724,vbt_B1_day2,2022.2.4,Win32,58.08212813,,,,,,,,,,,,,,,,,,,,,,,,,,,down,0,11.4994,,-0.003703647,-0.137962977,1,0,0,0.802,0,171,171,143,1,hechten,images/br_hechten.png,images/cb_hechten.png,0,,,,,,,,,,,,,,,,,,,,,,
,,,,,,00086,2023-10-24_19h23.07.724,vbt_B1_day2,2022.2.4,Win32,58.08212813,,,,,,,,,,,,,,,,,,,,,,,,,,,down,0,0.9074,,-0.003703647,-0.137962977,1,0,0,0.5337,0,172,172,33,1,vlek,images/br_vlek.png,images/cb_vlek.png,0,,,,,,,,,,,,,,,,,,,,,,
,,,,,,00086,2023-10-24_19h23.07.724,vbt_B1_day2,2022.2.4,Win32,58.08212813,,,,,,,,,,,,,,,,,,,,,,,,,,,down,0,8.2934,,-0.003703647,-0.137962977,1,0,0,0.4828,0,173,173,140,1,blijven,images/br_blijven.png,images/cb_blijven.png,0,,,,,,,,,,,,,,,,,,,,,,
,,,,,,00086,2023-10-24_19h23.07.724,vbt_B1_day2,2022.2.4,Win32,58.08212813,,,,,,,,,,,,,,,,,,,,,,,,,,,down,0,5.5174,,-0.003703647,-0.137962977,1,0,0,1.5838,0,174,174,6,1,diep,images/br_diep.png,images/cb_diep.png,0,,,,,,,,,,,,,,,,,,,,,,
,,,,,,00086,2023-10-24_19h23.07.724,vbt_B1_day2,2022.2.4,Win32,58.08212813,,,,,,,,,,,,,,,,,,,,,,,,,,,down,0,1.0576,,-0.003703647,-0.137962977,1,0,0,0.5164,0,175,175,2,1,jaar,images/br_jaar.png,images/cb_jaar.png,0,,,,,,,,,,,,,,,,,,,,,,
,,,,,,00086,2023-10-24_19h23.07.724,vbt_B1_day2,2022.2.4,Win32,58.08212813,,,,,,,,,,,,,,,,,,,,,,,,,,,down,0,15.7331,,-0.003703647,-0.137962977,1,0,0,0.6522,0,176,176,154,1,aflopen,images/br_aflopen.png,images/cb_aflopen.png,0,,,,,,,,,,,,,,,,,,,,,,
,,,,,,00086,2023-10-24_19h23.07.724,vbt_B1_day2,2022.2.4,Win32,58.08212813,,,,,,,,,,,,,,,,,,,,,,,,,,,down,0,2.2222,,-0.003703647,-0.137962977,1,0,0,0.6505,0,177,177,87,1,toeval,images/br_toeval.png,images/cb_toeval.png,0,,,,,,,,,,,,,,,,,,,,,,
,,,,,,00086,2023-10-24_19h23.07.724,vbt_B1_day2,2022.2.4,Win32,58.08212813,,,,,,,,,,,,,,,,,,,,,,,,,,,down,0,17.2587,,-0.003703647,-0.137962977,1,0,0,0.6999,0,178,178,164,1,anarchie,images/br_anarchie.png,images/cb_anarchie.png,0,,,,,,,,,,,,,,,,,,,,,,
,,,,,,00086,2023-10-24_19h23.07.724,vbt_B1_day2,2022.2.4,Win32,58.08212813,,,,,,,,,,,,,,,,,,,,,,,,,,,down,0,4.7679,,-0.003703647,-0.137962977,1,0,0,1.9001,0,179,179,137,1,trekker,images/br_trekker.png,images/cb_trekker.png,1,trekken,,,,,,,,,,,,,,,,,,,,,
,,,,,,00086,2023-10-24_19h23.07.724,vbt_B1_day2,2022.2.4,Win32,58.08212813,,,,,,,,,,,,,,,,,,,,,,,,,,,down,0,4.7847,,-0.003703647,-0.137962977,1,0,0,0.5823,0,180,180,125,1,aanzien,images/br_aanzien.png,images/cb_aanzien.png,0,,,,,,,,,,,,,,,,,,,,,,
,,,,,,00086,2023-10-24_19h23.07.724,vbt_B1_day2,2022.2.4,Win32,58.08212813,,,,,,,,,,,,,,,,,,,,,,,,,,,down,0,2.3844,,-0.003703647,-0.137962977,1,0,0,0.5005,0,181,181,90,1,geluid,images/br_geluid.png,images/cb_geluid.png,0,,,,,,,,,,,,,,,,,,,,,,
,,,,,,00086,2023-10-24_19h23.07.724,vbt_B1_day2,2022.2.4,Win32,58.08212813,,,,,,,,,,,,,,,,,,,,,,,,,,,down,0,3.4697,,-0.003703647,-0.137962977,1,0,0,0.4847,0,182,182,166,1,strikken,images/br_strikken.png,images/cb_strikken.png,0,,,,,,,,,,,,,,,,,,,,,,
,,,,,,00086,2023-10-24_19h23.07.724,vbt_B1_day2,2022.2.4,Win32,58.08212813,,,,,,,,,,,,,,,,,,,,,,,,,,,down,0,2.7394,,-0.003703647,-0.137962977,0,0,1,0.5731,0,183,183,91,1,gezond,images/br_gezond.png,images/cb_gezond.png,0,,,,,,,,,,,,,,,,,,,,,,
,,,,,,00086,2023-10-24_19h23.07.724,vbt_B1_day2,2022.2.4,Win32,58.08212813,,,,,,,,,,,,,,,,,,,,,,,,,,,down,0,5.5159,,-0.19351849,-0.136111111,1,0,0,0.7713,0,184,184,144,1,eetlust,images/br_eetlust.png,images/cb_eetlust.png,0,,,,,,,,,,,,,,,,,,,,,,
,,,,,,00086,2023-10-24_19h23.07.724,vbt_B1_day2,2022.2.4,Win32,58.08212813,,,,,,,,,,,,,,,,,,,,,,,,,,,down,0,2.5264,,-0.19351849,-0.136111111,1,0,0,1.0828,0,185,185,44,1,flits,images/br_flits.png,images/cb_flits.png,0,,,,,,,,,,,,,,,,,,,,,,
,,,,,,00086,2023-10-24_19h23.07.724,vbt_B1_day2,2022.2.4,Win32,58.08212813,,,,,,,,,,,,,,,,,,,,,,,,,,,down,0,4.666,,-0.136111111,-0.142592621,1,0,0,0.7335,0,186,186,97,1,loyaal,images/br_loyaal.png,images/cb_loyaal.png,1,loyaal,,,,,,,,,,,,,,,,,,,,,
,,,,,,00086,2023-10-24_19h23.07.724,vbt_B1_day2,2022.2.4,Win32,58.08212813,,,,,,,,,,,,,,,,,,,,,,,,,,,down,0,3.201,,0.083333333,-0.112962977,1,0,0,0.9835,0,187,187,32,1,palm,images/br_palm.png,images/cb_palm.png,0,,,,,,,,,,,,,,,,,,,,,,
,,,,,,00086,2023-10-24_19h23.07.724,vbt_B1_day2,2022.2.4,Win32,58.08212813,,,,,,,,,,,,,,,,,,,,,,,,,,,down,0,3.1675,,0.083333333,-0.112962977,1,0,0,0.5586,0,188,188,24,1,jurk,images/br_jurk.png,images/cb_jurk.png,0,,,,,,,,,,,,,,,,,,,,,,
,,,,,,00086,2023-10-24_19h23.07.724,vbt_B1_day2,2022.2.4,Win32,58.08212813,,,,,,,,,,,,,,,,,,,,,,,,,,,down,0,3.483,,0.083333333,-0.112962977,1,0,0,0.5512,0,189,189,11,1,mode,images/br_mode.png,images/cb_mode.png,0,,,,,,,,,,,,,,,,,,,,,,
,,,,,,00086,2023-10-24_19h23.07.724,vbt_B1_day2,2022.2.4,Win32,58.08212813,,,,,,,,,,,,,,,,,,,,,,,,,,,down,0,3.451,,0.083333333,-0.112962977,1,0,0,0.567,0,190,190,55,1,praat,images/br_praat.png,images/cb_praat.png,0,,,,,,,,,,,,,,,,,,,,,,
,,,,,,00086,2023-10-24_19h23.07.724,vbt_B1_day2,2022.2.4,Win32,58.08212813,,,,,,,,,,,,,,,,,,,,,,,,,,,down,0,5.95,,0.083333333,-0.112962977,1,0,0,0.4921,0,191,191,110,1,zuster,images/br_zuster.png,images/cb_zuster.png,0,,,,,,,,,,,,,,,,,,,,,,
,,,,,,00086,2023-10-24_19h23.07.724,vbt_B1_day2,2022.2.4,Win32,58.08212813,,,,,,,,,,,,,,,,,,,,,,,,,,,down,0,3.4462,,0.083333333,-0.112962977,1,0,0,0.5599,0,192,192,95,1,vreten,images/br_vreten.png,images/cb_vreten.png,0,,,,,,,,,,,,,,,,,,,,,,
,,,,,,00086,2023-10-24_19h23.07.724,vbt_B1_day2,2022.2.4,Win32,58.08212813,,,,,,,,,,,,,,,,,,,,,,,,,,,down,0,7.3169,,0.083333333,-0.112962977,1,0,0,0.6014,0,193,193,62,1,knaap,images/br_knaap.png,images/cb_knaap.png,0,,,,,,,,,,,,,,,,,,,,,,
,,,,,,00086,2023-10-24_19h23.07.724,vbt_B1_day2,2022.2.4,Win32,58.08212813,,,,,,,,,,,,,,,,,,,,,,,,,,,down,0,3.968,,0.083333333,-0.112962977,1,0,0,0.5505,0,194,194,41,1,maken,images/br_maken.png,images/cb_maken.png,0,,,,,,,,,,,,,,,,,,,,,,
,,,,,,00086,2023-10-24_19h23.07.724,vbt_B1_day2,2022.2.4,Win32,58.08212813,,,,,,,,,,,,,,,,,,,,,,,,,,,down,0,4.3026,,0.083333333,-0.112962977,1,0,0,0.5321,0,195,195,122,1,waarvan,images/br_waarvan.png,images/cb_waarvan.png,0,,,,,,,,,,,,,,,,,,,,,,
,,,,,,00086,2023-10-24_19h23.07.724,vbt_B1_day2,2022.2.4,Win32,58.08212813,,,,,,,,,,,,,,,,,,,,,,,,,,,down,0,4.8873,,0.083333333,-0.112962977,1,0,0,0.4995,0,196,196,163,1,schuilen,images/br_schuilen.png,images/cb_schuilen.png,0,,,,,,,,,,,,,,,,,,,,,,
,,,,,,00086,2023-10-24_19h23.07.724,vbt_B1_day2,2022.2.4,Win32,58.08212813,,,,,,,,,,,,,,,,,,,,,,,,,,,down,0,4.5033,,0.083333333,-0.112962977,1,0,0,0.9503,0,197,197,61,1,groen,images/br_groen.png,images/cb_groen.png,0,,,,,,,,,,,,,,,,,,,,,,
,,,,,,00086,2023-10-24_19h23.07.724,vbt_B1_day2,2022.2.4,Win32,58.08212813,,,,,,,,,,,,,,,,,,,,,,,,,,,down,0,2.2025,,0.083333333,-0.112962977,1,0,0,0.4852,0,198,198,72,1,strak,images/br_strak.png,images/cb_strak.png,0,,,,,,,,,,,,,,,,,,,,,,
,,,,,,00086,2023-10-24_19h23.07.724,vbt_B1_day2,2022.2.4,Win32,58.08212813,,,,,,,,,,,,,,,,,,,,,,,,,,,down,0,8.5328,,0.083333333,-0.112962977,1,0,0,0.8854,0,199,199,153,1,vervoer,images/br_vervoer.png,images/cb_vervoer.png,0,,,,,,,,,,,,,,,,,,,,,,
,,,,,,00086,2023-10-24_19h23.07.724,vbt_B1_day2,2022.2.4,Win32,58.08212813,,,,,,,,,,,,,,,,,,,,,,,,,,,,,,,,,,,,,,,,,,,,,,,0.162037065,-0.075925954,1,0,0,,,,,,,,,,,,,,,,
,,,,,,00086,2023-10-24_19h23.07.724,vbt_B1_day2,2022.2.4,Win32,58.08212813,,,,,,,,,,,,,,,,,,,,,,,,,,,,,,,,,,,,,,,,,,,,,,,,,,,,0.087963019,-0.219444444,1,0,0,,,,,,,,,,,
,,,,,,00086,2023-10-24_19h23.07.724,vbt_B1_day2,2022.2.4,Win32,58.08212813,,,,,,,,,,,,,,,,,,,,,,,,,,,,,,,,,,,,,,,,,,kasteel,images/br_kasteel.png,images/cb_kasteel.png,,kasteel,,,,,,,,,,,-0.024074046,-0.070370399,1,0,0,kasteel,0,0,0,14,1
,,,,,,00086,2023-10-24_19h23.07.724,vbt_B1_day2,2022.2.4,Win32,58.08212813,,,,,,,,,,,,,,,,,,,,,,,,,,,,,,,,,,,,,,,,,,kijlen,images/br_kijlen.png,images/cb_kijlen.png,,kijlen,,,,,,,,,,,-0.173148092,0.038888889,1,0,0,kijlen,0,1,1,31,1
,,,,,,00086,2023-10-24_19h23.07.724,vbt_B1_day2,2022.2.4,Win32,58.08212813,,,,,,,,,,,,,,,,,,,,,,,,,,,,,,,,,,,,,,,,,,kabel,images/br_kabel.png,images/cb_kabel.png,,kabel,,,,,,,,,,,-0.070370314,0.042592578,1,0,0,kabel,0,2,2,7,1
,,,,,,00086,2023-10-24_19h23.07.724,vbt_B1_day2,2022.2.4,Win32,58.08212813,,,,,,,,,,,,,,,,,,,,,,,,,,,,,,,,,,,,,,,,,,piste,images/br_piste.png,images/cb_piste.png,,piste,,,,,,,,,,,0.002777778,-0.029629644,1,0,0,piste,0,3,3,5,1
,,,,,,00086,2023-10-24_19h23.07.724,vbt_B1_day2,2022.2.4,Win32,58.08212813,,,,,,,,,,,,,,,,,,,,,,,,,,,,,,,,,,,,,,,,,,geld,images/br_geld.png,images/cb_geld.png,,geld,,,,,,,,,,,-0.101851824,0.054629601,1,0,0,geld,0,4,4,3,1
,,,,,,00086,2023-10-24_19h23.07.724,vbt_B1_day2,2022.2.4,Win32,58.08212813,,,,,,,,,,,,,,,,,,,,,,,,,,,,,,,,,,,,,,,,,,ningen,images/br_ningen.png,images/cb_ningen.png,,n.ng....,,,,,,,,,,,0.005555556,-0.015740755,1,0,0,n.ng....,0,5,5,28,1
,,,,,,00086,2023-10-24_19h23.07.724,vbt_B1_day2,2022.2.4,Win32,58.08212813,,,,,,,,,,,,,,,,,,,,,,,,,,,,,,,,,,,,,,,,,,doodmoe,images/br_doodmoe.png,images/cb_doodmoe.png,,doodmoe,,,,,,,,,,,-0.012036981,-0.030555556,1,0,0,doodmoe,0,6,6,15,1
,,,,,,00086,2023-10-24_19h23.07.724,vbt_B1_day2,2022.2.4,Win32,58.08212813,,,,,,,,,,,,,,,,,,,,,,,,,,,,,,,,,,,,,,,,,,heengeen,images/br_heengeen.png,images/cb_heengeen.png,,heengee.,,,,,,,,,,,-0.076851824,-0.07129631,1,0,0,heengee.,0,7,7,38,1
,,,,,,00086,2023-10-24_19h23.07.724,vbt_B1_day2,2022.2.4,Win32,58.08212813,,,,,,,,,,,,,,,,,,,,,,,,,,,,,,,,,,,,,,,,,,kenzis,images/br_kenzis.png,images/cb_kenzis.png,,kenze.,,,,,,,,,,,-0.154629601,-0.004629644,1,0,0,kenze.,0,8,8,30,1
,,,,,,00086,2023-10-24_19h23.07.724,vbt_B1_day2,2022.2.4,Win32,58.08212813,,,,,,,,,,,,,,,,,,,,,,,,,,,,,,,,,,,,,,,,,,inzicht,images/br_inzicht.png,images/cb_inzicht.png,,enzec..,,,,,,,,,,,-0.212037023,-0.068518533,1,0,0,enzec..,0,9,9,53,1
,,,,,,00086,2023-10-24_19h23.07.724,vbt_B1_day2,2022.2.4,Win32,58.08212813,,,,,,,,,,,,,,,,,,,,,,,,,,,,,,,,,,,,,,,,,,lijnen,images/br_lijnen.png,images/cb_lijnen.png,,lijzen,,,,,,,,,,,0.00648151,-0.04629631,1,0,0,lijzen,0,10,10,51,1
,,,,,,00086,2023-10-24_19h23.07.724,vbt_B1_day2,2022.2.4,Win32,58.08212813,,,,,,,,,,,,,,,,,,,,,,,,,,,,,,,,,,,,,,,,,,heilig,images/br_heilig.png,images/cb_heilig.png,,heilig,,,,,,,,,,,-0.037036981,0.015740712,1,0,0,heilig,0,11,11,9,1
,,,,,,00086,2023-10-24_19h23.07.724,vbt_B1_day2,2022.2.4,Win32,58.08212813,,,,,,,,,,,,,,,,,,,,,,,,,,,,,,,,,,,,,,,,,,jagen,images/br_jagen.png,images/cb_jagen.png,,jagen,,,,,,,,,,,0.03148151,0.017592578,1,0,0,jagen,0,12,12,6,1
,,,,,,00086,2023-10-24_19h23.07.724,vbt_B1_day2,2022.2.4,Win32,58.08212813,,,,,,,,,,,,,,,,,,,,,,,,,,,,,,,,,,,,,,,,,,koorts,images/br_koorts.png,images/cb_koorts.png,,koorts,,,,,,,,,,,-0.06851849,0.015740712,1,0,0,koorts,0,13,13,50,1
,,,,,,00086,2023-10-24_19h23.07.724,vbt_B1_day2,2022.2.4,Win32,58.08212813,,,,,,,,,,,,,,,,,,,,,,,,,,,,,,,,,,,,,,,,,,feestdag,images/br_feestdag.png,images/cb_feestdag.png,,.eest...,,,,,,,,,,,-0.055555556,0.033333333,1,0,0,.eest...,0,14,14,17,1
,,,,,,00086,2023-10-24_19h23.07.724,vbt_B1_day2,2022.2.4,Win32,58.08212813,,,,,,,,,,,,,,,,,,,,,,,,,,,,,,,,,,,,,,,,,,clan,images/br_clan.png,images/cb_clan.png,,clan,,,,,,,,,,,-0.04351849,-0.025925954,1,0,0,clan,0,15,15,40,1
,,,,,,00086,2023-10-24_19h23.07.724,vbt_B1_day2,2022.2.4,Win32,58.08212813,,,,,,,,,,,,,,,,,,,,,,,,,,,,,,,,,,,,,,,,,,welzijn,images/br_welzijn.png,images/cb_welzijn.png,,welzi..,,,,,,,,,,,-0.045370314,-0.016666667,1,0,0,welzi..,0,16,16,52,1
,,,,,,00086,2023-10-24_19h23.07.724,vbt_B1_day2,2022.2.4,Win32,58.08212813,,,,,,,,,,,,,,,,,,,,,,,,,,,,,,,,,,,,,,,,,,lokken,images/br_lokken.png,images/cb_lokken.png,,lokken,,,,,,,,,,,-0.063888889,0.030555556,1,0,0,lokken,0,17,17,8,1
,,,,,,00086,2023-10-24_19h23.07.724,vbt_B1_day2,2022.2.4,Win32,58.08212813,,,,,,,,,,,,,,,,,,,,,,,,,,,,,,,,,,,,,,,,,,aanzien,images/br_aanzien.png,images/cb_aanzien.png,,aanzien,,,,,,,,,,,-0.027777778,0.007407379,1,0,0,aanzien,0,18,18,13,1
,,,,,,00086,2023-10-24_19h23.07.724,vbt_B1_day2,2022.2.4,Win32,58.08212813,,,,,,,,,,,,,,,,,,,,,,,,,,,,,,,,,,,,,,,,,,tand,images/br_tand.png,images/cb_tand.png,,tand,,,,,,,,,,,-0.112036981,-0.024074088,1,0,0,tand,0,19,19,42,1
,,,,,,00086,2023-10-24_19h23.07.724,vbt_B1_day2,2022.2.4,Win32,58.08212813,,,,,,,,,,,,,,,,,,,,,,,,,,,,,,,,,,,,,,,,,,blad,images/br_blad.png,images/cb_blad.png,,blad,,,,,,,,,,,0.036111111,0.059259245,1,0,0,blad,0,20,20,1,1
,,,,,,00086,2023-10-24_19h23.07.724,vbt_B1_day2,2022.2.4,Win32,58.08212813,,,,,,,,,,,,,,,,,,,,,,,,,,,,,,,,,,,,,,,,,,zwager,images/br_zwager.png,images/cb_zwager.png,,zwager,,,,,,,,,,,-0.048148092,0.008333333,1,0,0,zwager,0,21,21,49,1
,,,,,,00086,2023-10-24_19h23.07.724,vbt_B1_day2,2022.2.4,Win32,58.08212813,,,,,,,,,,,,,,,,,,,,,,,,,,,,,,,,,,,,,,,,,,jong,images/br_jong.png,images/cb_jong.png,,jong,,,,,,,,,,,0.005555556,-0.00648151,1,0,0,jong,0,22,22,43,1
,,,,,,00086,2023-10-24_19h23.07.724,vbt_B1_day2,2022.2.4,Win32,58.08212813,,,,,,,,,,,,,,,,,,,,,,,,,,,,,,,,,,,,,,,,,,bloeien,images/br_bloeien.png,images/cb_bloeien.png,,cloeien,,,,,,,,,,,-0.059259203,0.211111111,1,0,0,cloeien,0,23,23,12,1
,,,,,,00086,2023-10-24_19h23.07.724,vbt_B1_day2,2022.2.4,Win32,58.08212813,,,,,,,,,,,,,,,,,,,,,,,,,,,,,,,,,,,,,,,,,,anarchie,images/br_anarchie.png,images/cb_anarchie.png,,rnarc...,,,,,,,,,,,-0.132407379,-0.101851866,1,0,0,rnarc...,0,24,24,16,1
,,,,,,00086,2023-10-24_19h23.07.724,vbt_B1_day2,2022.2.4,Win32,58.08212813,,,,,,,,,,,,,,,,,,,,,,,,,,,,,,,,,,,,,,,,,,goon,images/br_goon.png,images/cb_goon.png,,goon,,,,,,,,,,,0.045370399,-0.049074088,1,0,0,goon,0,25,25,23,1
,,,,,,00086,2023-10-24_19h23.07.724,vbt_B1_day2,2022.2.4,Win32,58.08212813,,,,,,,,,,,,,,,,,,,,,,,,,,,,,,,,,,,,,,,,,,sora,images/br_sora.png,images/cb_sora.png,,sora,,,,,,,,,,,0.054629686,-0.120370399,1,0,0,sora,0,26,26,22,1
,,,,,,00086,2023-10-24_19h23.07.724,vbt_B1_day2,2022.2.4,Win32,58.08212813,,,,,,,,,,,,,,,,,,,,,,,,,,,,,,,,,,,,,,,,,,eenhoorn,images/br_eenhoorn.png,images/cb_eenhoorn.png,,eenhoorn,,,,,,,,,,,-0.05,-0.015740755,1,0,0,eenhoorn,0,27,27,19,1
,,,,,,00086,2023-10-24_19h23.07.724,vbt_B1_day2,2022.2.4,Win32,58.08212813,,,,,,,,,,,,,,,,,,,,,,,,,,,,,,,,,,,,,,,,,,prekken,images/br_prekken.png,images/cb_prekken.png,,prekken,,,,,,,,,,,-0.275,0.2,1,0,0,prekken,0,28,28,34,1
,,,,,,00086,2023-10-24_19h23.07.724,vbt_B1_day2,2022.2.4,Win32,58.08212813,,,,,,,,,,,,,,,,,,,,,,,,,,,,,,,,,,,,,,,,,,diep,images/br_diep.png,images/cb_diep.png,,diep,,,,,,,,,,,-0.070370314,-0.059259288,1,0,0,diep,0,29,29,2,1
,,,,,,00086,2023-10-24_19h23.07.724,vbt_B1_day2,2022.2.4,Win32,58.08212813,,,,,,,,,,,,,,,,,,,,,,,,,,,,,,,,,,,,,,,,,,plannen,images/br_plannen.png,images/cb_plannen.png,,plannen,,,,,,,,,,,-0.029629601,-0.059259288,1,0,0,plannen,0,30,30,55,1
,,,,,,00086,2023-10-24_19h23.07.724,vbt_B1_day2,2022.2.4,Win32,58.08212813,,,,,,,,,,,,,,,,,,,,,,,,,,,,,,,,,,,,,,,,,,badon,images/br_badon.png,images/cb_badon.png,,cadon,,,,,,,,,,,0.030555556,-0.061111111,1,0,0,cadon,0,31,31,26,1
,,,,,,00086,2023-10-24_19h23.07.724,vbt_B1_day2,2022.2.4,Win32,58.08212813,,,,,,,,,,,,,,,,,,,,,,,,,,,,,,,,,,,,,,,,,,lurgen,images/br_lurgen.png,images/cb_lurgen.png,,lurgen,,,,,,,,,,,-0.079629601,0.070370356,1,0,0,lurgen,0,32,32,29,1
,,,,,,00086,2023-10-24_19h23.07.724,vbt_B1_day2,2022.2.4,Win32,58.08212813,,,,,,,,,,,,,,,,,,,,,,,,,,,,,,,,,,,,,,,,,,strikken,images/br_strikken.png,images/cb_strikken.png,,strekken,,,,,,,,,,,0.062037065,-0.062037065,1,0,0,strekken,0,33,33,18,1
,,,,,,00086,2023-10-24_19h23.07.724,vbt_B1_day2,2022.2.4,Win32,58.08212813,,,,,,,,,,,,,,,,,,,,,,,,,,,,,,,,,,,,,,,,,,tweeling,images/br_tweeling.png,images/cb_tweeling.png,,tweeling,,,,,,,,,,,0.099074131,-0.03148151,1,0,0,tweeling,0,34,34,58,1
,,,,,,00086,2023-10-24_19h23.07.724,vbt_B1_day2,2022.2.4,Win32,58.08212813,,,,,,,,,,,,,,,,,,,,,,,,,,,,,,,,,,,,,,,,,,thema,images/br_thema.png,images/cb_thema.png,,thema,,,,,,,,,,,-0.062962935,0.024074046,1,0,0,thema,0,35,35,47,1
,,,,,,00086,2023-10-24_19h23.07.724,vbt_B1_day2,2022.2.4,Win32,58.08212813,,,,,,,,,,,,,,,,,,,,,,,,,,,,,,,,,,,,,,,,,,dode,images/br_dode.png,images/cb_dode.png,,dode,,,,,,,,,,,-0.061111111,0.062037023,1,0,0,dode,0,36,36,41,1
,,,,,,00086,2023-10-24_19h23.07.724,vbt_B1_day2,2022.2.4,Win32,58.08212813,,,,,,,,,,,,,,,,,,,,,,,,,,,,,,,,,,,,,,,,,,wijve,images/br_wijve.png,images/cb_wijve.png,,wijve,,,,,,,,,,,0.03148151,-0.064814843,1,0,0,wijve,0,37,37,27,1
,,,,,,00086,2023-10-24_19h23.07.724,vbt_B1_day2,2022.2.4,Win32,58.08212813,,,,,,,,,,,,,,,,,,,,,,,,,,,,,,,,,,,,,,,,,,trots,images/br_trots.png,images/cb_trots.png,,trots,,,,,,,,,,,-0.003703647,-0.057407422,1,0,0,trots,0,38,38,44,1
,,,,,,00086,2023-10-24_19h23.07.724,vbt_B1_day2,2022.2.4,Win32,58.08212813,,,,,,,,,,,,,,,,,,,,,,,,,,,,,,,,,,,,,,,,,,moes,images/br_moes.png,images/cb_moes.png,,moes,,,,,,,,,,,-0.016666667,-0.119444444,1,0,0,moes,0,39,39,0,1
,,,,,,00086,2023-10-24_19h23.07.724,vbt_B1_day2,2022.2.4,Win32,58.08212813,,,,,,,,,,,,,,,,,,,,,,,,,,,,,,,,,,,,,,,,,,bereuwen,images/br_bereuwen.png,images/cb_bereuwen.png,,cerui.....,,,,,,,,,,,-0.040740712,-0.207407422,1,0,0,cerui.....,0,40,40,39,1
,,,,,,00086,2023-10-24_19h23.07.724,vbt_B1_day2,2022.2.4,Win32,58.08212813,,,,,,,,,,,,,,,,,,,,,,,,,,,,,,,,,,,,,,,,,,stes,images/br_stes.png,images/cb_stes.png,,stes,,,,,,,,,,,-0.099074046,-0.044444444,1,0,0,stes,0,41,41,21,1
,,,,,,00086,2023-10-24_19h23.07.724,vbt_B1_day2,2022.2.4,Win32,58.08212813,,,,,,,,,,,,,,,,,,,,,,,,,,,,,,,,,,,,,,,,,,aanvraag,images/br_aanvraag.png,images/cb_aanvraag.png,,aazp....,,,,,,,,,,,-0.097222222,-0.090740755,1,0,0,aazp....,0,42,42,57,1
,,,,,,00086,2023-10-24_19h23.07.724,vbt_B1_day2,2022.2.4,Win32,58.08212813,,,,,,,,,,,,,,,,,,,,,,,,,,,,,,,,,,,,,,,,,,ophuimen,images/br_ophuimen.png,images/cb_ophuimen.png,,ophuim..,,,,,,,,,,,-0.063888889,-0.035185199,1,0,0,ophuim..,0,43,43,36,1
,,,,,,00086,2023-10-24_19h23.07.724,vbt_B1_day2,2022.2.4,Win32,58.08212813,,,,,,,,,,,,,,,,,,,,,,,,,,,,,,,,,,,,,,,,,,manieren,images/br_manieren.png,images/cb_manieren.png,,........ten,,,,,,,,,,,0.029629686,-0.099074088,1,0,0,........ten,0,44,44,56,1
,,,,,,00086,2023-10-24_19h23.07.724,vbt_B1_day2,2022.2.4,Win32,58.08212813,,,,,,,,,,,,,,,,,,,,,,,,,,,,,,,,,,,,,,,,,,remel,images/br_remel.png,images/cb_remel.png,,remel,,,,,,,,,,,-0.041666667,-0.077777778,1,0,0,remel,0,45,45,25,1
,,,,,,00086,2023-10-24_19h23.07.724,vbt_B1_day2,2022.2.4,Win32,58.08212813,,,,,,,,,,,,,,,,,,,,,,,,,,,,,,,,,,,,,,,,,,woning,images/br_woning.png,images/cb_woning.png,,woning,,,,,,,,,,,-0.009259203,-0.145370399,1,0,0,woning,0,46,46,10,1
,,,,,,00086,2023-10-24_19h23.07.724,vbt_B1_day2,2022.2.4,Win32,58.08212813,,,,,,,,,,,,,,,,,,,,,,,,,,,,,,,,,,,,,,,,,,flits,images/br_flits.png,images/cb_flits.png,,flits,,,,,,,,,,,-0.100925869,-0.003703732,1,0,0,flits,0,47,47,4,1
,,,,,,00086,2023-10-24_19h23.07.724,vbt_B1_day2,2022.2.4,Win32,58.08212813,,,,,,,,,,,,,,,,,,,,,,,,,,,,,,,,,,,,,,,,,,toeval,images/br_toeval.png,images/cb_toeval.png,,toeval,,,,,,,,,,,-0.015740712,0.005555556,1,0,0,toeval,0,48,48,11,1
,,,,,,00086,2023-10-24_19h23.07.724,vbt_B1_day2,2022.2.4,Win32,58.08212813,,,,,,,,,,,,,,,,,,,,,,,,,,,,,,,,,,,,,,,,,,negel,images/br_negel.png,images/cb_negel.png,,negel,,,,,,,,,,,-0.105555556,-0.082407422,1,0,0,negel,0,49,49,24,1
,,,,,,00086,2023-10-24_19h23.07.724,vbt_B1_day2,2022.2.4,Win32,58.08212813,,,,,,,,,,,,,,,,,,,,,,,,,,,,,,,,,,,,,,,,,,breuk,images/br_breuk.png,images/cb_breuk.png,,bre.k,,,,,,,,,,,-0.112962935,0.033333333,1,0,0,bre.k,0,50,50,45,1
,,,,,,00086,2023-10-24_19h23.07.724,vbt_B1_day2,2022.2.4,Win32,58.08212813,,,,,,,,,,,,,,,,,,,,,,,,,,,,,,,,,,,,,,,,,,joes,images/br_joes.png,images/cb_joes.png,,joes,,,,,,,,,,,0.016666667,0.033333333,1,0,0,joes,0,51,51,20,1
,,,,,,00086,2023-10-24_19h23.07.724,vbt_B1_day2,2022.2.4,Win32,58.08212813,,,,,,,,,,,,,,,,,,,,,,,,,,,,,,,,,,,,,,,,,,systeem,images/br_systeem.png,images/cb_systeem.png,,systeem,,,,,,,,,,,0.011111111,-0.057407422,1,0,0,systeem,0,52,52,54,1
,,,,,,00086,2023-10-24_19h23.07.724,vbt_B1_day2,2022.2.4,Win32,58.08212813,,,,,,,,,,,,,,,,,,,,,,,,,,,,,,,,,,,,,,,,,,zomers,images/br_zomers.png,images/cb_zomers.png,,zomers,,,,,,,,,,,-0.037036981,-0.012037065,1,0,0,zomers,0,53,53,48,1
,,,,,,00086,2023-10-24_19h23.07.724,vbt_B1_day2,2022.2.4,Win32,58.08212813,,,,,,,,,,,,,,,,,,,,,,,,,,,,,,,,,,,,,,,,,,sifferd,images/br_sifferd.png,images/cb_sifferd.png,,sifferd,,,,,,,,,,,0.007407464,-0.076851866,1,0,0,sifferd,0,54,54,32,1
,,,,,,00086,2023-10-24_19h23.07.724,vbt_B1_day2,2022.2.4,Win32,58.08212813,,,,,,,,,,,,,,,,,,,,,,,,,,,,,,,,,,,,,,,,,,krimmen,images/br_krimmen.png,images/cb_krimmen.png,,krimmen,,,,,,,,,,,-0.058333333,0.069444444,1,0,0,krimmen,0,55,55,35,1
,,,,,,00086,2023-10-24_19h23.07.724,vbt_B1_day2,2022.2.4,Win32,58.08212813,,,,,,,,,,,,,,,,,,,,,,,,,,,,,,,,,,,,,,,,,,zegel,images/br_zegel.png,images/cb_zegel.png,,zegel,,,,,,,,,,,0.136111111,-0.111111111,1,0,0,zegel,0,56,56,46,1
,,,,,,00086,2023-10-24_19h23.07.724,vbt_B1_day2,2022.2.4,Win32,58.08212813,,,,,,,,,,,,,,,,,,,,,,,,,,,,,,,,,,,,,,,,,,agressie,images/br_agressie.png,images/cb_agressie.png,,agae...,,,,,,,,,,,-0.051851824,-0.037962977,1,0,0,agae...,0,57,57,59,1
,,,,,,00086,2023-10-24_19h23.07.724,vbt_B1_day2,2022.2.4,Win32,58.08212813,,,,,,,,,,,,,,,,,,,,,,,,,,,,,,,,,,,,,,,,,,sjijfel,images/br_sjijfel.png,images/cb_sjijfel.png,,sje....,,,,,,,,,,,-0.04351849,-0.114814843,1,0,0,sje....,0,58,58,33,1
,,,,,,00086,2023-10-24_19h23.07.724,vbt_B1_day2,2022.2.4,Win32,58.08212813,,,,,,,,,,,,,,,,,,,,,,,,,,,,,,,,,,,,,,,,,,opdatten,images/br_opdatten.png,images/cb_opdatten.png,,opdatt....,,,,,,,,,,,0.008333333,-0.060185199,1,0,0,opdatt....,0,59,59,37,1
,,,,,,00086,2023-10-24_19h23.07.724,vbt_B1_day2,2022.2.4,Win32,58.08212813,,,,,,,,,,,,,,,,,,,,,,,,,,,,,,,,,,,,,,,,,,,,,,,,,,,,,,,,,,,,,,,,,,,
