welcome_mouse.x,welcome_mouse.y,welcome_mouse.leftButton,welcome_mouse.midButton,welcome_mouse.rightButton,welcome_mouse.time,"ID",date,expName,psychopyVersion,OS,frameRate,participant,refresh_mouse.x,refresh_mouse.y,refresh_mouse.leftButton,refresh_mouse.midButton,refresh_mouse.rightButton,refresh_mouse.time,braille_mouse.x,braille_mouse.y,braille_mouse.leftButton,braille_mouse.midButton,braille_mouse.rightButton,braille_mouse.time,trials.thisRepN,trials.thisTrialN,trials.thisN,trials.thisIndex,trials.ran,nlLet,brLet,cbLet,trainInstr_mouse.x,trainInstr_mouse.y,trainInstr_mouse.leftButton,trainInstr_mouse.midButton,trainInstr_mouse.rightButton,trainInstr_mouse.time,translation_key.keys,translation_key.corr,translation_key.rt,word_rsp.text,word_mouse.x,word_mouse.y,word_mouse.leftButton,word_mouse.midButton,word_mouse.rightButton,word_mouse.time,train_loop.thisRepN,train_loop.thisTrialN,train_loop.thisN,train_loop.thisIndex,train_loop.ran,nlWrd,brWrd,cbWrd,test,testResp,mouse.x,mouse.y,mouse.leftButton,mouse.midButton,mouse.rightButton,testInstr_mouse.x,testInstr_mouse.y,testInstr_mouse.leftButton,testInstr_mouse.midButton,testInstr_mouse.rightButton,test_mouse.x,test_mouse.y,test_mouse.leftButton,test_mouse.midButton,test_mouse.rightButton,test_response.text,test_loop.thisRepN,test_loop.thisTrialN,test_loop.thisN,test_loop.thisIndex,test_loop.ran
-0.163888861,-0.252777806,1,0,0,16.1057,55678,2023-08-12_20h22.43.372,vbt_B1_day2,2022.2.4,Win32,60.39376736,55678,,,,,,,,,,,,,,,,,,,,,,,,,,,,,,,,,,,,,,,,,,,,,,,,,,,,,,,,,,,,,,,,,,,
,,,,,,55678,2023-08-12_20h22.43.372,vbt_B1_day2,2022.2.4,Win32,60.39376736,55678,-0.163888861,-0.252777806,1,0,0,12.8173,,,,,,,,,,,,,,,,,,,,,,,,,,,,,,,,,,,,,,,,,,,,,,,,,,,,,,,,,,,,,
,,,,,,55678,2023-08-12_20h22.43.372,vbt_B1_day2,2022.2.4,Win32,60.39376736,55678,,,,,,,-0.163888861,-0.252777806,1,0,0,0.9333,0,0,0,3,1,d,images/br_d.png,images/cb_d.png,,,,,,,,,,,,,,,,,,,,,,,,,,,,,,,,,,,,,,,,,,,,,,,
,,,,,,55678,2023-08-12_20h22.43.372,vbt_B1_day2,2022.2.4,Win32,60.39376736,55678,,,,,,,-0.163888861,-0.252777806,1,0,0,5.8946,0,1,1,22,1,w,images/br_w.png,images/cb_w.png,,,,,,,,,,,,,,,,,,,,,,,,,,,,,,,,,,,,,,,,,,,,,,,
,,,,,,55678,2023-08-12_20h22.43.372,vbt_B1_day2,2022.2.4,Win32,60.39376736,55678,,,,,,,-0.163888861,-0.252777806,1,0,0,13.9578,0,2,2,7,1,h,images/br_h.png,images/cb_h.png,,,,,,,,,,,,,,,,,,,,,,,,,,,,,,,,,,,,,,,,,,,,,,,
,,,,,,55678,2023-08-12_20h22.43.372,vbt_B1_day2,2022.2.4,Win32,60.39376736,55678,,,,,,,-0.163888861,-0.252777806,1,0,0,5.5405,0,3,3,20,1,u,images/br_u.png,images/cb_u.png,,,,,,,,,,,,,,,,,,,,,,,,,,,,,,,,,,,,,,,,,,,,,,,
,,,,,,55678,2023-08-12_20h22.43.372,vbt_B1_day2,2022.2.4,Win32,60.39376736,55678,,,,,,,-0.163888861,-0.252777806,1,0,0,2.6179,0,4,4,13,1,n,images/br_n.png,images/cb_n.png,,,,,,,,,,,,,,,,,,,,,,,,,,,,,,,,,,,,,,,,,,,,,,,
,,,,,,55678,2023-08-12_20h22.43.372,vbt_B1_day2,2022.2.4,Win32,60.39376736,55678,,,,,,,-0.163888861,-0.252777806,1,0,0,1.3487,0,5,5,15,1,p,images/br_p.png,images/cb_p.png,,,,,,,,,,,,,,,,,,,,,,,,,,,,,,,,,,,,,,,,,,,,,,,
,,,,,,55678,2023-08-12_20h22.43.372,vbt_B1_day2,2022.2.4,Win32,60.39376736,55678,,,,,,,-0.163888861,-0.252777806,1,0,0,1.7693,0,6,6,4,1,e,images/br_e.png,images/cb_e.png,,,,,,,,,,,,,,,,,,,,,,,,,,,,,,,,,,,,,,,,,,,,,,,
,,,,,,55678,2023-08-12_20h22.43.372,vbt_B1_day2,2022.2.4,Win32,60.39376736,55678,,,,,,,-0.163888861,-0.252777806,1,0,0,2.6809,0,7,7,17,1,r,images/br_r.png,images/cb_r.png,,,,,,,,,,,,,,,,,,,,,,,,,,,,,,,,,,,,,,,,,,,,,,,
,,,,,,55678,2023-08-12_20h22.43.372,vbt_B1_day2,2022.2.4,Win32,60.39376736,55678,,,,,,,-0.163888861,-0.252777806,1,0,0,0.8953,0,8,8,1,1,b,images/br_b.png,images/cb_b.png,,,,,,,,,,,,,,,,,,,,,,,,,,,,,,,,,,,,,,,,,,,,,,,
,,,,,,55678,2023-08-12_20h22.43.372,vbt_B1_day2,2022.2.4,Win32,60.39376736,55678,,,,,,,-0.163888861,-0.252777806,1,0,0,2.4645,0,9,9,18,1,s,images/br_s.png,images/cb_s.png,,,,,,,,,,,,,,,,,,,,,,,,,,,,,,,,,,,,,,,,,,,,,,,
,,,,,,55678,2023-08-12_20h22.43.372,vbt_B1_day2,2022.2.4,Win32,60.39376736,55678,,,,,,,-0.163888861,-0.252777806,1,0,0,4.4162,0,10,10,9,1,j,images/br_j.png,images/cb_j.png,,,,,,,,,,,,,,,,,,,,,,,,,,,,,,,,,,,,,,,,,,,,,,,
,,,,,,55678,2023-08-12_20h22.43.372,vbt_B1_day2,2022.2.4,Win32,60.39376736,55678,,,,,,,-0.163888861,-0.252777806,1,0,0,1.0154,0,11,11,0,1,a,images/br_a.png,images/cb_a.png,,,,,,,,,,,,,,,,,,,,,,,,,,,,,,,,,,,,,,,,,,,,,,,
,,,,,,55678,2023-08-12_20h22.43.372,vbt_B1_day2,2022.2.4,Win32,60.39376736,55678,,,,,,,-0.163888861,-0.252777806,1,0,0,1.1159,0,12,12,23,1,x,images/br_x.png,images/cb_x.png,,,,,,,,,,,,,,,,,,,,,,,,,,,,,,,,,,,,,,,,,,,,,,,
,,,,,,55678,2023-08-12_20h22.43.372,vbt_B1_day2,2022.2.4,Win32,60.39376736,55678,,,,,,,-0.163888861,-0.252777806,1,0,0,1.1658,0,13,13,14,1,o,images/br_o.png,images/cb_o.png,,,,,,,,,,,,,,,,,,,,,,,,,,,,,,,,,,,,,,,,,,,,,,,
,,,,,,55678,2023-08-12_20h22.43.372,vbt_B1_day2,2022.2.4,Win32,60.39376736,55678,,,,,,,-0.163888861,-0.252777806,1,0,0,0.7828,0,14,14,8,1,i,images/br_i.png,images/cb_i.png,,,,,,,,,,,,,,,,,,,,,,,,,,,,,,,,,,,,,,,,,,,,,,,
,,,,,,55678,2023-08-12_20h22.43.372,vbt_B1_day2,2022.2.4,Win32,60.39376736,55678,,,,,,,-0.163888861,-0.252777806,1,0,0,1.2823,0,15,15,6,1,g,images/br_g.png,images/cb_g.png,,,,,,,,,,,,,,,,,,,,,,,,,,,,,,,,,,,,,,,,,,,,,,,
,,,,,,55678,2023-08-12_20h22.43.372,vbt_B1_day2,2022.2.4,Win32,60.39376736,55678,,,,,,,-0.163888861,-0.252777806,1,0,0,2.0982,0,16,16,21,1,v,images/br_v.png,images/cb_v.png,,,,,,,,,,,,,,,,,,,,,,,,,,,,,,,,,,,,,,,,,,,,,,,
,,,,,,55678,2023-08-12_20h22.43.372,vbt_B1_day2,2022.2.4,Win32,60.39376736,55678,,,,,,,-0.163888861,-0.252777806,1,0,0,7.8597,0,17,17,25,1,z,images/br_z.png,images/cb_z.png,,,,,,,,,,,,,,,,,,,,,,,,,,,,,,,,,,,,,,,,,,,,,,,
,,,,,,55678,2023-08-12_20h22.43.372,vbt_B1_day2,2022.2.4,Win32,60.39376736,55678,,,,,,,-0.163888861,-0.252777806,1,0,0,21.2474,0,18,18,12,1,m,images/br_m.png,images/cb_m.png,,,,,,,,,,,,,,,,,,,,,,,,,,,,,,,,,,,,,,,,,,,,,,,
,,,,,,55678,2023-08-12_20h22.43.372,vbt_B1_day2,2022.2.4,Win32,60.39376736,55678,,,,,,,-0.163888861,-0.252777806,1,0,0,2.3478,0,19,19,2,1,c,images/br_c.png,images/cb_c.png,,,,,,,,,,,,,,,,,,,,,,,,,,,,,,,,,,,,,,,,,,,,,,,
,,,,,,55678,2023-08-12_20h22.43.372,vbt_B1_day2,2022.2.4,Win32,60.39376736,55678,,,,,,,-0.163888861,-0.252777806,1,0,0,2.3314,0,20,20,5,1,f,images/br_f.png,images/cb_f.png,,,,,,,,,,,,,,,,,,,,,,,,,,,,,,,,,,,,,,,,,,,,,,,
,,,,,,55678,2023-08-12_20h22.43.372,vbt_B1_day2,2022.2.4,Win32,60.39376736,55678,,,,,,,-0.163888861,-0.252777806,1,0,0,1.6981,0,21,21,24,1,y,images/br_y.png,images/cb_y.png,,,,,,,,,,,,,,,,,,,,,,,,,,,,,,,,,,,,,,,,,,,,,,,
,,,,,,55678,2023-08-12_20h22.43.372,vbt_B1_day2,2022.2.4,Win32,60.39376736,55678,,,,,,,-0.163888861,-0.252777806,1,0,0,3.0309,0,22,22,19,1,t,images/br_t.png,images/cb_t.png,,,,,,,,,,,,,,,,,,,,,,,,,,,,,,,,,,,,,,,,,,,,,,,
,,,,,,55678,2023-08-12_20h22.43.372,vbt_B1_day2,2022.2.4,Win32,60.39376736,55678,,,,,,,-0.163888861,-0.252777806,1,0,0,2.1651,0,23,23,10,1,k,images/br_k.png,images/cb_k.png,,,,,,,,,,,,,,,,,,,,,,,,,,,,,,,,,,,,,,,,,,,,,,,
,,,,,,55678,2023-08-12_20h22.43.372,vbt_B1_day2,2022.2.4,Win32,60.39376736,55678,,,,,,,-0.163888861,-0.252777806,1,0,0,3.7294,0,24,24,11,1,l,images/br_l.png,images/cb_l.png,,,,,,,,,,,,,,,,,,,,,,,,,,,,,,,,,,,,,,,,,,,,,,,
,,,,,,55678,2023-08-12_20h22.43.372,vbt_B1_day2,2022.2.4,Win32,60.39376736,55678,,,,,,,-0.163888861,-0.252777806,1,0,0,0.8661,0,25,25,16,1,q,images/br_q.png,images/cb_q.png,,,,,,,,,,,,,,,,,,,,,,,,,,,,,,,,,,,,,,,,,,,,,,,
,,,,,,55678,2023-08-12_20h22.43.372,vbt_B1_day2,2022.2.4,Win32,60.39376736,55678,,,,,,,,,,,,,,,,,,,,,-0.163888861,-0.252777806,1,0,0,39.1854,,,,,,,,,,,,,,,,,,,,,,,,,,,,,,,,,,,,,,,,,
,,,,,,55678,2023-08-12_20h22.43.372,vbt_B1_day2,2022.2.4,Win32,60.39376736,55678,,,,,,,,,,,,,,,,,,,,,,,,,,,down,0,36.4518,,-0.163888861,-0.252777806,1,0,0,4.8065,0,0,0,27,1,dans,images/br_dans.png,images/cb_dans.png,0,,,,,,,,,,,,,,,,,,,,,,
,,,,,,55678,2023-08-12_20h22.43.372,vbt_B1_day2,2022.2.4,Win32,60.39376736,55678,,,,,,,,,,,,,,,,,,,,,,,,,,,down,0,16.3695,,-0.163888861,-0.252777806,1,0,0,1.8983,0,1,1,123,1,hiervan,images/br_hiervan.png,images/cb_hiervan.png,0,,,,,,,,,,,,,,,,,,,,,,
,,,,,,55678,2023-08-12_20h22.43.372,vbt_B1_day2,2022.2.4,Win32,60.39376736,55678,,,,,,,,,,,,,,,,,,,,,,,,,,,down,0,28.2837,,-0.163888861,-0.252777806,1,0,0,1.9816,0,2,2,172,1,weigeren,images/br_weigeren.png,images/cb_weigeren.png,0,,,,,,,,,,,,,,,,,,,,,,
,,,,,,55678,2023-08-12_20h22.43.372,vbt_B1_day2,2022.2.4,Win32,60.39376736,55678,,,,,,,,,,,,,,,,,,,,,,,,,,,down,0,24.4786,,-0.163888861,-0.252777806,1,0,0,2.5143,0,3,3,64,1,wegen,images/br_wegen.png,images/cb_wegen.png,0,,,,,,,,,,,,,,,,,,,,,,
,,,,,,55678,2023-08-12_20h22.43.372,vbt_B1_day2,2022.2.4,Win32,60.39376736,55678,,,,,,,,,,,,,,,,,,,,,,,,,,,down,0,30.1914,,0.334259316,-0.110185199,1,0,0,7.5265,0,4,4,179,1,woestijn,images/br_woestijn.png,images/cb_woestijn.png,1,woestijn,,,,,,,,,,,,,,,,,,,,,
,,,,,,55678,2023-08-12_20h22.43.372,vbt_B1_day2,2022.2.4,Win32,60.39376736,55678,,,,,,,,,,,,,,,,,,,,,,,,,,,down,0,17.3021,,0.334259316,-0.110185199,1,0,0,0.949,0,5,5,158,1,innemen,images/br_innemen.png,images/cb_innemen.png,0,,,,,,,,,,,,,,,,,,,,,,
,,,,,,55678,2023-08-12_20h22.43.372,vbt_B1_day2,2022.2.4,Win32,60.39376736,55678,,,,,,,,,,,,,,,,,,,,,,,,,,,down,0,17.0615,,0.334259316,-0.110185199,1,0,0,2.7142,0,6,6,159,1,sufferd,images/br_sufferd.png,images/cb_sufferd.png,0,,,,,,,,,,,,,,,,,,,,,,
,,,,,,55678,2023-08-12_20h22.43.372,vbt_B1_day2,2022.2.4,Win32,60.39376736,55678,,,,,,,,,,,,,,,,,,,,,,,,,,,down,0,11.323,,0.334259316,-0.110185199,1,0,0,1.9979,0,7,7,112,1,lukken,images/br_lukken.png,images/cb_lukken.png,0,,,,,,,,,,,,,,,,,,,,,,
,,,,,,55678,2023-08-12_20h22.43.372,vbt_B1_day2,2022.2.4,Win32,60.39376736,55678,,,,,,,,,,,,,,,,,,,,,,,,,,,down,0,17.7379,,0.334259316,-0.110185199,1,0,0,0.8658,0,8,8,109,1,totaal,images/br_totaal.png,images/cb_totaal.png,0,,,,,,,,,,,,,,,,,,,,,,
,,,,,,55678,2023-08-12_20h22.43.372,vbt_B1_day2,2022.2.4,Win32,60.39376736,55678,,,,,,,,,,,,,,,,,,,,,,,,,,,down,0,13.0055,,0.334259316,-0.110185199,1,0,0,2.714,0,9,9,50,1,stoom,images/br_stoom.png,images/cb_stoom.png,0,,,,,,,,,,,,,,,,,,,,,,
,,,,,,55678,2023-08-12_20h22.43.372,vbt_B1_day2,2022.2.4,Win32,60.39376736,55678,,,,,,,,,,,,,,,,,,,,,,,,,,,down,0,9.1759,,0.334259316,-0.110185199,1,0,0,2.8637,0,10,10,184,1,aandelen,images/br_aandelen.png,images/cb_aandelen.png,0,,,,,,,,,,,,,,,,,,,,,,
,,,,,,55678,2023-08-12_20h22.43.372,vbt_B1_day2,2022.2.4,Win32,60.39376736,55678,,,,,,,,,,,,,,,,,,,,,,,,,,,down,0,7.1041,,0.334259316,-0.110185199,1,0,0,21.6469,0,11,11,162,1,uitdelen,images/br_uitdelen.png,images/cb_uitdelen.png,0,,,,,,,,,,,,,,,,,,,,,,
,,,,,,55678,2023-08-12_20h22.43.372,vbt_B1_day2,2022.2.4,Win32,60.39376736,55678,,,,,,,,,,,,,,,,,,,,,,,,,,,down,0,18.9853,,0.334259316,-0.110185199,1,0,0,1.3995,0,12,12,180,1,openbaar,images/br_openbaar.png,images/cb_openbaar.png,0,,,,,,,,,,,,,,,,,,,,,,
,,,,,,55678,2023-08-12_20h22.43.372,vbt_B1_day2,2022.2.4,Win32,60.39376736,55678,,,,,,,,,,,,,,,,,,,,,,,,,,,down,0,26.427,,0.334259316,-0.110185199,1,0,0,0.7157,0,13,13,183,1,getuigen,images/br_getuigen.png,images/cb_getuigen.png,0,,,,,,,,,,,,,,,,,,,,,,
,,,,,,55678,2023-08-12_20h22.43.372,vbt_B1_day2,2022.2.4,Win32,60.39376736,55678,,,,,,,,,,,,,,,,,,,,,,,,,,,down,0,4.7964,,0.334259316,-0.110185199,1,0,0,3.6801,0,14,14,18,1,blik,images/br_blik.png,images/cb_blik.png,1,blik,,,,,,,,,,,,,,,,,,,,,
,,,,,,55678,2023-08-12_20h22.43.372,vbt_B1_day2,2022.2.4,Win32,60.39376736,55678,,,,,,,,,,,,,,,,,,,,,,,,,,,down,0,5.5007,,0.334259316,-0.110185199,1,0,0,6.6105,0,15,15,0,1,slak,images/br_slak.png,images/cb_slak.png,0,,,,,,,,,,,,,,,,,,,,,,
,,,,,,55678,2023-08-12_20h22.43.372,vbt_B1_day2,2022.2.4,Win32,60.39376736,55678,,,,,,,,,,,,,,,,,,,,,,,,,,,down,0,11.8973,,0.334259316,-0.110185199,1,0,0,25.3938,0,16,16,130,1,keihard,images/br_keihard.png,images/cb_keihard.png,0,,,,,,,,,,,,,,,,,,,,,,
,,,,,,55678,2023-08-12_20h22.43.372,vbt_B1_day2,2022.2.4,Win32,60.39376736,55678,,,,,,,,,,,,,,,,,,,,,,,,,,,down,0,8.8625,,0.334259316,-0.110185199,1,0,0,3.3802,0,17,17,124,1,bloeien,images/br_bloeien.png,images/cb_bloeien.png,0,,,,,,,,,,,,,,,,,,,,,,
,,,,,,55678,2023-08-12_20h22.43.372,vbt_B1_day2,2022.2.4,Win32,60.39376736,55678,,,,,,,,,,,,,,,,,,,,,,,,,,,down,0,9.6163,,0.334259316,-0.110185199,1,0,0,17.9999,0,18,18,174,1,stemming,images/br_stemming.png,images/cb_stemming.png,0,,,,,,,,,,,,,,,,,,,,,,
,,,,,,55678,2023-08-12_20h22.43.372,vbt_B1_day2,2022.2.4,Win32,60.39376736,55678,,,,,,,,,,,,,,,,,,,,,,,,,,,down,0,17.5396,,0.334259316,-0.110185199,1,0,0,6.4942,0,19,19,193,1,weeshuis,images/br_weeshuis.png,images/cb_weeshuis.png,0,,,,,,,,,,,,,,,,,,,,,,
,,,,,,55678,2023-08-12_20h22.43.372,vbt_B1_day2,2022.2.4,Win32,60.39376736,55678,,,,,,,,,,,,,,,,,,,,,,,,,,,down,0,16.1253,,0.334259316,-0.110185199,1,0,0,0.7326,0,20,20,85,1,heilig,images/br_heilig.png,images/cb_heilig.png,0,,,,,,,,,,,,,,,,,,,,,,
,,,,,,55678,2023-08-12_20h22.43.372,vbt_B1_day2,2022.2.4,Win32,60.39376736,55678,,,,,,,,,,,,,,,,,,,,,,,,,,,down,0,40.0188,,0.334259316,-0.110185199,1,0,0,3.6832,0,21,21,4,1,moes,images/br_moes.png,images/cb_moes.png,0,,,,,,,,,,,,,,,,,,,,,,
,,,,,,55678,2023-08-12_20h22.43.372,vbt_B1_day2,2022.2.4,Win32,60.39376736,55678,,,,,,,,,,,,,,,,,,,,,,,,,,,down,0,9.1427,,0.334259316,-0.110185199,1,0,0,0.8324,0,22,22,82,1,muziek,images/br_muziek.png,images/cb_muziek.png,0,,,,,,,,,,,,,,,,,,,,,,
,,,,,,55678,2023-08-12_20h22.43.372,vbt_B1_day2,2022.2.4,Win32,60.39376736,55678,,,,,,,,,,,,,,,,,,,,,,,,,,,down,0,8.2932,,0.334259316,-0.110185199,1,0,0,2.2516,0,23,23,154,1,aflopen,images/br_aflopen.png,images/cb_aflopen.png,0,,,,,,,,,,,,,,,,,,,,,,
,,,,,,55678,2023-08-12_20h22.43.372,vbt_B1_day2,2022.2.4,Win32,60.39376736,55678,,,,,,,,,,,,,,,,,,,,,,,,,,,down,0,43.4031,,0.334259316,-0.110185199,1,0,0,1.0493,0,24,24,173,1,apparaat,images/br_apparaat.png,images/cb_apparaat.png,0,,,,,,,,,,,,,,,,,,,,,,
,,,,,,55678,2023-08-12_20h22.43.372,vbt_B1_day2,2022.2.4,Win32,60.39376736,55678,,,,,,,,,,,,,,,,,,,,,,,,,,,down,0,7.8654,,0.334259316,-0.110185199,1,0,0,17.8339,0,25,25,134,1,geliefd,images/br_geliefd.png,images/cb_geliefd.png,0,,,,,,,,,,,,,,,,,,,,,,
,,,,,,55678,2023-08-12_20h22.43.372,vbt_B1_day2,2022.2.4,Win32,60.39376736,55678,,,,,,,,,,,,,,,,,,,,,,,,,,,down,0,1.4237,,0.334259316,-0.110185199,1,0,0,4.2462,0,26,26,39,1,laag,images/br_laag.png,images/cb_laag.png,0,,,,,,,,,,,,,,,,,,,,,,
,,,,,,55678,2023-08-12_20h22.43.372,vbt_B1_day2,2022.2.4,Win32,60.39376736,55678,,,,,,,,,,,,,,,,,,,,,,,,,,,down,0,7.0153,,0.334259316,-0.110185199,1,0,0,2.0813,0,27,27,149,1,redding,images/br_redding.png,images/cb_redding.png,0,,,,,,,,,,,,,,,,,,,,,,
,,,,,,55678,2023-08-12_20h22.43.372,vbt_B1_day2,2022.2.4,Win32,60.39376736,55678,,,,,,,,,,,,,,,,,,,,,,,,,,,down,0,27.3106,,0.334259316,-0.110185199,1,0,0,0.7024,0,28,28,182,1,bijkomen,images/br_bijkomen.png,images/cb_bijkomen.png,0,,,,,,,,,,,,,,,,,,,,,,
,,,,,,55678,2023-08-12_20h22.43.372,vbt_B1_day2,2022.2.4,Win32,60.39376736,55678,,,,,,,,,,,,,,,,,,,,,,,,,,,down,0,16.4376,,0.334259316,-0.110185199,1,0,0,3.147,0,29,29,41,1,maken,images/br_maken.png,images/cb_maken.png,0,,,,,,,,,,,,,,,,,,,,,,
,,,,,,55678,2023-08-12_20h22.43.372,vbt_B1_day2,2022.2.4,Win32,60.39376736,55678,,,,,,,,,,,,,,,,,,,,,,,,,,,down,0,12.8803,,0.334259316,-0.110185199,1,0,0,5.4822,0,30,30,155,1,gerucht,images/br_gerucht.png,images/cb_gerucht.png,0,,,,,,,,,,,,,,,,,,,,,,
,,,,,,55678,2023-08-12_20h22.43.372,vbt_B1_day2,2022.2.4,Win32,60.39376736,55678,,,,,,,,,,,,,,,,,,,,,,,,,,,down,0,7.7787,,0.334259316,-0.110185199,1,0,0,6.6106,0,31,31,47,1,kabel,images/br_kabel.png,images/cb_kabel.png,0,,,,,,,,,,,,,,,,,,,,,,
,,,,,,55678,2023-08-12_20h22.43.372,vbt_B1_day2,2022.2.4,Win32,60.39376736,55678,,,,,,,,,,,,,,,,,,,,,,,,,,,down,0,8.9146,,0.334259316,-0.110185199,1,0,0,1.4024,0,32,32,95,1,vreten,images/br_vreten.png,images/cb_vreten.png,0,,,,,,,,,,,,,,,,,,,,,,
,,,,,,55678,2023-08-12_20h22.43.372,vbt_B1_day2,2022.2.4,Win32,60.39376736,55678,,,,,,,,,,,,,,,,,,,,,,,,,,,down,0,9.7325,,0.334259316,-0.110185199,1,0,0,3.3134,0,33,33,81,1,dubbel,images/br_dubbel.png,images/cb_dubbel.png,0,,,,,,,,,,,,,,,,,,,,,,
,,,,,,55678,2023-08-12_20h22.43.372,vbt_B1_day2,2022.2.4,Win32,60.39376736,55678,,,,,,,,,,,,,,,,,,,,,,,,,,,down,0,25.0081,,0.334259316,-0.110185199,1,0,0,1.1481,0,34,34,161,1,attentie,images/br_attentie.png,images/cb_attentie.png,0,,,,,,,,,,,,,,,,,,,,,,
,,,,,,55678,2023-08-12_20h22.43.372,vbt_B1_day2,2022.2.4,Win32,60.39376736,55678,,,,,,,,,,,,,,,,,,,,,,,,,,,down,0,26.5659,,0.334259316,-0.110185199,1,0,0,0.8865,0,35,35,107,1,maling,images/br_maling.png,images/cb_maling.png,0,,,,,,,,,,,,,,,,,,,,,,
,,,,,,55678,2023-08-12_20h22.43.372,vbt_B1_day2,2022.2.4,Win32,60.39376736,55678,,,,,,,,,,,,,,,,,,,,,,,,,,,down,0,19.2839,,0.334259316,-0.110185199,1,0,0,1.8808,0,36,36,190,1,goedkoop,images/br_goedkoop.png,images/cb_goedkoop.png,0,,,,,,,,,,,,,,,,,,,,,,
,,,,,,55678,2023-08-12_20h22.43.372,vbt_B1_day2,2022.2.4,Win32,60.39376736,55678,,,,,,,,,,,,,,,,,,,,,,,,,,,down,0,6.1788,,0.334259316,-0.110185199,1,0,0,1.2035,0,37,37,16,1,ziek,images/br_ziek.png,images/cb_ziek.png,1,ziek,,,,,,,,,,,,,,,,,,,,,
,,,,,,55678,2023-08-12_20h22.43.372,vbt_B1_day2,2022.2.4,Win32,60.39376736,55678,,,,,,,,,,,,,,,,,,,,,,,,,,,down,0,5.0705,,0.334259316,-0.110185199,1,0,0,0.7867,0,38,38,96,1,slagen,images/br_slagen.png,images/cb_slagen.png,1,slagen,,,,,,,,,,,,,,,,,,,,,
,,,,,,55678,2023-08-12_20h22.43.372,vbt_B1_day2,2022.2.4,Win32,60.39376736,55678,,,,,,,,,,,,,,,,,,,,,,,,,,,down,0,3.7819,,0.334259316,-0.110185199,1,0,0,9.179,0,39,39,106,1,zingen,images/br_zingen.png,images/cb_zingen.png,0,,,,,,,,,,,,,,,,,,,,,,
,,,,,,55678,2023-08-12_20h22.43.372,vbt_B1_day2,2022.2.4,Win32,60.39376736,55678,,,,,,,,,,,,,,,,,,,,,,,,,,,down,0,9.8916,,0.334259316,-0.110185199,1,0,0,5.9238,0,40,40,55,1,praat,images/br_praat.png,images/cb_praat.png,0,,,,,,,,,,,,,,,,,,,,,,
,,,,,,55678,2023-08-12_20h22.43.372,vbt_B1_day2,2022.2.4,Win32,60.39376736,55678,,,,,,,,,,,,,,,,,,,,,,,,,,,down,0,20.7918,,0.334259316,-0.110185199,1,0,0,0.9329,0,41,41,25,1,plek,images/br_plek.png,images/cb_plek.png,0,,,,,,,,,,,,,,,,,,,,,,
,,,,,,55678,2023-08-12_20h22.43.372,vbt_B1_day2,2022.2.4,Win32,60.39376736,55678,,,,,,,,,,,,,,,,,,,,,,,,,,,down,0,64.7797,,0.334259316,-0.110185199,1,0,0,1.2984,0,42,42,127,1,doodmoe,images/br_doodmoe.png,images/cb_doodmoe.png,0,,,,,,,,,,,,,,,,,,,,,,
,,,,,,55678,2023-08-12_20h22.43.372,vbt_B1_day2,2022.2.4,Win32,60.39376736,55678,,,,,,,,,,,,,,,,,,,,,,,,,,,down,0,4.8638,,0.334259316,-0.110185199,1,0,0,3.2303,0,43,43,30,1,uien,images/br_uien.png,images/cb_uien.png,0,,,,,,,,,,,,,,,,,,,,,,
,,,,,,55678,2023-08-12_20h22.43.372,vbt_B1_day2,2022.2.4,Win32,60.39376736,55678,,,,,,,,,,,,,,,,,,,,,,,,,,,down,0,7.6195,,0.334259316,-0.110185199,1,0,0,2.7806,0,44,44,44,1,flits,images/br_flits.png,images/cb_flits.png,0,,,,,,,,,,,,,,,,,,,,,,
,,,,,,55678,2023-08-12_20h22.43.372,vbt_B1_day2,2022.2.4,Win32,60.39376736,55678,,,,,,,,,,,,,,,,,,,,,,,,,,,down,0,22.882,,0.334259316,-0.110185199,1,0,0,3.1305,0,45,45,199,1,beseffen,images/br_beseffen.png,images/cb_beseffen.png,0,,,,,,,,,,,,,,,,,,,,,,
,,,,,,55678,2023-08-12_20h22.43.372,vbt_B1_day2,2022.2.4,Win32,60.39376736,55678,,,,,,,,,,,,,,,,,,,,,,,,,,,down,0,19.0686,,0.607407464,-0.113888917,1,0,0,4.3794,0,46,46,148,1,smullen,images/br_smullen.png,images/cb_smullen.png,0,,,,,,,,,,,,,,,,,,,,,,
,,,,,,55678,2023-08-12_20h22.43.372,vbt_B1_day2,2022.2.4,Win32,60.39376736,55678,,,,,,,,,,,,,,,,,,,,,,,,,,,down,0,19.5508,,0.607407464,-0.113888917,1,0,0,3.1634,0,47,47,90,1,geluid,images/br_geluid.png,images/cb_geluid.png,0,,,,,,,,,,,,,,,,,,,,,,
,,,,,,55678,2023-08-12_20h22.43.372,vbt_B1_day2,2022.2.4,Win32,60.39376736,55678,,,,,,,,,,,,,,,,,,,,,,,,,,,down,0,22.2147,,0.607407464,-0.113888917,1,0,0,2.5975,0,48,48,185,1,mijnheer,images/br_mijnheer.png,images/cb_mijnheer.png,0,,,,,,,,,,,,,,,,,,,,,,
,,,,,,55678,2023-08-12_20h22.43.372,vbt_B1_day2,2022.2.4,Win32,60.39376736,55678,,,,,,,,,,,,,,,,,,,,,,,,,,,down,0,12.6188,,0.607407464,-0.113888917,1,0,0,3.6298,0,49,49,88,1,boeien,images/br_boeien.png,images/cb_boeien.png,0,,,,,,,,,,,,,,,,,,,,,,
,,,,,,55678,2023-08-12_20h22.43.372,vbt_B1_day2,2022.2.4,Win32,60.39376736,55678,,,,,,,,,,,,,,,,,,,,,,,,,,,down,0,13.9298,,0.607407464,-0.113888917,1,0,0,1.1028,0,50,50,128,1,prikken,images/br_prikken.png,images/cb_prikken.png,0,,,,,,,,,,,,,,,,,,,,,,
,,,,,,55678,2023-08-12_20h22.43.372,vbt_B1_day2,2022.2.4,Win32,60.39376736,55678,,,,,,,,,,,,,,,,,,,,,,,,,,,down,0,3.4989,,0.607407464,-0.113888917,1,0,0,2.8669,0,51,51,71,1,bever,images/br_bever.png,images/cb_bever.png,0,,,,,,,,,,,,,,,,,,,,,,
,,,,,,55678,2023-08-12_20h22.43.372,vbt_B1_day2,2022.2.4,Win32,60.39376736,55678,,,,,,,,,,,,,,,,,,,,,,,,,,,down,0,13.4985,,0.607407464,-0.113888917,1,0,0,12.8413,0,52,52,118,1,vinger,images/br_vinger.png,images/cb_vinger.png,0,,,,,,,,,,,,,,,,,,,,,,
,,,,,,55678,2023-08-12_20h22.43.372,vbt_B1_day2,2022.2.4,Win32,60.39376736,55678,,,,,,,,,,,,,,,,,,,,,,,,,,,down,0,23.8456,,0.607407464,-0.113888917,1,0,0,0.6326,0,53,53,11,1,mode,images/br_mode.png,images/cb_mode.png,0,,,,,,,,,,,,,,,,,,,,,,
,,,,,,55678,2023-08-12_20h22.43.372,vbt_B1_day2,2022.2.4,Win32,60.39376736,55678,,,,,,,,,,,,,,,,,,,,,,,,,,,down,0,3.5578,,0.607407464,-0.113888917,1,0,0,7.3305,0,54,54,24,1,jurk,images/br_jurk.png,images/cb_jurk.png,0,,,,,,,,,,,,,,,,,,,,,,
,,,,,,55678,2023-08-12_20h22.43.372,vbt_B1_day2,2022.2.4,Win32,60.39376736,55678,,,,,,,,,,,,,,,,,,,,,,,,,,,down,0,8.4019,,0.607407464,-0.113888917,1,0,0,8.6789,0,55,55,94,1,oceaan,images/br_oceaan.png,images/cb_oceaan.png,0,,,,,,,,,,,,,,,,,,,,,,
,,,,,,55678,2023-08-12_20h22.43.372,vbt_B1_day2,2022.2.4,Win32,60.39376736,55678,,,,,,,,,,,,,,,,,,,,,,,,,,,down,0,3.6002,,0.607407464,-0.113888917,1,0,0,30.0096,0,56,56,40,1,schep,images/br_schep.png,images/cb_schep.png,0,,,,,,,,,,,,,,,,,,,,,,
,,,,,,55678,2023-08-12_20h22.43.372,vbt_B1_day2,2022.2.4,Win32,60.39376736,55678,,,,,,,,,,,,,,,,,,,,,,,,,,,down,0,10.4688,,0.607407464,-0.113888917,1,0,0,1.3363,0,57,57,87,1,toeval,images/br_toeval.png,images/cb_toeval.png,0,,,,,,,,,,,,,,,,,,,,,,
,,,,,,55678,2023-08-12_20h22.43.372,vbt_B1_day2,2022.2.4,Win32,60.39376736,55678,,,,,,,,,,,,,,,,,,,,,,,,,,,down,0,2.576,,0.607407464,-0.113888917,1,0,0,16.2851,0,58,58,191,1,opheffen,images/br_opheffen.png,images/cb_opheffen.png,0,,,,,,,,,,,,,,,,,,,,,,
,,,,,,55678,2023-08-12_20h22.43.372,vbt_B1_day2,2022.2.4,Win32,60.39376736,55678,,,,,,,,,,,,,,,,,,,,,,,,,,,down,0,5.1122,,0.607407464,-0.113888917,1,0,0,2.7101,0,59,59,56,1,traag,images/br_traag.png,images/cb_traag.png,1,traag,,,,,,,,,,,,,,,,,,,,,
,,,,,,55678,2023-08-12_20h22.43.372,vbt_B1_day2,2022.2.4,Win32,60.39376736,55678,,,,,,,,,,,,,,,,,,,,,,,,,,,down,0,7.6511,,0.607407464,-0.113888917,1,0,0,20.1984,0,60,60,196,1,nakijken,images/br_nakijken.png,images/cb_nakijken.png,0,,,,,,,,,,,,,,,,,,,,,,
,,,,,,55678,2023-08-12_20h22.43.372,vbt_B1_day2,2022.2.4,Win32,60.39376736,55678,,,,,,,,,,,,,,,,,,,,,,,,,,,down,0,4.4726,,0.607407464,-0.113888917,1,0,0,32.8368,0,61,61,181,1,toegeven,images/br_toegeven.png,images/cb_toegeven.png,0,,,,,,,,,,,,,,,,,,,,,,
,,,,,,55678,2023-08-12_20h22.43.372,vbt_B1_day2,2022.2.4,Win32,60.39376736,55678,,,,,,,,,,,,,,,,,,,,,,,,,,,down,0,22.3637,,0.607407464,-0.113888917,1,0,0,2.4143,0,62,62,157,1,uitlaat,images/br_uitlaat.png,images/cb_uitlaat.png,0,,,,,,,,,,,,,,,,,,,,,,
,,,,,,55678,2023-08-12_20h22.43.372,vbt_B1_day2,2022.2.4,Win32,60.39376736,55678,,,,,,,,,,,,,,,,,,,,,,,,,,,down,0,3.4408,,0.607407464,-0.113888917,1,0,0,4.296,0,63,63,105,1,wijlen,images/br_wijlen.png,images/cb_wijlen.png,0,,,,,,,,,,,,,,,,,,,,,,
,,,,,,55678,2023-08-12_20h22.43.372,vbt_B1_day2,2022.2.4,Win32,60.39376736,55678,,,,,,,,,,,,,,,,,,,,,,,,,,,down,0,15.3595,,0.607407464,-0.113888917,1,0,0,0.7982,0,64,64,186,1,voorraad,images/br_voorraad.png,images/cb_voorraad.png,0,,,,,,,,,,,,,,,,,,,,,,
,,,,,,55678,2023-08-12_20h22.43.372,vbt_B1_day2,2022.2.4,Win32,60.39376736,55678,,,,,,,,,,,,,,,,,,,,,,,,,,,down,0,7.3499,,0.607407464,-0.113888917,1,0,0,6.5108,0,65,65,164,1,anarchie,images/br_anarchie.png,images/cb_anarchie.png,0,,,,,,,,,,,,,,,,,,,,,,
,,,,,,55678,2023-08-12_20h22.43.372,vbt_B1_day2,2022.2.4,Win32,60.39376736,55678,,,,,,,,,,,,,,,,,,,,,,,,,,,down,0,5.462,,0.607407464,-0.113888917,1,0,0,1.7485,0,66,66,6,1,diep,images/br_diep.png,images/cb_diep.png,0,,,,,,,,,,,,,,,,,,,,,,
,,,,,,55678,2023-08-12_20h22.43.372,vbt_B1_day2,2022.2.4,Win32,60.39376736,55678,,,,,,,,,,,,,,,,,,,,,,,,,,,down,0,15.6213,,0.607407464,-0.113888917,1,0,0,0.8495,0,67,67,74,1,graaf,images/br_graaf.png,images/cb_graaf.png,0,,,,,,,,,,,,,,,,,,,,,,
,,,,,,55678,2023-08-12_20h22.43.372,vbt_B1_day2,2022.2.4,Win32,60.39376736,55678,,,,,,,,,,,,,,,,,,,,,,,,,,,down,0,5.1126,,0.607407464,-0.113888917,1,0,0,1.0157,0,68,68,140,1,blijven,images/br_blijven.png,images/cb_blijven.png,0,,,,,,,,,,,,,,,,,,,,,,
,,,,,,55678,2023-08-12_20h22.43.372,vbt_B1_day2,2022.2.4,Win32,60.39376736,55678,,,,,,,,,,,,,,,,,,,,,,,,,,,down,0,19.9881,,0.607407464,-0.113888917,1,0,0,4.2627,0,69,69,33,1,vlek,images/br_vlek.png,images/cb_vlek.png,0,,,,,,,,,,,,,,,,,,,,,,
,,,,,,55678,2023-08-12_20h22.43.372,vbt_B1_day2,2022.2.4,Win32,60.39376736,55678,,,,,,,,,,,,,,,,,,,,,,,,,,,down,0,8.6347,,0.607407464,-0.113888917,1,0,0,30.7727,0,70,70,194,1,driemaal,images/br_driemaal.png,images/cb_driemaal.png,0,,,,,,,,,,,,,,,,,,,,,,
,,,,,,55678,2023-08-12_20h22.43.372,vbt_B1_day2,2022.2.4,Win32,60.39376736,55678,,,,,,,,,,,,,,,,,,,,,,,,,,,down,0,4.4197,,0.607407464,-0.113888917,1,0,0,6.9437,0,71,71,198,1,bedoelen,images/br_bedoelen.png,images/cb_bedoelen.png,0,,,,,,,,,,,,,,,,,,,,,,
,,,,,,55678,2023-08-12_20h22.43.372,vbt_B1_day2,2022.2.4,Win32,60.39376736,55678,,,,,,,,,,,,,,,,,,,,,,,,,,,down,0,1.2057,,0.607407464,-0.113888917,1,0,0,3.2828,0,72,72,48,1,steel,images/br_steel.png,images/cb_steel.png,0,,,,,,,,,,,,,,,,,,,,,,
,,,,,,55678,2023-08-12_20h22.43.372,vbt_B1_day2,2022.2.4,Win32,60.39376736,55678,,,,,,,,,,,,,,,,,,,,,,,,,,,down,0,9.6694,,0.607407464,-0.113888917,1,0,0,1.7146,0,73,73,187,1,opkijken,images/br_opkijken.png,images/cb_opkijken.png,0,,,,,,,,,,,,,,,,,,,,,,
,,,,,,55678,2023-08-12_20h22.43.372,vbt_B1_day2,2022.2.4,Win32,60.39376736,55678,,,,,,,,,,,,,,,,,,,,,,,,,,,down,0,3.7143,,0.607407464,-0.113888917,1,0,0,5.5292,0,74,74,102,1,legaal,images/br_legaal.png,images/cb_legaal.png,0,,,,,,,,,,,,,,,,,,,,,,
,,,,,,55678,2023-08-12_20h22.43.372,vbt_B1_day2,2022.2.4,Win32,60.39376736,55678,,,,,,,,,,,,,,,,,,,,,,,,,,,down,0,5.1314,,0.607407464,-0.113888917,1,0,0,5.9613,0,75,75,98,1,kreeft,images/br_kreeft.png,images/cb_kreeft.png,1,kreeft,,,,,,,,,,,,,,,,,,,,,
,,,,,,55678,2023-08-12_20h22.43.372,vbt_B1_day2,2022.2.4,Win32,60.39376736,55678,,,,,,,,,,,,,,,,,,,,,,,,,,,down,0,4.3132,,0.607407464,-0.113888917,1,0,0,4.9952,0,76,76,23,1,zout,images/br_zout.png,images/cb_zout.png,0,,,,,,,,,,,,,,,,,,,,,,
,,,,,,55678,2023-08-12_20h22.43.372,vbt_B1_day2,2022.2.4,Win32,60.39376736,55678,,,,,,,,,,,,,,,,,,,,,,,,,,,down,0,2.585,,0.607407464,-0.113888917,1,0,0,5.6282,0,77,77,14,1,rijp,images/br_rijp.png,images/cb_rijp.png,0,,,,,,,,,,,,,,,,,,,,,,
,,,,,,55678,2023-08-12_20h22.43.372,vbt_B1_day2,2022.2.4,Win32,60.39376736,55678,,,,,,,,,,,,,,,,,,,,,,,,,,,down,0,3.2134,,0.607407464,-0.113888917,1,0,0,3.6133,0,78,78,15,1,soda,images/br_soda.png,images/cb_soda.png,0,,,,,,,,,,,,,,,,,,,,,,
,,,,,,55678,2023-08-12_20h22.43.372,vbt_B1_day2,2022.2.4,Win32,60.39376736,55678,,,,,,,,,,,,,,,,,,,,,,,,,,,down,0,4.8504,,0.607407464,-0.113888917,1,0,0,9.974,0,79,79,8,1,knie,images/br_knie.png,images/cb_knie.png,0,,,,,,,,,,,,,,,,,,,,,,
,,,,,,55678,2023-08-12_20h22.43.372,vbt_B1_day2,2022.2.4,Win32,60.39376736,55678,,,,,,,,,,,,,,,,,,,,,,,,,,,down,0,2.1192,,0.607407464,-0.113888917,1,0,0,3.3468,0,80,80,84,1,lokken,images/br_lokken.png,images/cb_lokken.png,0,,,,,,,,,,,,,,,,,,,,,,
,,,,,,55678,2023-08-12_20h22.43.372,vbt_B1_day2,2022.2.4,Win32,60.39376736,55678,,,,,,,,,,,,,,,,,,,,,,,,,,,down,0,8.8591,,0.607407464,-0.113888917,1,0,0,5.8448,0,81,81,86,1,woning,images/br_woning.png,images/cb_woning.png,0,,,,,,,,,,,,,,,,,,,,,,
,,,,,,55678,2023-08-12_20h22.43.372,vbt_B1_day2,2022.2.4,Win32,60.39376736,55678,,,,,,,,,,,,,,,,,,,,,,,,,,,down,0,4.3644,,0.607407464,-0.113888917,1,0,0,7.743,0,82,82,169,1,oprotten,images/br_oprotten.png,images/cb_oprotten.png,0,,,,,,,,,,,,,,,,,,,,,,
,,,,,,55678,2023-08-12_20h22.43.372,vbt_B1_day2,2022.2.4,Win32,60.39376736,55678,,,,,,,,,,,,,,,,,,,,,,,,,,,down,0,5.3294,,0.607407464,-0.113888917,1,0,0,2.9475,0,83,83,131,1,opzicht,images/br_opzicht.png,images/cb_opzicht.png,0,,,,,,,,,,,,,,,,,,,,,,
,,,,,,55678,2023-08-12_20h22.43.372,vbt_B1_day2,2022.2.4,Win32,60.39376736,55678,,,,,,,,,,,,,,,,,,,,,,,,,,,down,0,2.3773,,0.607407464,-0.113888917,1,0,0,4.1619,0,84,84,51,1,samen,images/br_samen.png,images/cb_samen.png,0,,,,,,,,,,,,,,,,,,,,,,
,,,,,,55678,2023-08-12_20h22.43.372,vbt_B1_day2,2022.2.4,Win32,60.39376736,55678,,,,,,,,,,,,,,,,,,,,,,,,,,,down,0,3.52,,0.607407464,-0.113888917,1,0,0,9.2416,0,85,85,22,1,stof,images/br_stof.png,images/cb_stof.png,0,,,,,,,,,,,,,,,,,,,,,,
,,,,,,55678,2023-08-12_20h22.43.372,vbt_B1_day2,2022.2.4,Win32,60.39376736,55678,,,,,,,,,,,,,,,,,,,,,,,,,,,down,0,16.1198,,0.607407464,-0.113888917,1,0,0,2.6307,0,86,86,197,1,spanning,images/br_spanning.png,images/cb_spanning.png,0,,,,,,,,,,,,,,,,,,,,,,
,,,,,,55678,2023-08-12_20h22.43.372,vbt_B1_day2,2022.2.4,Win32,60.39376736,55678,,,,,,,,,,,,,,,,,,,,,,,,,,,down,0,2.151,,0.607407464,-0.113888917,1,0,0,4.179,0,87,87,89,1,slapen,images/br_slapen.png,images/cb_slapen.png,0,,,,,,,,,,,,,,,,,,,,,,
,,,,,,55678,2023-08-12_20h22.43.372,vbt_B1_day2,2022.2.4,Win32,60.39376736,55678,,,,,,,,,,,,,,,,,,,,,,,,,,,down,0,12.4734,,0.607407464,-0.113888917,1,0,0,3.4802,0,88,88,26,1,leuk,images/br_leuk.png,images/cb_leuk.png,0,,,,,,,,,,,,,,,,,,,,,,
,,,,,,55678,2023-08-12_20h22.43.372,vbt_B1_day2,2022.2.4,Win32,60.39376736,55678,,,,,,,,,,,,,,,,,,,,,,,,,,,down,0,7.6676,,0.607407464,-0.113888917,1,0,0,4.5623,0,89,89,38,1,baai,images/br_baai.png,images/cb_baai.png,0,,,,,,,,,,,,,,,,,,,,,,
,,,,,,55678,2023-08-12_20h22.43.372,vbt_B1_day2,2022.2.4,Win32,60.39376736,55678,,,,,,,,,,,,,,,,,,,,,,,,,,,down,0,1.3824,,0.607407464,-0.113888917,1,0,0,9.6576,0,90,90,114,1,vullen,images/br_vullen.png,images/cb_vullen.png,0,,,,,,,,,,,,,,,,,,,,,,
,,,,,,55678,2023-08-12_20h22.43.372,vbt_B1_day2,2022.2.4,Win32,60.39376736,55678,,,,,,,,,,,,,,,,,,,,,,,,,,,down,0,1.1508,,0.607407464,-0.113888917,1,0,0,6.3276,0,91,91,120,1,klimmen,images/br_klimmen.png,images/cb_klimmen.png,0,,,,,,,,,,,,,,,,,,,,,,
,,,,,,55678,2023-08-12_20h22.43.372,vbt_B1_day2,2022.2.4,Win32,60.39376736,55678,,,,,,,,,,,,,,,,,,,,,,,,,,,down,0,8.4768,,0.607407464,-0.113888917,1,0,0,1.7482,0,92,92,53,1,baron,images/br_baron.png,images/cb_baron.png,0,,,,,,,,,,,,,,,,,,,,,,
,,,,,,55678,2023-08-12_20h22.43.372,vbt_B1_day2,2022.2.4,Win32,60.39376736,55678,,,,,,,,,,,,,,,,,,,,,,,,,,,down,0,30.0076,,0.607407464,-0.113888917,1,0,0,3.3802,0,93,93,92,1,geheim,images/br_geheim.png,images/cb_geheim.png,0,,,,,,,,,,,,,,,,,,,,,,
,,,,,,55678,2023-08-12_20h22.43.372,vbt_B1_day2,2022.2.4,Win32,60.39376736,55678,,,,,,,,,,,,,,,,,,,,,,,,,,,down,0,13.4318,,0.607407464,-0.113888917,1,0,0,6.7917,0,94,94,110,1,zuster,images/br_zuster.png,images/cb_zuster.png,0,,,,,,,,,,,,,,,,,,,,,,
,,,,,,55678,2023-08-12_20h22.43.372,vbt_B1_day2,2022.2.4,Win32,60.39376736,55678,,,,,,,,,,,,,,,,,,,,,,,,,,,down,0,12.6736,,0.607407464,-0.113888917,1,0,0,0.6992,0,95,95,177,1,maaltijd,images/br_maaltijd.png,images/cb_maaltijd.png,1,maaltijd,,,,,,,,,,,,,,,,,,,,,
,,,,,,55678,2023-08-12_20h22.43.372,vbt_B1_day2,2022.2.4,Win32,60.39376736,55678,,,,,,,,,,,,,,,,,,,,,,,,,,,down,0,16.4299,,0.607407464,-0.113888917,1,0,0,22.0131,0,96,96,175,1,heengaan,images/br_heengaan.png,images/cb_heengaan.png,0,,,,,,,,,,,,,,,,,,,,,,
,,,,,,55678,2023-08-12_20h22.43.372,vbt_B1_day2,2022.2.4,Win32,60.39376736,55678,,,,,,,,,,,,,,,,,,,,,,,,,,,down,0,3.2823,,0.607407464,-0.113888917,1,0,0,17.7005,0,97,97,142,1,snuiven,images/br_snuiven.png,images/cb_snuiven.png,0,,,,,,,,,,,,,,,,,,,,,,
,,,,,,55678,2023-08-12_20h22.43.372,vbt_B1_day2,2022.2.4,Win32,60.39376736,55678,,,,,,,,,,,,,,,,,,,,,,,,,,,down,0,4.9973,,0.607407464,-0.113888917,1,0,0,6.1779,0,98,98,75,1,snoep,images/br_snoep.png,images/cb_snoep.png,0,,,,,,,,,,,,,,,,,,,,,,
,,,,,,55678,2023-08-12_20h22.43.372,vbt_B1_day2,2022.2.4,Win32,60.39376736,55678,,,,,,,,,,,,,,,,,,,,,,,,,,,down,0,1.2535,,0.607407464,-0.113888917,1,0,0,3.3636,0,99,99,35,1,lust,images/br_lust.png,images/cb_lust.png,0,,,,,,,,,,,,,,,,,,,,,,
,,,,,,55678,2023-08-12_20h22.43.372,vbt_B1_day2,2022.2.4,Win32,60.39376736,55678,,,,,,,,,,,,,,,,,,,,,,,,,,,down,0,0.9542,,0.607407464,-0.113888917,1,0,0,2.9137,0,100,100,42,1,bleek,images/br_bleek.png,images/cb_bleek.png,0,,,,,,,,,,,,,,,,,,,,,,
,,,,,,55678,2023-08-12_20h22.43.372,vbt_B1_day2,2022.2.4,Win32,60.39376736,55678,,,,,,,,,,,,,,,,,,,,,,,,,,,down,0,3.9973,,0.607407464,-0.113888917,1,0,0,15.1196,0,101,101,189,1,aanraden,images/br_aanraden.png,images/cb_aanraden.png,0,,,,,,,,,,,,,,,,,,,,,,
,,,,,,55678,2023-08-12_20h22.43.372,vbt_B1_day2,2022.2.4,Win32,60.39376736,55678,,,,,,,,,,,,,,,,,,,,,,,,,,,down,0,10.9837,,0.607407464,-0.113888917,1,0,0,2.298,0,102,102,77,1,woede,images/br_woede.png,images/cb_woede.png,0,,,,,,,,,,,,,,,,,,,,,,
,,,,,,55678,2023-08-12_20h22.43.372,vbt_B1_day2,2022.2.4,Win32,60.39376736,55678,,,,,,,,,,,,,,,,,,,,,,,,,,,down,0,6.0654,,0.607407464,-0.113888917,1,0,0,3.2471,0,103,103,93,1,waarop,images/br_waarop.png,images/cb_waarop.png,0,,,,,,,,,,,,,,,,,,,,,,
,,,,,,55678,2023-08-12_20h22.43.372,vbt_B1_day2,2022.2.4,Win32,60.39376736,55678,,,,,,,,,,,,,,,,,,,,,,,,,,,down,0,34.4061,,0.607407464,-0.113888917,1,0,0,0.932,0,104,104,147,1,komisch,images/br_komisch.png,images/cb_komisch.png,0,,,,,,,,,,,,,,,,,,,,,,
,,,,,,55678,2023-08-12_20h22.43.372,vbt_B1_day2,2022.2.4,Win32,60.39376736,55678,,,,,,,,,,,,,,,,,,,,,,,,,,,down,0,6.3167,,0.607407464,-0.113888917,1,0,0,6.094,0,105,105,60,1,jasje,images/br_jasje.png,images/cb_jasje.png,0,,,,,,,,,,,,,,,,,,,,,,
,,,,,,55678,2023-08-12_20h22.43.372,vbt_B1_day2,2022.2.4,Win32,60.39376736,55678,,,,,,,,,,,,,,,,,,,,,,,,,,,down,0,35.5854,,0.607407464,-0.113888917,1,0,0,0.6657,0,106,106,133,1,seizoen,images/br_seizoen.png,images/cb_seizoen.png,0,,,,,,,,,,,,,,,,,,,,,,
,,,,,,55678,2023-08-12_20h22.43.372,vbt_B1_day2,2022.2.4,Win32,60.39376736,55678,,,,,,,,,,,,,,,,,,,,,,,,,,,down,0,16.9291,,0.607407464,-0.113888917,1,0,0,0.949,0,107,107,111,1,ticket,images/br_ticket.png,images/cb_ticket.png,0,,,,,,,,,,,,,,,,,,,,,,
,,,,,,55678,2023-08-12_20h22.43.372,vbt_B1_day2,2022.2.4,Win32,60.39376736,55678,,,,,,,,,,,,,,,,,,,,,,,,,,,down,0,7.1631,,0.607407464,-0.113888917,1,0,0,6.4773,0,108,108,70,1,ijdel,images/br_ijdel.png,images/cb_ijdel.png,0,,,,,,,,,,,,,,,,,,,,,,
,,,,,,55678,2023-08-12_20h22.43.372,vbt_B1_day2,2022.2.4,Win32,60.39376736,55678,,,,,,,,,,,,,,,,,,,,,,,,,,,down,0,6.1235,,0.607407464,-0.113888917,1,0,0,3.4127,0,109,109,150,1,gegeven,images/br_gegeven.png,images/cb_gegeven.png,0,,,,,,,,,,,,,,,,,,,,,,
,,,,,,55678,2023-08-12_20h22.43.372,vbt_B1_day2,2022.2.4,Win32,60.39376736,55678,,,,,,,,,,,,,,,,,,,,,,,,,,,down,0,3.5141,,0.607407464,-0.113888917,1,0,0,1.9482,0,110,110,62,1,knaap,images/br_knaap.png,images/cb_knaap.png,0,,,,,,,,,,,,,,,,,,,,,,
,,,,,,55678,2023-08-12_20h22.43.372,vbt_B1_day2,2022.2.4,Win32,60.39376736,55678,,,,,,,,,,,,,,,,,,,,,,,,,,,down,0,7.6773,,0.607407464,-0.113888917,1,0,0,1.3325,0,111,111,78,1,leren,images/br_leren.png,images/cb_leren.png,0,,,,,,,,,,,,,,,,,,,,,,
,,,,,,55678,2023-08-12_20h22.43.372,vbt_B1_day2,2022.2.4,Win32,60.39376736,55678,,,,,,,,,,,,,,,,,,,,,,,,,,,down,0,11.008,,0.607407464,-0.113888917,1,0,0,1.115,0,112,112,83,1,mening,images/br_mening.png,images/cb_mening.png,0,,,,,,,,,,,,,,,,,,,,,,
,,,,,,55678,2023-08-12_20h22.43.372,vbt_B1_day2,2022.2.4,Win32,60.39376736,55678,,,,,,,,,,,,,,,,,,,,,,,,,,,down,0,7.7841,,0.607407464,-0.113888917,1,0,0,6.4312,0,113,113,45,1,piste,images/br_piste.png,images/cb_piste.png,0,,,,,,,,,,,,,,,,,,,,,,
,,,,,,55678,2023-08-12_20h22.43.372,vbt_B1_day2,2022.2.4,Win32,60.39376736,55678,,,,,,,,,,,,,,,,,,,,,,,,,,,down,0,3.38,,0.607407464,-0.113888917,1,0,0,5.9239,0,114,114,37,1,mijn,images/br_mijn.png,images/cb_mijn.png,0,,,,,,,,,,,,,,,,,,,,,,
,,,,,,55678,2023-08-12_20h22.43.372,vbt_B1_day2,2022.2.4,Win32,60.39376736,55678,,,,,,,,,,,,,,,,,,,,,,,,,,,down,0,10.71,,0.607407464,-0.113888917,1,0,0,0.749,0,115,115,129,1,verhaal,images/br_verhaal.png,images/cb_verhaal.png,0,,,,,,,,,,,,,,,,,,,,,,
,,,,,,55678,2023-08-12_20h22.43.372,vbt_B1_day2,2022.2.4,Win32,60.39376736,55678,,,,,,,,,,,,,,,,,,,,,,,,,,,down,0,6.238,,0.607407464,-0.113888917,1,0,0,7.032,0,116,116,108,1,excuus,images/br_excuus.png,images/cb_excuus.png,0,,,,,,,,,,,,,,,,,,,,,,
,,,,,,55678,2023-08-12_20h22.43.372,vbt_B1_day2,2022.2.4,Win32,60.39376736,55678,,,,,,,,,,,,,,,,,,,,,,,,,,,down,0,3.1142,,0.607407464,-0.113888917,1,0,0,2.9308,0,117,117,46,1,jagen,images/br_jagen.png,images/cb_jagen.png,0,,,,,,,,,,,,,,,,,,,,,,
,,,,,,55678,2023-08-12_20h22.43.372,vbt_B1_day2,2022.2.4,Win32,60.39376736,55678,,,,,,,,,,,,,,,,,,,,,,,,,,,down,0,10.8749,,0.607407464,-0.113888917,1,0,0,4.2337,0,118,118,135,1,gedicht,images/br_gedicht.png,images/cb_gedicht.png,0,,,,,,,,,,,,,,,,,,,,,,
,,,,,,55678,2023-08-12_20h22.43.372,vbt_B1_day2,2022.2.4,Win32,60.39376736,55678,,,,,,,,,,,,,,,,,,,,,,,,,,,down,0,3.2149,,0.607407464,-0.113888917,1,0,0,4.5778,0,119,119,5,1,blad,images/br_blad.png,images/cb_blad.png,0,,,,,,,,,,,,,,,,,,,,,,
,,,,,,55678,2023-08-12_20h22.43.372,vbt_B1_day2,2022.2.4,Win32,60.39376736,55678,,,,,,,,,,,,,,,,,,,,,,,,,,,down,0,2.0655,,0.607407464,-0.113888917,1,0,0,2.8643,0,120,120,9,1,hier,images/br_hier.png,images/cb_hier.png,0,,,,,,,,,,,,,,,,,,,,,,
,,,,,,55678,2023-08-12_20h22.43.372,vbt_B1_day2,2022.2.4,Win32,60.39376736,55678,,,,,,,,,,,,,,,,,,,,,,,,,,,down,0,34.4687,,0.607407464,-0.113888917,1,0,0,0.8118,0,121,121,160,1,daarheen,images/br_daarheen.png,images/cb_daarheen.png,0,,,,,,,,,,,,,,,,,,,,,,
,,,,,,55678,2023-08-12_20h22.43.372,vbt_B1_day2,2022.2.4,Win32,60.39376736,55678,,,,,,,,,,,,,,,,,,,,,,,,,,,down,0,2.6814,,0.607407464,-0.113888917,1,0,0,3.109,0,122,122,170,1,schatten,images/br_schatten.png,images/cb_schatten.png,0,,,,,,,,,,,,,,,,,,,,,,
,,,,,,55678,2023-08-12_20h22.43.372,vbt_B1_day2,2022.2.4,Win32,60.39376736,55678,,,,,,,,,,,,,,,,,,,,,,,,,,,down,0,7.4352,,0.607407464,-0.113888917,1,0,0,1.6025,0,123,123,139,1,stiekem,images/br_stiekem.png,images/cb_stiekem.png,1,stiekem,,,,,,,,,,,,,,,,,,,,,
,,,,,,55678,2023-08-12_20h22.43.372,vbt_B1_day2,2022.2.4,Win32,60.39376736,55678,,,,,,,,,,,,,,,,,,,,,,,,,,,down,0,6.3133,,0.607407464,-0.113888917,1,0,0,3.2177,0,124,124,65,1,parel,images/br_parel.png,images/cb_parel.png,0,,,,,,,,,,,,,,,,,,,,,,
,,,,,,55678,2023-08-12_20h22.43.372,vbt_B1_day2,2022.2.4,Win32,60.39376736,55678,,,,,,,,,,,,,,,,,,,,,,,,,,,down,0,7.7142,,0.607407464,-0.113888917,1,0,0,0.7991,0,125,125,1,1,zaal,images/br_zaal.png,images/cb_zaal.png,0,,,,,,,,,,,,,,,,,,,,,,
,,,,,,55678,2023-08-12_20h22.43.372,vbt_B1_day2,2022.2.4,Win32,60.39376736,55678,,,,,,,,,,,,,,,,,,,,,,,,,,,down,0,4.7376,,0.607407464,-0.113888917,1,0,0,6.0981,0,126,126,125,1,aanzien,images/br_aanzien.png,images/cb_aanzien.png,0,,,,,,,,,,,,,,,,,,,,,,
,,,,,,55678,2023-08-12_20h22.43.372,vbt_B1_day2,2022.2.4,Win32,60.39376736,55678,,,,,,,,,,,,,,,,,,,,,,,,,,,down,0,2.9154,,0.607407464,-0.113888917,1,0,0,2.8472,0,127,127,116,1,besmet,images/br_besmet.png,images/cb_besmet.png,0,,,,,,,,,,,,,,,,,,,,,,
,,,,,,55678,2023-08-12_20h22.43.372,vbt_B1_day2,2022.2.4,Win32,60.39376736,55678,,,,,,,,,,,,,,,,,,,,,,,,,,,down,0,2.2985,,0.607407464,-0.113888917,1,0,0,2.414,0,128,128,72,1,strak,images/br_strak.png,images/cb_strak.png,0,,,,,,,,,,,,,,,,,,,,,,
,,,,,,55678,2023-08-12_20h22.43.372,vbt_B1_day2,2022.2.4,Win32,60.39376736,55678,,,,,,,,,,,,,,,,,,,,,,,,,,,down,0,2.2987,,0.607407464,-0.113888917,1,0,0,4.0503,0,129,129,166,1,strikken,images/br_strikken.png,images/cb_strikken.png,0,,,,,,,,,,,,,,,,,,,,,,
,,,,,,55678,2023-08-12_20h22.43.372,vbt_B1_day2,2022.2.4,Win32,60.39376736,55678,,,,,,,,,,,,,,,,,,,,,,,,,,,down,0,1.61,,0.607407464,-0.113888917,1,0,0,2.8178,0,130,130,103,1,joggen,images/br_joggen.png,images/cb_joggen.png,0,,,,,,,,,,,,,,,,,,,,,,
,,,,,,55678,2023-08-12_20h22.43.372,vbt_B1_day2,2022.2.4,Win32,60.39376736,55678,,,,,,,,,,,,,,,,,,,,,,,,,,,down,0,4.2745,,0.607407464,-0.113888917,1,0,0,0.887,0,131,131,17,1,taal,images/br_taal.png,images/cb_taal.png,1,taal,,,,,,,,,,,,,,,,,,,,,
,,,,,,55678,2023-08-12_20h22.43.372,vbt_B1_day2,2022.2.4,Win32,60.39376736,55678,,,,,,,,,,,,,,,,,,,,,,,,,,,down,0,4.5272,,0.607407464,-0.113888917,1,0,0,1.2154,0,132,132,126,1,kasteel,images/br_kasteel.png,images/cb_kasteel.png,0,,,,,,,,,,,,,,,,,,,,,,
,,,,,,55678,2023-08-12_20h22.43.372,vbt_B1_day2,2022.2.4,Win32,60.39376736,55678,,,,,,,,,,,,,,,,,,,,,,,,,,,down,0,4.8311,,0.607407464,-0.113888917,1,0,0,7.4474,0,133,133,168,1,bisschop,images/br_bisschop.png,images/cb_bisschop.png,0,,,,,,,,,,,,,,,,,,,,,,
,,,,,,55678,2023-08-12_20h22.43.372,vbt_B1_day2,2022.2.4,Win32,60.39376736,55678,,,,,,,,,,,,,,,,,,,,,,,,,,,down,0,4.6753,,0.607407464,-0.113888917,1,0,0,8.4049,0,134,134,67,1,zwart,images/br_zwart.png,images/cb_zwart.png,0,,,,,,,,,,,,,,,,,,,,,,
,,,,,,55678,2023-08-12_20h22.43.372,vbt_B1_day2,2022.2.4,Win32,60.39376736,55678,,,,,,,,,,,,,,,,,,,,,,,,,,,down,0,3.1994,,0.607407464,-0.113888917,1,0,0,4.3655,0,135,135,104,1,zweven,images/br_zweven.png,images/cb_zweven.png,0,,,,,,,,,,,,,,,,,,,,,,
,,,,,,55678,2023-08-12_20h22.43.372,vbt_B1_day2,2022.2.4,Win32,60.39376736,55678,,,,,,,,,,,,,,,,,,,,,,,,,,,down,0,6.5859,,0.607407464,-0.113888917,1,0,0,4.2668,0,136,136,52,1,wagon,images/br_wagon.png,images/cb_wagon.png,0,,,,,,,,,,,,,,,,,,,,,,
,,,,,,55678,2023-08-12_20h22.43.372,vbt_B1_day2,2022.2.4,Win32,60.39376736,55678,,,,,,,,,,,,,,,,,,,,,,,,,,,down,0,14.9536,,0.607407464,-0.113888917,1,0,0,1.7101,0,137,137,121,1,twijfel,images/br_twijfel.png,images/cb_twijfel.png,0,,,,,,,,,,,,,,,,,,,,,,
,,,,,,55678,2023-08-12_20h22.43.372,vbt_B1_day2,2022.2.4,Win32,60.39376736,55678,,,,,,,,,,,,,,,,,,,,,,,,,,,down,0,10.1916,,0.607407464,-0.113888917,1,0,0,1.0155,0,138,138,100,1,geduld,images/br_geduld.png,images/cb_geduld.png,0,,,,,,,,,,,,,,,,,,,,,,
,,,,,,55678,2023-08-12_20h22.43.372,vbt_B1_day2,2022.2.4,Win32,60.39376736,55678,,,,,,,,,,,,,,,,,,,,,,,,,,,down,0,2.0415,,0.607407464,-0.113888917,1,0,0,2.3687,0,139,139,13,1,kaal,images/br_kaal.png,images/cb_kaal.png,0,,,,,,,,,,,,,,,,,,,,,,
,,,,,,55678,2023-08-12_20h22.43.372,vbt_B1_day2,2022.2.4,Win32,60.39376736,55678,,,,,,,,,,,,,,,,,,,,,,,,,,,down,0,10.5683,,0.607407464,-0.113888917,1,0,0,1.6481,0,140,140,3,1,mand,images/br_mand.png,images/cb_mand.png,0,,,,,,,,,,,,,,,,,,,,,,
,,,,,,55678,2023-08-12_20h22.43.372,vbt_B1_day2,2022.2.4,Win32,60.39376736,55678,,,,,,,,,,,,,,,,,,,,,,,,,,,down,0,29.1073,,0.607407464,-0.113888917,1,0,0,2.0479,0,141,141,117,1,kennis,images/br_kennis.png,images/cb_kennis.png,0,,,,,,,,,,,,,,,,,,,,,,
,,,,,,55678,2023-08-12_20h22.43.372,vbt_B1_day2,2022.2.4,Win32,60.39376736,55678,,,,,,,,,,,,,,,,,,,,,,,,,,,down,0,3.1174,,0.607407464,-0.113888917,1,0,0,1.9314,0,142,142,188,1,strekken,images/br_strekken.png,images/cb_strekken.png,0,,,,,,,,,,,,,,,,,,,,,,
,,,,,,55678,2023-08-12_20h22.43.372,vbt_B1_day2,2022.2.4,Win32,60.39376736,55678,,,,,,,,,,,,,,,,,,,,,,,,,,,down,0,18.2748,,0.607407464,-0.113888917,1,0,0,1.0155,0,143,143,61,1,groen,images/br_groen.png,images/cb_groen.png,0,,,,,,,,,,,,,,,,,,,,,,
,,,,,,55678,2023-08-12_20h22.43.372,vbt_B1_day2,2022.2.4,Win32,60.39376736,55678,,,,,,,,,,,,,,,,,,,,,,,,,,,down,0,3.2644,,0.607407464,-0.113888917,1,0,0,2.6098,0,144,144,7,1,geld,images/br_geld.png,images/cb_geld.png,0,,,,,,,,,,,,,,,,,,,,,,
,,,,,,55678,2023-08-12_20h22.43.372,vbt_B1_day2,2022.2.4,Win32,60.39376736,55678,,,,,,,,,,,,,,,,,,,,,,,,,,,down,0,9.5419,,0.607407464,-0.113888917,1,0,0,0.5655,0,145,145,19,1,geit,images/br_geit.png,images/cb_geit.png,1,geit,,,,,,,,,,,,,,,,,,,,,
,,,,,,55678,2023-08-12_20h22.43.372,vbt_B1_day2,2022.2.4,Win32,60.39376736,55678,,,,,,,,,,,,,,,,,,,,,,,,,,,down,0,4.8577,,0.607407464,-0.113888917,1,0,0,3.3636,0,146,146,122,1,waarvan,images/br_waarvan.png,images/cb_waarvan.png,0,,,,,,,,,,,,,,,,,,,,,,
,,,,,,55678,2023-08-12_20h22.43.372,vbt_B1_day2,2022.2.4,Win32,60.39376736,55678,,,,,,,,,,,,,,,,,,,,,,,,,,,down,0,7.451,,0.607407464,-0.113888917,1,0,0,0.5996,0,147,147,59,1,kring,images/br_kring.png,images/cb_kring.png,1,kring,,,,,,,,,,,,,,,,,,,,,
,,,,,,55678,2023-08-12_20h22.43.372,vbt_B1_day2,2022.2.4,Win32,60.39376736,55678,,,,,,,,,,,,,,,,,,,,,,,,,,,down,0,4.6641,,0.607407464,-0.113888917,1,0,0,17.151,0,148,148,156,1,rechten,images/br_rechten.png,images/cb_rechten.png,0,,,,,,,,,,,,,,,,,,,,,,
,,,,,,55678,2023-08-12_20h22.43.372,vbt_B1_day2,2022.2.4,Win32,60.39376736,55678,,,,,,,,,,,,,,,,,,,,,,,,,,,down,0,0.5339,,0.607407464,-0.113888917,1,0,0,7.0892,0,149,149,12,1,kust,images/br_kust.png,images/cb_kust.png,0,,,,,,,,,,,,,,,,,,,,,,
,,,,,,55678,2023-08-12_20h22.43.372,vbt_B1_day2,2022.2.4,Win32,60.39376736,55678,,,,,,,,,,,,,,,,,,,,,,,,,,,down,0,1.3296,,0.607407464,-0.113888917,1,0,0,2.1138,0,150,150,32,1,palm,images/br_palm.png,images/cb_palm.png,0,,,,,,,,,,,,,,,,,,,,,,
,,,,,,55678,2023-08-12_20h22.43.372,vbt_B1_day2,2022.2.4,Win32,60.39376736,55678,,,,,,,,,,,,,,,,,,,,,,,,,,,down,0,6.2195,,0.607407464,-0.113888917,1,0,0,2.6347,0,151,151,73,1,volop,images/br_volop.png,images/cb_volop.png,0,,,,,,,,,,,,,,,,,,,,,,
,,,,,,55678,2023-08-12_20h22.43.372,vbt_B1_day2,2022.2.4,Win32,60.39376736,55678,,,,,,,,,,,,,,,,,,,,,,,,,,,down,0,9.6369,,0.607407464,-0.113888917,1,0,0,2.1146,0,152,152,34,1,vorm,images/br_vorm.png,images/cb_vorm.png,0,,,,,,,,,,,,,,,,,,,,,,
,,,,,,55678,2023-08-12_20h22.43.372,vbt_B1_day2,2022.2.4,Win32,60.39376736,55678,,,,,,,,,,,,,,,,,,,,,,,,,,,down,0,8.794,,0.607407464,-0.113888917,1,0,0,2.4479,0,153,153,136,1,waarbij,images/br_waarbij.png,images/cb_waarbij.png,1,waarbij,,,,,,,,,,,,,,,,,,,,,
,,,,,,55678,2023-08-12_20h22.43.372,vbt_B1_day2,2022.2.4,Win32,60.39376736,55678,,,,,,,,,,,,,,,,,,,,,,,,,,,down,0,10.9073,,0.607407464,-0.113888917,1,0,0,1.5984,0,154,154,153,1,vervoer,images/br_vervoer.png,images/cb_vervoer.png,0,,,,,,,,,,,,,,,,,,,,,,
,,,,,,55678,2023-08-12_20h22.43.372,vbt_B1_day2,2022.2.4,Win32,60.39376736,55678,,,,,,,,,,,,,,,,,,,,,,,,,,,down,0,5.1561,,0.607407464,-0.113888917,1,0,0,4.9457,0,155,155,80,1,kanjer,images/br_kanjer.png,images/cb_kanjer.png,0,,,,,,,,,,,,,,,,,,,,,,
,,,,,,55678,2023-08-12_20h22.43.372,vbt_B1_day2,2022.2.4,Win32,60.39376736,55678,,,,,,,,,,,,,,,,,,,,,,,,,,,down,0,2.3537,,0.607407464,-0.113888917,1,0,0,2.3808,0,156,156,28,1,stal,images/br_stal.png,images/cb_stal.png,0,,,,,,,,,,,,,,,,,,,,,,
,,,,,,55678,2023-08-12_20h22.43.372,vbt_B1_day2,2022.2.4,Win32,60.39376736,55678,,,,,,,,,,,,,,,,,,,,,,,,,,,down,0,0.9885,,0.607407464,-0.113888917,1,0,0,3.7626,0,157,157,36,1,vuur,images/br_vuur.png,images/cb_vuur.png,0,,,,,,,,,,,,,,,,,,,,,,
,,,,,,55678,2023-08-12_20h22.43.372,vbt_B1_day2,2022.2.4,Win32,60.39376736,55678,,,,,,,,,,,,,,,,,,,,,,,,,,,down,0,4.1671,,0.607407464,-0.113888917,1,0,0,5.9112,0,158,158,145,1,invloed,images/br_invloed.png,images/cb_invloed.png,0,,,,,,,,,,,,,,,,,,,,,,
,,,,,,55678,2023-08-12_20h22.43.372,vbt_B1_day2,2022.2.4,Win32,60.39376736,55678,,,,,,,,,,,,,,,,,,,,,,,,,,,down,0,1.7107,,0.607407464,-0.113888917,1,0,0,2.9307,0,159,159,132,1,grappen,images/br_grappen.png,images/cb_grappen.png,0,,,,,,,,,,,,,,,,,,,,,,
,,,,,,55678,2023-08-12_20h22.43.372,vbt_B1_day2,2022.2.4,Win32,60.39376736,55678,,,,,,,,,,,,,,,,,,,,,,,,,,,down,0,7.0614,,0.607407464,-0.113888917,1,0,0,2.0979,0,160,160,144,1,eetlust,images/br_eetlust.png,images/cb_eetlust.png,0,,,,,,,,,,,,,,,,,,,,,,
,,,,,,55678,2023-08-12_20h22.43.372,vbt_B1_day2,2022.2.4,Win32,60.39376736,55678,,,,,,,,,,,,,,,,,,,,,,,,,,,down,0,6.4799,,0.607407464,-0.113888917,1,0,0,2.3477,0,161,161,167,1,eenhoorn,images/br_eenhoorn.png,images/cb_eenhoorn.png,0,,,,,,,,,,,,,,,,,,,,,,
,,,,,,55678,2023-08-12_20h22.43.372,vbt_B1_day2,2022.2.4,Win32,60.39376736,55678,,,,,,,,,,,,,,,,,,,,,,,,,,,down,0,2.5426,,0.607407464,-0.113888917,1,0,0,4.5959,0,162,162,163,1,schuilen,images/br_schuilen.png,images/cb_schuilen.png,0,,,,,,,,,,,,,,,,,,,,,,
,,,,,,55678,2023-08-12_20h22.43.372,vbt_B1_day2,2022.2.4,Win32,60.39376736,55678,,,,,,,,,,,,,,,,,,,,,,,,,,,down,0,5.5367,,0.607407464,-0.113888917,1,0,0,1.0991,0,163,163,31,1,poes,images/br_poes.png,images/cb_poes.png,0,,,,,,,,,,,,,,,,,,,,,,
,,,,,,55678,2023-08-12_20h22.43.372,vbt_B1_day2,2022.2.4,Win32,60.39376736,55678,,,,,,,,,,,,,,,,,,,,,,,,,,,down,0,0.9177,,0.607407464,-0.113888917,1,0,0,0.766,0,164,164,2,1,jaar,images/br_jaar.png,images/cb_jaar.png,0,,,,,,,,,,,,,,,,,,,,,,
,,,,,,55678,2023-08-12_20h22.43.372,vbt_B1_day2,2022.2.4,Win32,60.39376736,55678,,,,,,,,,,,,,,,,,,,,,,,,,,,down,0,5.3158,,0.607407464,-0.113888917,1,0,0,1.4317,0,165,165,152,1,afnemen,images/br_afnemen.png,images/cb_afnemen.png,0,,,,,,,,,,,,,,,,,,,,,,
,,,,,,55678,2023-08-12_20h22.43.372,vbt_B1_day2,2022.2.4,Win32,60.39376736,55678,,,,,,,,,,,,,,,,,,,,,,,,,,,down,0,3.8178,,0.607407464,-0.113888917,1,0,0,1.6985,0,166,166,195,1,middelen,images/br_middelen.png,images/cb_middelen.png,0,,,,,,,,,,,,,,,,,,,,,,
,,,,,,55678,2023-08-12_20h22.43.372,vbt_B1_day2,2022.2.4,Win32,60.39376736,55678,,,,,,,,,,,,,,,,,,,,,,,,,,,down,0,10.8246,,0.607407464,-0.113888917,1,0,0,1.6984,0,167,167,138,1,akkoord,images/br_akkoord.png,images/cb_akkoord.png,1,akkoord,,,,,,,,,,,,,,,,,,,,,
,,,,,,55678,2023-08-12_20h22.43.372,vbt_B1_day2,2022.2.4,Win32,60.39376736,55678,,,,,,,,,,,,,,,,,,,,,,,,,,,down,0,3.6221,,0.607407464,-0.113888917,1,0,0,3.5135,0,168,168,171,1,aarzelen,images/br_aarzelen.png,images/cb_aarzelen.png,0,,,,,,,,,,,,,,,,,,,,,,
,,,,,,55678,2023-08-12_20h22.43.372,vbt_B1_day2,2022.2.4,Win32,60.39376736,55678,,,,,,,,,,,,,,,,,,,,,,,,,,,down,0,3.582,,0.607407464,-0.113888917,1,0,0,3.1139,0,169,169,66,1,lever,images/br_lever.png,images/cb_lever.png,0,,,,,,,,,,,,,,,,,,,,,,
,,,,,,55678,2023-08-12_20h22.43.372,vbt_B1_day2,2022.2.4,Win32,60.39376736,55678,,,,,,,,,,,,,,,,,,,,,,,,,,,down,0,1.588,,0.607407464,-0.113888917,1,0,0,2.0148,0,170,170,68,1,schat,images/br_schat.png,images/cb_schat.png,0,,,,,,,,,,,,,,,,,,,,,,
,,,,,,55678,2023-08-12_20h22.43.372,vbt_B1_day2,2022.2.4,Win32,60.39376736,55678,,,,,,,,,,,,,,,,,,,,,,,,,,,down,0,3.0534,,0.607407464,-0.113888917,1,0,0,4.7794,0,171,171,43,1,klauw,images/br_klauw.png,images/cb_klauw.png,0,,,,,,,,,,,,,,,,,,,,,,
,,,,,,55678,2023-08-12_20h22.43.372,vbt_B1_day2,2022.2.4,Win32,60.39376736,55678,,,,,,,,,,,,,,,,,,,,,,,,,,,down,0,4.1883,,0.607407464,-0.113888917,1,0,0,3.9964,0,172,172,165,1,feestdag,images/br_feestdag.png,images/cb_feestdag.png,0,,,,,,,,,,,,,,,,,,,,,,
,,,,,,55678,2023-08-12_20h22.43.372,vbt_B1_day2,2022.2.4,Win32,60.39376736,55678,,,,,,,,,,,,,,,,,,,,,,,,,,,down,0,7.2451,,0.607407464,-0.113888917,1,0,0,1.5652,0,173,173,176,1,techniek,images/br_techniek.png,images/cb_techniek.png,1,techniek,,,,,,,,,,,,,,,,,,,,,
,,,,,,55678,2023-08-12_20h22.43.372,vbt_B1_day2,2022.2.4,Win32,60.39376736,55678,,,,,,,,,,,,,,,,,,,,,,,,,,,down,0,3.7072,,0.607407464,-0.113888917,1,0,0,19.7488,0,174,174,119,1,liefje,images/br_liefje.png,images/cb_liefje.png,0,,,,,,,,,,,,,,,,,,,,,,
,,,,,,55678,2023-08-12_20h22.43.372,vbt_B1_day2,2022.2.4,Win32,60.39376736,55678,,,,,,,,,,,,,,,,,,,,,,,,,,,down,0,2.1156,,0.607407464,-0.113888917,1,0,0,1.8648,0,175,175,113,1,koppen,images/br_koppen.png,images/cb_koppen.png,0,,,,,,,,,,,,,,,,,,,,,,
,,,,,,55678,2023-08-12_20h22.43.372,vbt_B1_day2,2022.2.4,Win32,60.39376736,55678,,,,,,,,,,,,,,,,,,,,,,,,,,,down,0,1.203,,0.607407464,-0.113888917,1,0,0,0.9491,0,176,176,10,1,leek,images/br_leek.png,images/cb_leek.png,0,,,,,,,,,,,,,,,,,,,,,,
,,,,,,55678,2023-08-12_20h22.43.372,vbt_B1_day2,2022.2.4,Win32,60.39376736,55678,,,,,,,,,,,,,,,,,,,,,,,,,,,down,0,20.2524,,0.607407464,-0.113888917,1,0,0,1.0661,0,177,177,99,1,koffie,images/br_koffie.png,images/cb_koffie.png,1,koffie,,,,,,,,,,,,,,,,,,,,,
,,,,,,55678,2023-08-12_20h22.43.372,vbt_B1_day2,2022.2.4,Win32,60.39376736,55678,,,,,,,,,,,,,,,,,,,,,,,,,,,down,0,7.0308,,0.607407464,-0.113888917,1,0,0,22.1465,0,178,178,115,1,kleren,images/br_kleren.png,images/cb_kleren.png,0,,,,,,,,,,,,,,,,,,,,,,
,,,,,,55678,2023-08-12_20h22.43.372,vbt_B1_day2,2022.2.4,Win32,60.39376736,55678,,,,,,,,,,,,,,,,,,,,,,,,,,,down,0,4.7549,,0.607407464,-0.113888917,1,0,0,1.1658,0,179,179,20,1,site,images/br_site.png,images/cb_site.png,0,,,,,,,,,,,,,,,,,,,,,,
,,,,,,55678,2023-08-12_20h22.43.372,vbt_B1_day2,2022.2.4,Win32,60.39376736,55678,,,,,,,,,,,,,,,,,,,,,,,,,,,down,0,8.4935,,0.607407464,-0.113888917,1,0,0,1.3484,0,180,180,178,1,huisdier,images/br_huisdier.png,images/cb_huisdier.png,1,huisdier,,,,,,,,,,,,,,,,,,,,,
,,,,,,55678,2023-08-12_20h22.43.372,vbt_B1_day2,2022.2.4,Win32,60.39376736,55678,,,,,,,,,,,,,,,,,,,,,,,,,,,down,0,8.895,,0.607407464,-0.113888917,1,0,0,1.3154,0,181,181,137,1,trekker,images/br_trekker.png,images/cb_trekker.png,1,trekker,,,,,,,,,,,,,,,,,,,,,
,,,,,,55678,2023-08-12_20h22.43.372,vbt_B1_day2,2022.2.4,Win32,60.39376736,55678,,,,,,,,,,,,,,,,,,,,,,,,,,,down,0,3.6156,,0.607407464,-0.113888917,1,0,0,1.2155,0,182,182,63,1,flirt,images/br_flirt.png,images/cb_flirt.png,0,,,,,,,,,,,,,,,,,,,,,,
,,,,,,55678,2023-08-12_20h22.43.372,vbt_B1_day2,2022.2.4,Win32,60.39376736,55678,,,,,,,,,,,,,,,,,,,,,,,,,,,down,0,2.1001,,0.607407464,-0.113888917,1,0,0,1.1489,0,183,183,49,1,laken,images/br_laken.png,images/cb_laken.png,0,,,,,,,,,,,,,,,,,,,,,,
,,,,,,55678,2023-08-12_20h22.43.372,vbt_B1_day2,2022.2.4,Win32,60.39376736,55678,,,,,,,,,,,,,,,,,,,,,,,,,,,down,0,6.0122,,0.607407464,-0.113888917,1,0,0,1.0158,0,184,184,58,1,tekst,images/br_tekst.png,images/cb_tekst.png,1,tekst,,,,,,,,,,,,,,,,,,,,,
,,,,,,55678,2023-08-12_20h22.43.372,vbt_B1_day2,2022.2.4,Win32,60.39376736,55678,,,,,,,,,,,,,,,,,,,,,,,,,,,down,0,1.7348,,0.607407464,-0.113888917,1,0,0,1.6317,0,185,185,141,1,knielen,images/br_knielen.png,images/cb_knielen.png,0,,,,,,,,,,,,,,,,,,,,,,
,,,,,,55678,2023-08-12_20h22.43.372,vbt_B1_day2,2022.2.4,Win32,60.39376736,55678,,,,,,,,,,,,,,,,,,,,,,,,,,,down,0,2.4245,,0.607407464,-0.113888917,1,0,0,0.9158,0,186,186,101,1,staren,images/br_staren.png,images/cb_staren.png,0,,,,,,,,,,,,,,,,,,,,,,
,,,,,,55678,2023-08-12_20h22.43.372,vbt_B1_day2,2022.2.4,Win32,60.39376736,55678,,,,,,,,,,,,,,,,,,,,,,,,,,,down,0,5.2473,,0.607407464,-0.113888917,1,0,0,0.9491,0,187,187,57,1,steek,images/br_steek.png,images/cb_steek.png,1,steek,,,,,,,,,,,,,,,,,,,,,
,,,,,,55678,2023-08-12_20h22.43.372,vbt_B1_day2,2022.2.4,Win32,60.39376736,55678,,,,,,,,,,,,,,,,,,,,,,,,,,,down,0,2.6054,,0.607407464,-0.113888917,1,0,0,1.2826,0,188,188,151,1,aanzoek,images/br_aanzoek.png,images/cb_aanzoek.png,0,,,,,,,,,,,,,,,,,,,,,,
,,,,,,55678,2023-08-12_20h22.43.372,vbt_B1_day2,2022.2.4,Win32,60.39376736,55678,,,,,,,,,,,,,,,,,,,,,,,,,,,down,0,9.4455,,0.607407464,-0.113888917,1,0,0,1.5486,0,189,189,97,1,loyaal,images/br_loyaal.png,images/cb_loyaal.png,1,loyaal,,,,,,,,,,,,,,,,,,,,,
,,,,,,55678,2023-08-12_20h22.43.372,vbt_B1_day2,2022.2.4,Win32,60.39376736,55678,,,,,,,,,,,,,,,,,,,,,,,,,,,down,0,6.4599,,0.607407464,-0.113888917,1,0,0,2.897,0,190,190,79,1,nodig,images/br_nodig.png,images/cb_nodig.png,0,,,,,,,,,,,,,,,,,,,,,,
,,,,,,55678,2023-08-12_20h22.43.372,vbt_B1_day2,2022.2.4,Win32,60.39376736,55678,,,,,,,,,,,,,,,,,,,,,,,,,,,down,0,3.4895,,0.607407464,-0.113888917,1,0,0,4.2463,0,191,191,54,1,gebit,images/br_gebit.png,images/cb_gebit.png,0,,,,,,,,,,,,,,,,,,,,,,
,,,,,,55678,2023-08-12_20h22.43.372,vbt_B1_day2,2022.2.4,Win32,60.39376736,55678,,,,,,,,,,,,,,,,,,,,,,,,,,,down,0,4.1186,,0.607407464,-0.113888917,1,0,0,3.8131,0,192,192,192,1,schaamte,images/br_schaamte.png,images/cb_schaamte.png,0,,,,,,,,,,,,,,,,,,,,,,
,,,,,,55678,2023-08-12_20h22.43.372,vbt_B1_day2,2022.2.4,Win32,60.39376736,55678,,,,,,,,,,,,,,,,,,,,,,,,,,,down,0,1.3843,,0.607407464,-0.113888917,1,0,0,0.7493,0,193,193,21,1,mist,images/br_mist.png,images/cb_mist.png,0,,,,,,,,,,,,,,,,,,,,,,
,,,,,,55678,2023-08-12_20h22.43.372,vbt_B1_day2,2022.2.4,Win32,60.39376736,55678,,,,,,,,,,,,,,,,,,,,,,,,,,,down,0,5.3912,,0.607407464,-0.113888917,1,0,0,1.032,0,194,194,146,1,opkomen,images/br_opkomen.png,images/cb_opkomen.png,0,,,,,,,,,,,,,,,,,,,,,,
,,,,,,55678,2023-08-12_20h22.43.372,vbt_B1_day2,2022.2.4,Win32,60.39376736,55678,,,,,,,,,,,,,,,,,,,,,,,,,,,down,0,1.4069,,0.607407464,-0.113888917,1,0,0,0.766,0,195,195,69,1,waken,images/br_waken.png,images/cb_waken.png,0,,,,,,,,,,,,,,,,,,,,,,
,,,,,,55678,2023-08-12_20h22.43.372,vbt_B1_day2,2022.2.4,Win32,60.39376736,55678,,,,,,,,,,,,,,,,,,,,,,,,,,,down,0,3.0664,,0.607407464,-0.113888917,1,0,0,0.7324,0,196,196,91,1,gezond,images/br_gezond.png,images/cb_gezond.png,0,,,,,,,,,,,,,,,,,,,,,,
,,,,,,55678,2023-08-12_20h22.43.372,vbt_B1_day2,2022.2.4,Win32,60.39376736,55678,,,,,,,,,,,,,,,,,,,,,,,,,,,down,0,0.334,,0.607407464,-0.113888917,1,0,0,0.5828,0,197,197,29,1,baas,images/br_baas.png,images/cb_baas.png,0,,,,,,,,,,,,,,,,,,,,,,
,,,,,,55678,2023-08-12_20h22.43.372,vbt_B1_day2,2022.2.4,Win32,60.39376736,55678,,,,,,,,,,,,,,,,,,,,,,,,,,,down,0,3.1772,,0.607407464,-0.113888917,1,0,0,0.5989,0,198,198,143,1,hechten,images/br_hechten.png,images/cb_hechten.png,0,,,,,,,,,,,,,,,,,,,,,,
,,,,,,55678,2023-08-12_20h22.43.372,vbt_B1_day2,2022.2.4,Win32,60.39376736,55678,,,,,,,,,,,,,,,,,,,,,,,,,,,down,0,2.6812,,0.607407464,-0.113888917,1,0,0,0.6162,0,199,199,76,1,afval,images/br_afval.png,images/cb_afval.png,0,,,,,,,,,,,,,,,,,,,,,,
,,,,,,55678,2023-08-12_20h22.43.372,vbt_B1_day2,2022.2.4,Win32,60.39376736,55678,,,,,,,,,,,,,,,,,,,,,,,,,,,,,,,,,,,,,,,,,,,,,,,0.607407464,-0.113888917,1,0,0,,,,,,,,,,,,,,,,
,,,,,,55678,2023-08-12_20h22.43.372,vbt_B1_day2,2022.2.4,Win32,60.39376736,55678,,,,,,,,,,,,,,,,,,,,,,,,,,,,,,,,,,,,,,,,,,,,,,,,,,,,0.641666695,-0.035185178,1,0,0,,,,,,,,,,,
,,,,,,55678,2023-08-12_20h22.43.372,vbt_B1_day2,2022.2.4,Win32,60.39376736,55678,,,,,,,,,,,,,,,,,,,,,,,,,,,,,,,,,,,,,,,,,,lokken,images/br_lokken.png,images/cb_lokken.png,,lokken,,,,,,,,,,,0.641666695,-0.035185178,1,0,0,lokken,0,0,0,8,1
,,,,,,55678,2023-08-12_20h22.43.372,vbt_B1_day2,2022.2.4,Win32,60.39376736,55678,,,,,,,,,,,,,,,,,,,,,,,,,,,,,,,,,,,,,,,,,,lijnen,images/br_lijnen.png,images/cb_lijnen.png,,lijnen,,,,,,,,,,,0.641666695,-0.035185178,1,0,0,lijnen,0,1,1,51,1
,,,,,,55678,2023-08-12_20h22.43.372,vbt_B1_day2,2022.2.4,Win32,60.39376736,55678,,,,,,,,,,,,,,,,,,,,,,,,,,,,,,,,,,,,,,,,,,sifferd,images/br_sifferd.png,images/cb_sifferd.png,,sifferd,,,,,,,,,,,0.641666695,-0.035185178,1,0,0,sifferd,0,2,2,32,1
,,,,,,55678,2023-08-12_20h22.43.372,vbt_B1_day2,2022.2.4,Win32,60.39376736,55678,,,,,,,,,,,,,,,,,,,,,,,,,,,,,,,,,,,,,,,,,,kijlen,images/br_kijlen.png,images/cb_kijlen.png,,kijlen,,,,,,,,,,,0.641666695,-0.035185178,1,0,0,kijlen,0,3,3,31,1
,,,,,,55678,2023-08-12_20h22.43.372,vbt_B1_day2,2022.2.4,Win32,60.39376736,55678,,,,,,,,,,,,,,,,,,,,,,,,,,,,,,,,,,,,,,,,,,woning,images/br_woning.png,images/cb_woning.png,,woning,,,,,,,,,,,0.641666695,-0.035185178,1,0,0,woning,0,4,4,10,1
,,,,,,55678,2023-08-12_20h22.43.372,vbt_B1_day2,2022.2.4,Win32,60.39376736,55678,,,,,,,,,,,,,,,,,,,,,,,,,,,,,,,,,,,,,,,,,,bereuwen,images/br_bereuwen.png,images/cb_bereuwen.png,,beremwen,,,,,,,,,,,0.641666695,-0.035185178,1,0,0,beremwen,0,5,5,39,1
,,,,,,55678,2023-08-12_20h22.43.372,vbt_B1_day2,2022.2.4,Win32,60.39376736,55678,,,,,,,,,,,,,,,,,,,,,,,,,,,,,,,,,,,,,,,,,,zegel,images/br_zegel.png,images/cb_zegel.png,,zegel,,,,,,,,,,,0.641666695,-0.035185178,1,0,0,zegel,0,6,6,46,1
,,,,,,55678,2023-08-12_20h22.43.372,vbt_B1_day2,2022.2.4,Win32,60.39376736,55678,,,,,,,,,,,,,,,,,,,,,,,,,,,,,,,,,,,,,,,,,,flits,images/br_flits.png,images/cb_flits.png,,flits,,,,,,,,,,,0.641666695,-0.035185178,1,0,0,flits,0,7,7,4,1
,,,,,,55678,2023-08-12_20h22.43.372,vbt_B1_day2,2022.2.4,Win32,60.39376736,55678,,,,,,,,,,,,,,,,,,,,,,,,,,,,,,,,,,,,,,,,,,dode,images/br_dode.png,images/cb_dode.png,,dode,,,,,,,,,,,0.641666695,-0.035185178,1,0,0,dode,0,8,8,41,1
,,,,,,55678,2023-08-12_20h22.43.372,vbt_B1_day2,2022.2.4,Win32,60.39376736,55678,,,,,,,,,,,,,,,,,,,,,,,,,,,,,,,,,,,,,,,,,,plannen,images/br_plannen.png,images/cb_plannen.png,,plannen,,,,,,,,,,,0.641666695,-0.035185178,1,0,0,plannen,0,9,9,55,1
,,,,,,55678,2023-08-12_20h22.43.372,vbt_B1_day2,2022.2.4,Win32,60.39376736,55678,,,,,,,,,,,,,,,,,,,,,,,,,,,,,,,,,,,,,,,,,,opdatten,images/br_opdatten.png,images/cb_opdatten.png,,opdatten,,,,,,,,,,,0.641666695,-0.035185178,1,0,0,opdatten,0,10,10,37,1
,,,,,,55678,2023-08-12_20h22.43.372,vbt_B1_day2,2022.2.4,Win32,60.39376736,55678,,,,,,,,,,,,,,,,,,,,,,,,,,,,,,,,,,,,,,,,,,goon,images/br_goon.png,images/cb_goon.png,,goon,,,,,,,,,,,0.641666695,-0.035185178,1,0,0,goon,0,11,11,23,1
,,,,,,55678,2023-08-12_20h22.43.372,vbt_B1_day2,2022.2.4,Win32,60.39376736,55678,,,,,,,,,,,,,,,,,,,,,,,,,,,,,,,,,,,,,,,,,,kabel,images/br_kabel.png,images/cb_kabel.png,,kabel,,,,,,,,,,,0.641666695,-0.035185178,1,0,0,kabel,0,12,12,7,1
,,,,,,55678,2023-08-12_20h22.43.372,vbt_B1_day2,2022.2.4,Win32,60.39376736,55678,,,,,,,,,,,,,,,,,,,,,,,,,,,,,,,,,,,,,,,,,,feestdag,images/br_feestdag.png,images/cb_feestdag.png,,feestdag,,,,,,,,,,,0.641666695,-0.035185178,1,0,0,feestdag,0,13,13,17,1
,,,,,,55678,2023-08-12_20h22.43.372,vbt_B1_day2,2022.2.4,Win32,60.39376736,55678,,,,,,,,,,,,,,,,,,,,,,,,,,,,,,,,,,,,,,,,,,kasteel,images/br_kasteel.png,images/cb_kasteel.png,,kasteel,,,,,,,,,,,0.641666695,-0.035185178,1,0,0,kasteel,0,14,14,14,1
,,,,,,55678,2023-08-12_20h22.43.372,vbt_B1_day2,2022.2.4,Win32,60.39376736,55678,,,,,,,,,,,,,,,,,,,,,,,,,,,,,,,,,,,,,,,,,,koorts,images/br_koorts.png,images/cb_koorts.png,,koorts,,,,,,,,,,,0.641666695,-0.035185178,1,0,0,koorts,0,15,15,50,1
,,,,,,55678,2023-08-12_20h22.43.372,vbt_B1_day2,2022.2.4,Win32,60.39376736,55678,,,,,,,,,,,,,,,,,,,,,,,,,,,,,,,,,,,,,,,,,,wijve,images/br_wijve.png,images/cb_wijve.png,,wijve,,,,,,,,,,,0.641666695,-0.035185178,1,0,0,wijve,0,16,16,27,1
,,,,,,55678,2023-08-12_20h22.43.372,vbt_B1_day2,2022.2.4,Win32,60.39376736,55678,,,,,,,,,,,,,,,,,,,,,,,,,,,,,,,,,,,,,,,,,,zwager,images/br_zwager.png,images/cb_zwager.png,,zwager,,,,,,,,,,,0.641666695,-0.035185178,1,0,0,zwager,0,17,17,49,1
,,,,,,55678,2023-08-12_20h22.43.372,vbt_B1_day2,2022.2.4,Win32,60.39376736,55678,,,,,,,,,,,,,,,,,,,,,,,,,,,,,,,,,,,,,,,,,,systeem,images/br_systeem.png,images/cb_systeem.png,,systeem,,,,,,,,,,,0.641666695,-0.035185178,1,0,0,systeem,0,18,18,54,1
,,,,,,55678,2023-08-12_20h22.43.372,vbt_B1_day2,2022.2.4,Win32,60.39376736,55678,,,,,,,,,,,,,,,,,,,,,,,,,,,,,,,,,,,,,,,,,,diep,images/br_diep.png,images/cb_diep.png,,diep,,,,,,,,,,,0.641666695,-0.035185178,1,0,0,diep,0,19,19,2,1
,,,,,,55678,2023-08-12_20h22.43.372,vbt_B1_day2,2022.2.4,Win32,60.39376736,55678,,,,,,,,,,,,,,,,,,,,,,,,,,,,,,,,,,,,,,,,,,jong,images/br_jong.png,images/cb_jong.png,,jong,,,,,,,,,,,0.641666695,-0.035185178,1,0,0,jong,0,20,20,43,1
,,,,,,55678,2023-08-12_20h22.43.372,vbt_B1_day2,2022.2.4,Win32,60.39376736,55678,,,,,,,,,,,,,,,,,,,,,,,,,,,,,,,,,,,,,,,,,,heengeen,images/br_heengeen.png,images/cb_heengeen.png,,heengeen,,,,,,,,,,,0.641666695,-0.035185178,1,0,0,heengeen,0,21,21,38,1
,,,,,,55678,2023-08-12_20h22.43.372,vbt_B1_day2,2022.2.4,Win32,60.39376736,55678,,,,,,,,,,,,,,,,,,,,,,,,,,,,,,,,,,,,,,,,,,moes,images/br_moes.png,images/cb_moes.png,,moes,,,,,,,,,,,0.641666695,-0.035185178,1,0,0,moes,0,22,22,0,1
,,,,,,55678,2023-08-12_20h22.43.372,vbt_B1_day2,2022.2.4,Win32,60.39376736,55678,,,,,,,,,,,,,,,,,,,,,,,,,,,,,,,,,,,,,,,,,,breuk,images/br_breuk.png,images/cb_breuk.png,,breuk,,,,,,,,,,,0.641666695,-0.035185178,1,0,0,breuk,0,23,23,45,1
,,,,,,55678,2023-08-12_20h22.43.372,vbt_B1_day2,2022.2.4,Win32,60.39376736,55678,,,,,,,,,,,,,,,,,,,,,,,,,,,,,,,,,,,,,,,,,,heilig,images/br_heilig.png,images/cb_heilig.png,,heilig,,,,,,,,,,,0.641666695,-0.035185178,1,0,0,heilig,0,24,24,9,1
,,,,,,55678,2023-08-12_20h22.43.372,vbt_B1_day2,2022.2.4,Win32,60.39376736,55678,,,,,,,,,,,,,,,,,,,,,,,,,,,,,,,,,,,,,,,,,,anarchie,images/br_anarchie.png,images/cb_anarchie.png,,anarchie,,,,,,,,,,,0.641666695,-0.035185178,1,0,0,anarchie,0,25,25,16,1
,,,,,,55678,2023-08-12_20h22.43.372,vbt_B1_day2,2022.2.4,Win32,60.39376736,55678,,,,,,,,,,,,,,,,,,,,,,,,,,,,,,,,,,,,,,,,,,tweeling,images/br_tweeling.png,images/cb_tweeling.png,,tweeling,,,,,,,,,,,0.641666695,-0.035185178,1,0,0,tweeling,0,26,26,58,1
,,,,,,55678,2023-08-12_20h22.43.372,vbt_B1_day2,2022.2.4,Win32,60.39376736,55678,,,,,,,,,,,,,,,,,,,,,,,,,,,,,,,,,,,,,,,,,,piste,images/br_piste.png,images/cb_piste.png,,piste,,,,,,,,,,,0.641666695,-0.035185178,1,0,0,piste,0,27,27,5,1
,,,,,,55678,2023-08-12_20h22.43.372,vbt_B1_day2,2022.2.4,Win32,60.39376736,55678,,,,,,,,,,,,,,,,,,,,,,,,,,,,,,,,,,,,,,,,,,clan,images/br_clan.png,images/cb_clan.png,,clan,,,,,,,,,,,0.641666695,-0.035185178,1,0,0,clan,0,28,28,40,1
,,,,,,55678,2023-08-12_20h22.43.372,vbt_B1_day2,2022.2.4,Win32,60.39376736,55678,,,,,,,,,,,,,,,,,,,,,,,,,,,,,,,,,,,,,,,,,,negel,images/br_negel.png,images/cb_negel.png,,negel,,,,,,,,,,,0.641666695,-0.035185178,1,0,0,negel,0,29,29,24,1
,,,,,,55678,2023-08-12_20h22.43.372,vbt_B1_day2,2022.2.4,Win32,60.39376736,55678,,,,,,,,,,,,,,,,,,,,,,,,,,,,,,,,,,,,,,,,,,agressie,images/br_agressie.png,images/cb_agressie.png,,agressie,,,,,,,,,,,0.641666695,-0.035185178,1,0,0,agressie,0,30,30,59,1
,,,,,,55678,2023-08-12_20h22.43.372,vbt_B1_day2,2022.2.4,Win32,60.39376736,55678,,,,,,,,,,,,,,,,,,,,,,,,,,,,,,,,,,,,,,,,,,lurgen,images/br_lurgen.png,images/cb_lurgen.png,,lurgen,,,,,,,,,,,0.641666695,-0.035185178,1,0,0,lurgen,0,31,31,29,1
,,,,,,55678,2023-08-12_20h22.43.372,vbt_B1_day2,2022.2.4,Win32,60.39376736,55678,,,,,,,,,,,,,,,,,,,,,,,,,,,,,,,,,,,,,,,,,,blad,images/br_blad.png,images/cb_blad.png,,blad,,,,,,,,,,,0.641666695,-0.035185178,1,0,0,blad,0,32,32,1,1
,,,,,,55678,2023-08-12_20h22.43.372,vbt_B1_day2,2022.2.4,Win32,60.39376736,55678,,,,,,,,,,,,,,,,,,,,,,,,,,,,,,,,,,,,,,,,,,welzijn,images/br_welzijn.png,images/cb_welzijn.png,,welkijn,,,,,,,,,,,0.641666695,-0.035185178,1,0,0,welkijn,0,33,33,52,1
,,,,,,55678,2023-08-12_20h22.43.372,vbt_B1_day2,2022.2.4,Win32,60.39376736,55678,,,,,,,,,,,,,,,,,,,,,,,,,,,,,,,,,,,,,,,,,,prekken,images/br_prekken.png,images/cb_prekken.png,,prekken,,,,,,,,,,,0.641666695,-0.035185178,1,0,0,prekken,0,34,34,34,1
,,,,,,55678,2023-08-12_20h22.43.372,vbt_B1_day2,2022.2.4,Win32,60.39376736,55678,,,,,,,,,,,,,,,,,,,,,,,,,,,,,,,,,,,,,,,,,,toeval,images/br_toeval.png,images/cb_toeval.png,,toeval,,,,,,,,,,,0.641666695,-0.035185178,1,0,0,toeval,0,35,35,11,1
,,,,,,55678,2023-08-12_20h22.43.372,vbt_B1_day2,2022.2.4,Win32,60.39376736,55678,,,,,,,,,,,,,,,,,,,,,,,,,,,,,,,,,,,,,,,,,,bloeien,images/br_bloeien.png,images/cb_bloeien.png,,bloeien,,,,,,,,,,,0.641666695,-0.035185178,1,0,0,bloeien,0,36,36,12,1
,,,,,,55678,2023-08-12_20h22.43.372,vbt_B1_day2,2022.2.4,Win32,60.39376736,55678,,,,,,,,,,,,,,,,,,,,,,,,,,,,,,,,,,,,,,,,,,manieren,images/br_manieren.png,images/cb_manieren.png,,manieren,,,,,,,,,,,0.641666695,-0.035185178,1,0,0,manieren,0,37,37,56,1
,,,,,,55678,2023-08-12_20h22.43.372,vbt_B1_day2,2022.2.4,Win32,60.39376736,55678,,,,,,,,,,,,,,,,,,,,,,,,,,,,,,,,,,,,,,,,,,remel,images/br_remel.png,images/cb_remel.png,,remel,,,,,,,,,,,0.641666695,-0.035185178,1,0,0,remel,0,38,38,25,1
,,,,,,55678,2023-08-12_20h22.43.372,vbt_B1_day2,2022.2.4,Win32,60.39376736,55678,,,,,,,,,,,,,,,,,,,,,,,,,,,,,,,,,,,,,,,,,,eenhoorn,images/br_eenhoorn.png,images/cb_eenhoorn.png,,eenhoorn,,,,,,,,,,,0.641666695,-0.035185178,1,0,0,eenhoorn,0,39,39,19,1
,,,,,,55678,2023-08-12_20h22.43.372,vbt_B1_day2,2022.2.4,Win32,60.39376736,55678,,,,,,,,,,,,,,,,,,,,,,,,,,,,,,,,,,,,,,,,,,aanzien,images/br_aanzien.png,images/cb_aanzien.png,,aanzien,,,,,,,,,,,0.641666695,-0.035185178,1,0,0,aanzien,0,40,40,13,1
,,,,,,55678,2023-08-12_20h22.43.372,vbt_B1_day2,2022.2.4,Win32,60.39376736,55678,,,,,,,,,,,,,,,,,,,,,,,,,,,,,,,,,,,,,,,,,,ophuimen,images/br_ophuimen.png,images/cb_ophuimen.png,,ophuimen,,,,,,,,,,,0.641666695,-0.035185178,1,0,0,ophuimen,0,41,41,36,1
,,,,,,55678,2023-08-12_20h22.43.372,vbt_B1_day2,2022.2.4,Win32,60.39376736,55678,,,,,,,,,,,,,,,,,,,,,,,,,,,,,,,,,,,,,,,,,,inzicht,images/br_inzicht.png,images/cb_inzicht.png,,inzicht,,,,,,,,,,,0.641666695,-0.035185178,1,0,0,inzicht,0,42,42,53,1
,,,,,,55678,2023-08-12_20h22.43.372,vbt_B1_day2,2022.2.4,Win32,60.39376736,55678,,,,,,,,,,,,,,,,,,,,,,,,,,,,,,,,,,,,,,,,,,jagen,images/br_jagen.png,images/cb_jagen.png,,jagen,,,,,,,,,,,0.641666695,-0.035185178,1,0,0,jagen,0,43,43,6,1
,,,,,,55678,2023-08-12_20h22.43.372,vbt_B1_day2,2022.2.4,Win32,60.39376736,55678,,,,,,,,,,,,,,,,,,,,,,,,,,,,,,,,,,,,,,,,,,strikken,images/br_strikken.png,images/cb_strikken.png,,strikken,,,,,,,,,,,0.641666695,-0.035185178,1,0,0,strikken,0,44,44,18,1
,,,,,,55678,2023-08-12_20h22.43.372,vbt_B1_day2,2022.2.4,Win32,60.39376736,55678,,,,,,,,,,,,,,,,,,,,,,,,,,,,,,,,,,,,,,,,,,sjijfel,images/br_sjijfel.png,images/cb_sjijfel.png,,sjijfel,,,,,,,,,,,0.641666695,-0.035185178,1,0,0,sjijfel,0,45,45,33,1
,,,,,,55678,2023-08-12_20h22.43.372,vbt_B1_day2,2022.2.4,Win32,60.39376736,55678,,,,,,,,,,,,,,,,,,,,,,,,,,,,,,,,,,,,,,,,,,zomers,images/br_zomers.png,images/cb_zomers.png,,zomers,,,,,,,,,,,0.641666695,-0.035185178,1,0,0,zomers,0,46,46,48,1
,,,,,,55678,2023-08-12_20h22.43.372,vbt_B1_day2,2022.2.4,Win32,60.39376736,55678,,,,,,,,,,,,,,,,,,,,,,,,,,,,,,,,,,,,,,,,,,doodmoe,images/br_doodmoe.png,images/cb_doodmoe.png,,doodmoe,,,,,,,,,,,0.641666695,-0.035185178,1,0,0,doodmoe,0,47,47,15,1
,,,,,,55678,2023-08-12_20h22.43.372,vbt_B1_day2,2022.2.4,Win32,60.39376736,55678,,,,,,,,,,,,,,,,,,,,,,,,,,,,,,,,,,,,,,,,,,badon,images/br_badon.png,images/cb_badon.png,,badon,,,,,,,,,,,0.641666695,-0.035185178,1,0,0,badon,0,48,48,26,1
,,,,,,55678,2023-08-12_20h22.43.372,vbt_B1_day2,2022.2.4,Win32,60.39376736,55678,,,,,,,,,,,,,,,,,,,,,,,,,,,,,,,,,,,,,,,,,,stes,images/br_stes.png,images/cb_stes.png,,stes,,,,,,,,,,,0.641666695,-0.035185178,1,0,0,stes,0,49,49,21,1
,,,,,,55678,2023-08-12_20h22.43.372,vbt_B1_day2,2022.2.4,Win32,60.39376736,55678,,,,,,,,,,,,,,,,,,,,,,,,,,,,,,,,,,,,,,,,,,aanvraag,images/br_aanvraag.png,images/cb_aanvraag.png,,aanvraag,,,,,,,,,,,0.641666695,-0.035185178,1,0,0,aanvraag,0,50,50,57,1
,,,,,,55678,2023-08-12_20h22.43.372,vbt_B1_day2,2022.2.4,Win32,60.39376736,55678,,,,,,,,,,,,,,,,,,,,,,,,,,,,,,,,,,,,,,,,,,joes,images/br_joes.png,images/cb_joes.png,,joes,,,,,,,,,,,0.641666695,-0.035185178,1,0,0,joes,0,51,51,20,1
,,,,,,55678,2023-08-12_20h22.43.372,vbt_B1_day2,2022.2.4,Win32,60.39376736,55678,,,,,,,,,,,,,,,,,,,,,,,,,,,,,,,,,,,,,,,,,,tand,images/br_tand.png,images/cb_tand.png,,tand,,,,,,,,,,,0.641666695,-0.035185178,1,0,0,tand,0,52,52,42,1
,,,,,,55678,2023-08-12_20h22.43.372,vbt_B1_day2,2022.2.4,Win32,60.39376736,55678,,,,,,,,,,,,,,,,,,,,,,,,,,,,,,,,,,,,,,,,,,krimmen,images/br_krimmen.png,images/cb_krimmen.png,,krimmen,,,,,,,,,,,0.641666695,-0.035185178,1,0,0,krimmen,0,53,53,35,1
,,,,,,55678,2023-08-12_20h22.43.372,vbt_B1_day2,2022.2.4,Win32,60.39376736,55678,,,,,,,,,,,,,,,,,,,,,,,,,,,,,,,,,,,,,,,,,,geld,images/br_geld.png,images/cb_geld.png,,geld,,,,,,,,,,,0.641666695,-0.035185178,1,0,0,geld,0,54,54,3,1
,,,,,,55678,2023-08-12_20h22.43.372,vbt_B1_day2,2022.2.4,Win32,60.39376736,55678,,,,,,,,,,,,,,,,,,,,,,,,,,,,,,,,,,,,,,,,,,sora,images/br_sora.png,images/cb_sora.png,,sora,,,,,,,,,,,0.641666695,-0.035185178,1,0,0,sora,0,55,55,22,1
,,,,,,55678,2023-08-12_20h22.43.372,vbt_B1_day2,2022.2.4,Win32,60.39376736,55678,,,,,,,,,,,,,,,,,,,,,,,,,,,,,,,,,,,,,,,,,,kenzis,images/br_kenzis.png,images/cb_kenzis.png,,kenzis,,,,,,,,,,,0.641666695,-0.035185178,1,0,0,kenzis,0,56,56,30,1
,,,,,,55678,2023-08-12_20h22.43.372,vbt_B1_day2,2022.2.4,Win32,60.39376736,55678,,,,,,,,,,,,,,,,,,,,,,,,,,,,,,,,,,,,,,,,,,thema,images/br_thema.png,images/cb_thema.png,,thema,,,,,,,,,,,0.641666695,-0.035185178,1,0,0,thema,0,57,57,47,1
,,,,,,55678,2023-08-12_20h22.43.372,vbt_B1_day2,2022.2.4,Win32,60.39376736,55678,,,,,,,,,,,,,,,,,,,,,,,,,,,,,,,,,,,,,,,,,,ningen,images/br_ningen.png,images/cb_ningen.png,,ningen,,,,,,,,,,,0.641666695,-0.035185178,1,0,0,ningen,0,58,58,28,1
,,,,,,55678,2023-08-12_20h22.43.372,vbt_B1_day2,2022.2.4,Win32,60.39376736,55678,,,,,,,,,,,,,,,,,,,,,,,,,,,,,,,,,,,,,,,,,,trots,images/br_trots.png,images/cb_trots.png,,trots,,,,,,,,,,,0.641666695,-0.035185178,1,0,0,trots,0,59,59,44,1
,,,,,,55678,2023-08-12_20h22.43.372,vbt_B1_day2,2022.2.4,Win32,60.39376736,55678,,,,,,,,,,,,,,,,,,,,,,,,,,,,,,,,,,,,,,,,,,,,,,,,,,,,,,,,,,,,,,,,,,,
