welcome_mouse.x,welcome_mouse.y,welcome_mouse.leftButton,welcome_mouse.midButton,welcome_mouse.rightButton,welcome_mouse.time,"ID",date,expName,psychopyVersion,OS,frameRate,refresh_mouse.x,refresh_mouse.y,refresh_mouse.leftButton,refresh_mouse.midButton,refresh_mouse.rightButton,refresh_mouse.time,braille_mouse.x,braille_mouse.y,braille_mouse.leftButton,braille_mouse.midButton,braille_mouse.rightButton,braille_mouse.time,trials.thisRepN,trials.thisTrialN,trials.thisN,trials.thisIndex,trials.ran,nlLet,brLet,cbLet,trainInstr_mouse.x,trainInstr_mouse.y,trainInstr_mouse.leftButton,trainInstr_mouse.midButton,trainInstr_mouse.rightButton,trainInstr_mouse.time,translation_key.keys,translation_key.corr,translation_key.rt,word_rsp.text,word_mouse.x,word_mouse.y,word_mouse.leftButton,word_mouse.midButton,word_mouse.rightButton,word_mouse.time,train_loop.thisRepN,train_loop.thisTrialN,train_loop.thisN,train_loop.thisIndex,train_loop.ran,nlWrd,brWrd,cbWrd,test,testResp,mouse.x,mouse.y,mouse.leftButton,mouse.midButton,mouse.rightButton,testInstr_mouse.x,testInstr_mouse.y,testInstr_mouse.leftButton,testInstr_mouse.midButton,testInstr_mouse.rightButton,test_mouse.x,test_mouse.y,test_mouse.leftButton,test_mouse.midButton,test_mouse.rightButton,test_response.text,test_loop.thisRepN,test_loop.thisTrialN,test_loop.thisN,test_loop.thisIndex,test_loop.ran
-0.150925884,-0.240740741,1,0,0,10.8123,00029,2023-09-10_23h01.39.308,vbt_B1_day2,2022.2.4,Win32,60.76441636,,,,,,,,,,,,,,,,,,,,,,,,,,,,,,,,,,,,,,,,,,,,,,,,,,,,,,,,,,,,,,,,,,,
,,,,,,00029,2023-09-10_23h01.39.308,vbt_B1_day2,2022.2.4,Win32,60.76441636,-0.150925884,-0.240740741,1,0,0,1.757,,,,,,,,,,,,,,,,,,,,,,,,,,,,,,,,,,,,,,,,,,,,,,,,,,,,,,,,,,,,,
,,,,,,00029,2023-09-10_23h01.39.308,vbt_B1_day2,2022.2.4,Win32,60.76441636,,,,,,,-0.150925884,-0.240740741,1,0,0,16.5998,0,0,0,5,1,f,images/br_f.png,images/cb_f.png,,,,,,,,,,,,,,,,,,,,,,,,,,,,,,,,,,,,,,,,,,,,,,,
,,,,,,00029,2023-09-10_23h01.39.308,vbt_B1_day2,2022.2.4,Win32,60.76441636,,,,,,,-0.150925884,-0.240740741,1,0,0,0.083,0,1,1,15,1,p,images/br_p.png,images/cb_p.png,,,,,,,,,,,,,,,,,,,,,,,,,,,,,,,,,,,,,,,,,,,,,,,
,,,,,,00029,2023-09-10_23h01.39.308,vbt_B1_day2,2022.2.4,Win32,60.76441636,,,,,,,-0.150925884,-0.240740741,1,0,0,0.7864,0,2,2,19,1,t,images/br_t.png,images/cb_t.png,,,,,,,,,,,,,,,,,,,,,,,,,,,,,,,,,,,,,,,,,,,,,,,
,,,,,,00029,2023-09-10_23h01.39.308,vbt_B1_day2,2022.2.4,Win32,60.76441636,,,,,,,-0.150925884,-0.240740741,1,0,0,0.4162,0,3,3,0,1,a,images/br_a.png,images/cb_a.png,,,,,,,,,,,,,,,,,,,,,,,,,,,,,,,,,,,,,,,,,,,,,,,
,,,,,,00029,2023-09-10_23h01.39.308,vbt_B1_day2,2022.2.4,Win32,60.76441636,,,,,,,-0.001851824,-0.141666695,1,0,0,1.3472,0,4,4,11,1,l,images/br_l.png,images/cb_l.png,,,,,,,,,,,,,,,,,,,,,,,,,,,,,,,,,,,,,,,,,,,,,,,
,,,,,,00029,2023-09-10_23h01.39.308,vbt_B1_day2,2022.2.4,Win32,60.76441636,,,,,,,-0.001851824,-0.141666695,1,0,0,0.2168,0,5,5,22,1,w,images/br_w.png,images/cb_w.png,,,,,,,,,,,,,,,,,,,,,,,,,,,,,,,,,,,,,,,,,,,,,,,
,,,,,,00029,2023-09-10_23h01.39.308,vbt_B1_day2,2022.2.4,Win32,60.76441636,,,,,,,-0.001851824,-0.141666695,1,0,0,0.3542,0,6,6,20,1,u,images/br_u.png,images/cb_u.png,,,,,,,,,,,,,,,,,,,,,,,,,,,,,,,,,,,,,,,,,,,,,,,
,,,,,,00029,2023-09-10_23h01.39.308,vbt_B1_day2,2022.2.4,Win32,60.76441636,,,,,,,-0.001851824,-0.141666695,1,0,0,2.8475,0,7,7,7,1,h,images/br_h.png,images/cb_h.png,,,,,,,,,,,,,,,,,,,,,,,,,,,,,,,,,,,,,,,,,,,,,,,
,,,,,,00029,2023-09-10_23h01.39.308,vbt_B1_day2,2022.2.4,Win32,60.76441636,,,,,,,-0.001851824,-0.141666695,1,0,0,0.0543,0,8,8,24,1,y,images/br_y.png,images/cb_y.png,,,,,,,,,,,,,,,,,,,,,,,,,,,,,,,,,,,,,,,,,,,,,,,
,,,,,,00029,2023-09-10_23h01.39.308,vbt_B1_day2,2022.2.4,Win32,60.76441636,,,,,,,-0.001851824,-0.141666695,1,0,0,0.4004,0,9,9,16,1,q,images/br_q.png,images/cb_q.png,,,,,,,,,,,,,,,,,,,,,,,,,,,,,,,,,,,,,,,,,,,,,,,
,,,,,,00029,2023-09-10_23h01.39.308,vbt_B1_day2,2022.2.4,Win32,60.76441636,,,,,,,-0.001851824,-0.141666695,1,0,0,0.3169,0,10,10,17,1,r,images/br_r.png,images/cb_r.png,,,,,,,,,,,,,,,,,,,,,,,,,,,,,,,,,,,,,,,,,,,,,,,
,,,,,,00029,2023-09-10_23h01.39.308,vbt_B1_day2,2022.2.4,Win32,60.76441636,,,,,,,-0.001851824,-0.141666695,1,0,0,1.3476,0,11,11,8,1,i,images/br_i.png,images/cb_i.png,,,,,,,,,,,,,,,,,,,,,,,,,,,,,,,,,,,,,,,,,,,,,,,
,,,,,,00029,2023-09-10_23h01.39.308,vbt_B1_day2,2022.2.4,Win32,60.76441636,,,,,,,-0.001851824,-0.141666695,1,0,0,0.0998,0,12,12,25,1,z,images/br_z.png,images/cb_z.png,,,,,,,,,,,,,,,,,,,,,,,,,,,,,,,,,,,,,,,,,,,,,,,
,,,,,,00029,2023-09-10_23h01.39.308,vbt_B1_day2,2022.2.4,Win32,60.76441636,,,,,,,-0.001851824,-0.141666695,1,0,0,0.3988,0,13,13,6,1,g,images/br_g.png,images/cb_g.png,,,,,,,,,,,,,,,,,,,,,,,,,,,,,,,,,,,,,,,,,,,,,,,
,,,,,,00029,2023-09-10_23h01.39.308,vbt_B1_day2,2022.2.4,Win32,60.76441636,,,,,,,-0.001851824,-0.141666695,1,0,0,1.2168,0,14,14,4,1,e,images/br_e.png,images/cb_e.png,,,,,,,,,,,,,,,,,,,,,,,,,,,,,,,,,,,,,,,,,,,,,,,
,,,,,,00029,2023-09-10_23h01.39.308,vbt_B1_day2,2022.2.4,Win32,60.76441636,,,,,,,-0.001851824,-0.141666695,1,0,0,0.0507,0,15,15,18,1,s,images/br_s.png,images/cb_s.png,,,,,,,,,,,,,,,,,,,,,,,,,,,,,,,,,,,,,,,,,,,,,,,
,,,,,,00029,2023-09-10_23h01.39.308,vbt_B1_day2,2022.2.4,Win32,60.76441636,,,,,,,-0.001851824,-0.141666695,1,0,0,0.3636,0,16,16,14,1,o,images/br_o.png,images/cb_o.png,,,,,,,,,,,,,,,,,,,,,,,,,,,,,,,,,,,,,,,,,,,,,,,
,,,,,,00029,2023-09-10_23h01.39.308,vbt_B1_day2,2022.2.4,Win32,60.76441636,,,,,,,-0.001851824,-0.141666695,1,0,0,0.2481,0,17,17,13,1,n,images/br_n.png,images/cb_n.png,,,,,,,,,,,,,,,,,,,,,,,,,,,,,,,,,,,,,,,,,,,,,,,
,,,,,,00029,2023-09-10_23h01.39.308,vbt_B1_day2,2022.2.4,Win32,60.76441636,,,,,,,-0.001851824,-0.141666695,1,0,0,0.3476,0,18,18,2,1,c,images/br_c.png,images/cb_c.png,,,,,,,,,,,,,,,,,,,,,,,,,,,,,,,,,,,,,,,,,,,,,,,
,,,,,,00029,2023-09-10_23h01.39.308,vbt_B1_day2,2022.2.4,Win32,60.76441636,,,,,,,-0.001851824,-0.141666695,1,0,0,0.5537,0,19,19,3,1,d,images/br_d.png,images/cb_d.png,,,,,,,,,,,,,,,,,,,,,,,,,,,,,,,,,,,,,,,,,,,,,,,
,,,,,,00029,2023-09-10_23h01.39.308,vbt_B1_day2,2022.2.4,Win32,60.76441636,,,,,,,-0.001851824,-0.141666695,1,0,0,0.1333,0,20,20,23,1,x,images/br_x.png,images/cb_x.png,,,,,,,,,,,,,,,,,,,,,,,,,,,,,,,,,,,,,,,,,,,,,,,
,,,,,,00029,2023-09-10_23h01.39.308,vbt_B1_day2,2022.2.4,Win32,60.76441636,,,,,,,-0.001851824,-0.141666695,1,0,0,1.334,0,21,21,12,1,m,images/br_m.png,images/cb_m.png,,,,,,,,,,,,,,,,,,,,,,,,,,,,,,,,,,,,,,,,,,,,,,,
,,,,,,00029,2023-09-10_23h01.39.308,vbt_B1_day2,2022.2.4,Win32,60.76441636,,,,,,,-0.001851824,-0.141666695,1,0,0,0.6157,0,22,22,10,1,k,images/br_k.png,images/cb_k.png,,,,,,,,,,,,,,,,,,,,,,,,,,,,,,,,,,,,,,,,,,,,,,,
,,,,,,00029,2023-09-10_23h01.39.308,vbt_B1_day2,2022.2.4,Win32,60.76441636,,,,,,,-0.001851824,-0.141666695,1,0,0,4.066,0,23,23,21,1,v,images/br_v.png,images/cb_v.png,,,,,,,,,,,,,,,,,,,,,,,,,,,,,,,,,,,,,,,,,,,,,,,
,,,,,,00029,2023-09-10_23h01.39.308,vbt_B1_day2,2022.2.4,Win32,60.76441636,,,,,,,-0.001851824,-0.141666695,1,0,0,0.4995,0,24,24,9,1,j,images/br_j.png,images/cb_j.png,,,,,,,,,,,,,,,,,,,,,,,,,,,,,,,,,,,,,,,,,,,,,,,
,,,,,,00029,2023-09-10_23h01.39.308,vbt_B1_day2,2022.2.4,Win32,60.76441636,,,,,,,-0.001851824,-0.141666695,1,0,0,0.0498,0,25,25,1,1,b,images/br_b.png,images/cb_b.png,,,,,,,,,,,,,,,,,,,,,,,,,,,,,,,,,,,,,,,,,,,,,,,
,,,,,,00029,2023-09-10_23h01.39.308,vbt_B1_day2,2022.2.4,Win32,60.76441636,,,,,,,,,,,,,,,,,,,,,-0.001851824,-0.141666695,1,0,0,28.1767,,,,,,,,,,,,,,,,,,,,,,,,,,,,,,,,,,,,,,,,,
,,,,,,00029,2023-09-10_23h01.39.308,vbt_B1_day2,2022.2.4,Win32,60.76441636,,,,,,,,,,,,,,,,,,,,,,,,,,,down,0,6.3902,,-0.001851824,-0.141666695,1,0,0,8.099,0,0,0,82,1,muziek,images/br_muziek.png,images/cb_muziek.png,0,,,,,,,,,,,,,,,,,,,,,,
,,,,,,00029,2023-09-10_23h01.39.308,vbt_B1_day2,2022.2.4,Win32,60.76441636,,,,,,,,,,,,,,,,,,,,,,,,,,,down,0,3.5561,,-0.001851824,-0.141666695,1,0,0,4.3208,0,1,1,10,1,leek,images/br_leek.png,images/cb_leek.png,0,,,,,,,,,,,,,,,,,,,,,,
,,,,,,00029,2023-09-10_23h01.39.308,vbt_B1_day2,2022.2.4,Win32,60.76441636,,,,,,,,,,,,,,,,,,,,,,,,,,,down,0,8.7117,,-0.001851824,-0.141666695,1,0,0,6.7038,0,2,2,105,1,wijlen,images/br_wijlen.png,images/cb_wijlen.png,0,,,,,,,,,,,,,,,,,,,,,,
,,,,,,00029,2023-09-10_23h01.39.308,vbt_B1_day2,2022.2.4,Win32,60.76441636,,,,,,,,,,,,,,,,,,,,,,,,,,,down,0,106.6127,,-0.001851824,-0.141666695,1,0,0,6.683,0,3,3,141,1,knielen,images/br_knielen.png,images/cb_knielen.png,0,,,,,,,,,,,,,,,,,,,,,,
,,,,,,00029,2023-09-10_23h01.39.308,vbt_B1_day2,2022.2.4,Win32,60.76441636,,,,,,,,,,,,,,,,,,,,,,,,,,,down,0,67.4718,,-0.001851824,-0.141666695,1,0,0,5.8829,0,4,4,138,1,akkoord,images/br_akkoord.png,images/cb_akkoord.png,1,rkkoorj,,,,,,,,,,,,,,,,,,,,,
,,,,,,00029,2023-09-10_23h01.39.308,vbt_B1_day2,2022.2.4,Win32,60.76441636,,,,,,,,,,,,,,,,,,,,,,,,,,,down,0,4.4385,,-0.001851824,-0.141666695,1,0,0,3.8331,0,5,5,131,1,opzicht,images/br_opzicht.png,images/cb_opzicht.png,0,,,,,,,,,,,,,,,,,,,,,,
,,,,,,00029,2023-09-10_23h01.39.308,vbt_B1_day2,2022.2.4,Win32,60.76441636,,,,,,,,,,,,,,,,,,,,,,,,,,,down,0,1.1264,,-0.001851824,-0.141666695,1,0,0,2.1162,0,6,6,72,1,strak,images/br_strak.png,images/cb_strak.png,0,,,,,,,,,,,,,,,,,,,,,,
,,,,,,00029,2023-09-10_23h01.39.308,vbt_B1_day2,2022.2.4,Win32,60.76441636,,,,,,,,,,,,,,,,,,,,,,,,,,,down,0,9.6005,,-0.001851824,-0.141666695,1,0,0,5.7289,0,7,7,62,1,knaap,images/br_knaap.png,images/cb_knaap.png,0,,,,,,,,,,,,,,,,,,,,,,
,,,,,,00029,2023-09-10_23h01.39.308,vbt_B1_day2,2022.2.4,Win32,60.76441636,,,,,,,,,,,,,,,,,,,,,,,,,,,down,0,0.9875,,-0.001851824,-0.141666695,1,0,0,17.8156,0,8,8,153,1,vervoer,images/br_vervoer.png,images/cb_vervoer.png,0,,,,,,,,,,,,,,,,,,,,,,
,,,,,,00029,2023-09-10_23h01.39.308,vbt_B1_day2,2022.2.4,Win32,60.76441636,,,,,,,,,,,,,,,,,,,,,,,,,,,down,0,1.7857,,-0.001851824,-0.141666695,1,0,0,5.5661,0,9,9,150,1,gegeven,images/br_gegeven.png,images/cb_gegeven.png,0,,,,,,,,,,,,,,,,,,,,,,
,,,,,,00029,2023-09-10_23h01.39.308,vbt_B1_day2,2022.2.4,Win32,60.76441636,,,,,,,,,,,,,,,,,,,,,,,,,,,down,0,1.0008,,-0.001851824,-0.141666695,1,0,0,1.2703,0,10,10,7,1,geld,images/br_geld.png,images/cb_geld.png,0,,,,,,,,,,,,,,,,,,,,,,
,,,,,,00029,2023-09-10_23h01.39.308,vbt_B1_day2,2022.2.4,Win32,60.76441636,,,,,,,,,,,,,,,,,,,,,,,,,,,down,0,5.357,,-0.001851824,-0.141666695,1,0,0,3.9499,0,11,11,181,1,toegeven,images/br_toegeven.png,images/cb_toegeven.png,0,,,,,,,,,,,,,,,,,,,,,,
,,,,,,00029,2023-09-10_23h01.39.308,vbt_B1_day2,2022.2.4,Win32,60.76441636,,,,,,,,,,,,,,,,,,,,,,,,,,,down,0,1.184,,-0.001851824,-0.141666695,1,0,0,2.7334,0,12,12,157,1,uitlaat,images/br_uitlaat.png,images/cb_uitlaat.png,0,,,,,,,,,,,,,,,,,,,,,,
,,,,,,00029,2023-09-10_23h01.39.308,vbt_B1_day2,2022.2.4,Win32,60.76441636,,,,,,,,,,,,,,,,,,,,,,,,,,,down,0,2.2027,,-0.001851824,-0.141666695,1,0,0,4.933,0,13,13,71,1,bever,images/br_bever.png,images/cb_bever.png,0,,,,,,,,,,,,,,,,,,,,,,
,,,,,,00029,2023-09-10_23h01.39.308,vbt_B1_day2,2022.2.4,Win32,60.76441636,,,,,,,,,,,,,,,,,,,,,,,,,,,down,0,3.206,,-0.001851824,-0.141666695,1,0,0,4.9364,0,14,14,127,1,doodmoe,images/br_doodmoe.png,images/cb_doodmoe.png,0,,,,,,,,,,,,,,,,,,,,,,
,,,,,,00029,2023-09-10_23h01.39.308,vbt_B1_day2,2022.2.4,Win32,60.76441636,,,,,,,,,,,,,,,,,,,,,,,,,,,down,0,3.0711,,-0.001851824,-0.141666695,1,0,0,5.766,0,15,15,90,1,geluid,images/br_geluid.png,images/cb_geluid.png,0,,,,,,,,,,,,,,,,,,,,,,
,,,,,,00029,2023-09-10_23h01.39.308,vbt_B1_day2,2022.2.4,Win32,60.76441636,,,,,,,,,,,,,,,,,,,,,,,,,,,down,0,0.1453,,-0.001851824,-0.141666695,1,0,0,43.481,0,16,16,196,1,nakijken,images/br_nakijken.png,images/cb_nakijken.png,0,,,,,,,,,,,,,,,,,,,,,,
,,,,,,00029,2023-09-10_23h01.39.308,vbt_B1_day2,2022.2.4,Win32,60.76441636,,,,,,,,,,,,,,,,,,,,,,,,,,,down,0,0.5924,,-0.001851824,-0.141666695,1,0,0,2.3499,0,17,17,180,1,openbaar,images/br_openbaar.png,images/cb_openbaar.png,0,,,,,,,,,,,,,,,,,,,,,,
,,,,,,00029,2023-09-10_23h01.39.308,vbt_B1_day2,2022.2.4,Win32,60.76441636,,,,,,,,,,,,,,,,,,,,,,,,,,,down,0,0.3873,,-0.001851824,-0.141666695,1,0,0,9.4164,0,18,18,48,1,steel,images/br_steel.png,images/cb_steel.png,0,,,,,,,,,,,,,,,,,,,,,,
,,,,,,00029,2023-09-10_23h01.39.308,vbt_B1_day2,2022.2.4,Win32,60.76441636,,,,,,,,,,,,,,,,,,,,,,,,,,,down,0,0.9412,,-0.001851824,-0.141666695,1,0,0,7.1,0,19,19,68,1,schat,images/br_schat.png,images/cb_schat.png,0,,,,,,,,,,,,,,,,,,,,,,
,,,,,,00029,2023-09-10_23h01.39.308,vbt_B1_day2,2022.2.4,Win32,60.76441636,,,,,,,,,,,,,,,,,,,,,,,,,,,down,0,0.1607,,-0.001851824,-0.141666695,1,0,0,6.9197,0,20,20,50,1,stoom,images/br_stoom.png,images/cb_stoom.png,0,,,,,,,,,,,,,,,,,,,,,,
,,,,,,00029,2023-09-10_23h01.39.308,vbt_B1_day2,2022.2.4,Win32,60.76441636,,,,,,,,,,,,,,,,,,,,,,,,,,,down,0,0.8021,,-0.001851824,-0.141666695,1,0,0,3.4843,0,21,21,114,1,vullen,images/br_vullen.png,images/cb_vullen.png,0,,,,,,,,,,,,,,,,,,,,,,
,,,,,,00029,2023-09-10_23h01.39.308,vbt_B1_day2,2022.2.4,Win32,60.76441636,,,,,,,,,,,,,,,,,,,,,,,,,,,down,0,1.5201,,-0.001851824,-0.141666695,1,0,0,24.6316,0,22,22,185,1,mijnheer,images/br_mijnheer.png,images/cb_mijnheer.png,0,,,,,,,,,,,,,,,,,,,,,,
,,,,,,00029,2023-09-10_23h01.39.308,vbt_B1_day2,2022.2.4,Win32,60.76441636,,,,,,,,,,,,,,,,,,,,,,,,,,,down,0,0.3898,,-0.001851824,-0.141666695,1,0,0,4.3662,0,23,23,140,1,blijven,images/br_blijven.png,images/cb_blijven.png,0,,,,,,,,,,,,,,,,,,,,,,
,,,,,,00029,2023-09-10_23h01.39.308,vbt_B1_day2,2022.2.4,Win32,60.76441636,,,,,,,,,,,,,,,,,,,,,,,,,,,down,0,5.8178,,-0.001851824,-0.141666695,1,0,0,4.3792,0,24,24,44,1,flits,images/br_flits.png,images/cb_flits.png,0,,,,,,,,,,,,,,,,,,,,,,
,,,,,,00029,2023-09-10_23h01.39.308,vbt_B1_day2,2022.2.4,Win32,60.76441636,,,,,,,,,,,,,,,,,,,,,,,,,,,down,0,56.9252,,-0.001851824,-0.141666695,1,0,0,34.3314,0,25,25,176,1,techniek,images/br_techniek.png,images/cb_techniek.png,1,techniek,,,,,,,,,,,,,,,,,,,,,
,,,,,,00029,2023-09-10_23h01.39.308,vbt_B1_day2,2022.2.4,Win32,60.76441636,,,,,,,,,,,,,,,,,,,,,,,,,,,down,0,3.1793,,-0.001851824,-0.141666695,1,0,0,2.8832,0,26,26,115,1,kleren,images/br_kleren.png,images/cb_kleren.png,0,,,,,,,,,,,,,,,,,,,,,,
,,,,,,00029,2023-09-10_23h01.39.308,vbt_B1_day2,2022.2.4,Win32,60.76441636,,,,,,,,,,,,,,,,,,,,,,,,,,,down,0,3.0339,,-0.001851824,-0.141666695,1,0,0,2.1499,0,27,27,8,1,knie,images/br_knie.png,images/cb_knie.png,0,,,,,,,,,,,,,,,,,,,,,,
,,,,,,00029,2023-09-10_23h01.39.308,vbt_B1_day2,2022.2.4,Win32,60.76441636,,,,,,,,,,,,,,,,,,,,,,,,,,,down,0,21.7013,,-0.001851824,-0.141666695,1,0,0,4.0824,0,28,28,77,1,woede,images/br_woede.png,images/cb_woede.png,0,,,,,,,,,,,,,,,,,,,,,,
,,,,,,00029,2023-09-10_23h01.39.308,vbt_B1_day2,2022.2.4,Win32,60.76441636,,,,,,,,,,,,,,,,,,,,,,,,,,,down,0,0.4065,,-0.001851824,-0.141666695,1,0,0,3.1826,0,29,29,1,1,zaal,images/br_zaal.png,images/cb_zaal.png,0,,,,,,,,,,,,,,,,,,,,,,
,,,,,,00029,2023-09-10_23h01.39.308,vbt_B1_day2,2022.2.4,Win32,60.76441636,,,,,,,,,,,,,,,,,,,,,,,,,,,down,0,323.2533,,-0.001851824,-0.141666695,1,0,0,3.2664,0,30,30,166,1,strikken,images/br_strikken.png,images/cb_strikken.png,0,,,,,,,,,,,,,,,,,,,,,,
,,,,,,00029,2023-09-10_23h01.39.308,vbt_B1_day2,2022.2.4,Win32,60.76441636,,,,,,,,,,,,,,,,,,,,,,,,,,,down,0,11.1328,,-0.001851824,-0.141666695,1,0,0,2.1164,0,31,31,117,1,kennis,images/br_kennis.png,images/cb_kennis.png,0,,,,,,,,,,,,,,,,,,,,,,
,,,,,,00029,2023-09-10_23h01.39.308,vbt_B1_day2,2022.2.4,Win32,60.76441636,,,,,,,,,,,,,,,,,,,,,,,,,,,down,0,0.1844,,-0.001851824,-0.141666695,1,0,0,2.9832,0,32,32,187,1,opkijken,images/br_opkijken.png,images/cb_opkijken.png,0,,,,,,,,,,,,,,,,,,,,,,
,,,,,,00029,2023-09-10_23h01.39.308,vbt_B1_day2,2022.2.4,Win32,60.76441636,,,,,,,,,,,,,,,,,,,,,,,,,,,down,0,0.294,,-0.001851824,-0.141666695,1,0,0,5.1334,0,33,33,188,1,strekken,images/br_strekken.png,images/cb_strekken.png,0,,,,,,,,,,,,,,,,,,,,,,
,,,,,,00029,2023-09-10_23h01.39.308,vbt_B1_day2,2022.2.4,Win32,60.76441636,,,,,,,,,,,,,,,,,,,,,,,,,,,down,0,6.8557,,-0.001851824,-0.141666695,1,0,0,0.2501,0,34,34,125,1,aanzien,images/br_aanzien.png,images/cb_aanzien.png,0,,,,,,,,,,,,,,,,,,,,,,
,,,,,,00029,2023-09-10_23h01.39.308,vbt_B1_day2,2022.2.4,Win32,60.76441636,,,,,,,,,,,,,,,,,,,,,,,,,,,down,0,0.2108,,-0.001851824,-0.141666695,1,0,0,8.5159,0,35,35,6,1,diep,images/br_diep.png,images/cb_diep.png,0,,,,,,,,,,,,,,,,,,,,,,
,,,,,,00029,2023-09-10_23h01.39.308,vbt_B1_day2,2022.2.4,Win32,60.76441636,,,,,,,,,,,,,,,,,,,,,,,,,,,down,0,0.3177,,-0.001851824,-0.141666695,1,0,0,8.3491,0,36,36,53,1,baron,images/br_baron.png,images/cb_baron.png,0,,,,,,,,,,,,,,,,,,,,,,
,,,,,,00029,2023-09-10_23h01.39.308,vbt_B1_day2,2022.2.4,Win32,60.76441636,,,,,,,,,,,,,,,,,,,,,,,,,,,down,0,0.0909,,-0.001851824,-0.141666695,1,0,0,2.9497,0,37,37,145,1,invloed,images/br_invloed.png,images/cb_invloed.png,0,,,,,,,,,,,,,,,,,,,,,,
,,,,,,00029,2023-09-10_23h01.39.308,vbt_B1_day2,2022.2.4,Win32,60.76441636,,,,,,,,,,,,,,,,,,,,,,,,,,,down,0,0.0869,,-0.001851824,-0.141666695,1,0,0,1.3162,0,38,38,108,1,excuus,images/br_excuus.png,images/cb_excuus.png,0,,,,,,,,,,,,,,,,,,,,,,
,,,,,,00029,2023-09-10_23h01.39.308,vbt_B1_day2,2022.2.4,Win32,60.76441636,,,,,,,,,,,,,,,,,,,,,,,,,,,down,0,5.0863,,-0.001851824,-0.141666695,1,0,0,5.3159,0,39,39,183,1,getuigen,images/br_getuigen.png,images/cb_getuigen.png,0,,,,,,,,,,,,,,,,,,,,,,
,,,,,,00029,2023-09-10_23h01.39.308,vbt_B1_day2,2022.2.4,Win32,60.76441636,,,,,,,,,,,,,,,,,,,,,,,,,,,down,0,0.1562,,-0.001851824,-0.141666695,1,0,0,2.2163,0,40,40,83,1,mening,images/br_mening.png,images/cb_mening.png,0,,,,,,,,,,,,,,,,,,,,,,
,,,,,,00029,2023-09-10_23h01.39.308,vbt_B1_day2,2022.2.4,Win32,60.76441636,,,,,,,,,,,,,,,,,,,,,,,,,,,down,0,0.7824,,-0.001851824,-0.141666695,1,0,0,4.1825,0,41,41,67,1,zwart,images/br_zwart.png,images/cb_zwart.png,0,,,,,,,,,,,,,,,,,,,,,,
,,,,,,00029,2023-09-10_23h01.39.308,vbt_B1_day2,2022.2.4,Win32,60.76441636,,,,,,,,,,,,,,,,,,,,,,,,,,,down,0,0.0678,,-0.001851824,-0.141666695,1,0,0,3.6663,0,42,42,143,1,hechten,images/br_hechten.png,images/cb_hechten.png,0,,,,,,,,,,,,,,,,,,,,,,
,,,,,,00029,2023-09-10_23h01.39.308,vbt_B1_day2,2022.2.4,Win32,60.76441636,,,,,,,,,,,,,,,,,,,,,,,,,,,down,0,0.3019,,-0.001851824,-0.141666695,1,0,0,4.3993,0,43,43,110,1,zuster,images/br_zuster.png,images/cb_zuster.png,0,,,,,,,,,,,,,,,,,,,,,,
,,,,,,00029,2023-09-10_23h01.39.308,vbt_B1_day2,2022.2.4,Win32,60.76441636,,,,,,,,,,,,,,,,,,,,,,,,,,,down,0,0.09,,-0.001851824,-0.141666695,1,0,0,2.8997,0,44,44,80,1,kanjer,images/br_kanjer.png,images/cb_kanjer.png,0,,,,,,,,,,,,,,,,,,,,,,
,,,,,,00029,2023-09-10_23h01.39.308,vbt_B1_day2,2022.2.4,Win32,60.76441636,,,,,,,,,,,,,,,,,,,,,,,,,,,down,0,0.0837,,-0.001851824,-0.141666695,1,0,0,0.834,0,45,45,24,1,jurk,images/br_jurk.png,images/cb_jurk.png,0,,,,,,,,,,,,,,,,,,,,,,
,,,,,,00029,2023-09-10_23h01.39.308,vbt_B1_day2,2022.2.4,Win32,60.76441636,,,,,,,,,,,,,,,,,,,,,,,,,,,down,0,5.9497,,-0.001851824,-0.141666695,1,0,0,1.9514,0,46,46,17,1,taal,images/br_taal.png,images/cb_taal.png,1,zaal,,,,,,,,,,,,,,,,,,,,,
,,,,,,00029,2023-09-10_23h01.39.308,vbt_B1_day2,2022.2.4,Win32,60.76441636,,,,,,,,,,,,,,,,,,,,,,,,,,,down,0,64.2921,,-0.001851824,-0.141666695,1,0,0,2.1666,0,47,47,112,1,lukken,images/br_lukken.png,images/cb_lukken.png,0,,,,,,,,,,,,,,,,,,,,,,
,,,,,,00029,2023-09-10_23h01.39.308,vbt_B1_day2,2022.2.4,Win32,60.76441636,,,,,,,,,,,,,,,,,,,,,,,,,,,down,0,0.1741,,-0.001851824,-0.141666695,1,0,0,2.0501,0,48,48,169,1,oprotten,images/br_oprotten.png,images/cb_oprotten.png,0,,,,,,,,,,,,,,,,,,,,,,
,,,,,,00029,2023-09-10_23h01.39.308,vbt_B1_day2,2022.2.4,Win32,60.76441636,,,,,,,,,,,,,,,,,,,,,,,,,,,down,0,71.9288,,-0.001851824,-0.141666695,1,0,0,2.416,0,49,49,178,1,huisdier,images/br_huisdier.png,images/cb_huisdier.png,1,huisdier,,,,,,,,,,,,,,,,,,,,,
,,,,,,00029,2023-09-10_23h01.39.308,vbt_B1_day2,2022.2.4,Win32,60.76441636,,,,,,,,,,,,,,,,,,,,,,,,,,,down,0,0.3016,,-0.001851824,-0.141666695,1,0,0,0.6498,0,50,50,74,1,graaf,images/br_graaf.png,images/cb_graaf.png,0,,,,,,,,,,,,,,,,,,,,,,
,,,,,,00029,2023-09-10_23h01.39.308,vbt_B1_day2,2022.2.4,Win32,60.76441636,,,,,,,,,,,,,,,,,,,,,,,,,,,down,0,0.0838,,-0.001851824,-0.141666695,1,0,0,0.6327,0,51,51,36,1,vuur,images/br_vuur.png,images/cb_vuur.png,0,,,,,,,,,,,,,,,,,,,,,,
,,,,,,00029,2023-09-10_23h01.39.308,vbt_B1_day2,2022.2.4,Win32,60.76441636,,,,,,,,,,,,,,,,,,,,,,,,,,,down,0,0.2542,,-0.001851824,-0.141666695,1,0,0,0.8332,0,52,52,73,1,volop,images/br_volop.png,images/cb_volop.png,0,,,,,,,,,,,,,,,,,,,,,,
,,,,,,00029,2023-09-10_23h01.39.308,vbt_B1_day2,2022.2.4,Win32,60.76441636,,,,,,,,,,,,,,,,,,,,,,,,,,,down,0,36.4221,,-0.001851824,-0.141666695,1,0,0,1.6333,0,53,53,16,1,ziek,images/br_ziek.png,images/cb_ziek.png,1,ziek,,,,,,,,,,,,,,,,,,,,,
,,,,,,00029,2023-09-10_23h01.39.308,vbt_B1_day2,2022.2.4,Win32,60.76441636,,,,,,,,,,,,,,,,,,,,,,,,,,,down,0,0.039,,-0.001851824,-0.141666695,1,0,0,1.2999,0,54,54,75,1,snoep,images/br_snoep.png,images/cb_snoep.png,0,,,,,,,,,,,,,,,,,,,,,,
,,,,,,00029,2023-09-10_23h01.39.308,vbt_B1_day2,2022.2.4,Win32,60.76441636,,,,,,,,,,,,,,,,,,,,,,,,,,,down,0,0.2697,,-0.001851824,-0.141666695,1,0,0,0.6672,0,55,55,144,1,eetlust,images/br_eetlust.png,images/cb_eetlust.png,0,,,,,,,,,,,,,,,,,,,,,,
,,,,,,00029,2023-09-10_23h01.39.308,vbt_B1_day2,2022.2.4,Win32,60.76441636,,,,,,,,,,,,,,,,,,,,,,,,,,,down,0,0.0963,,-0.001851824,-0.141666695,1,0,0,0.7994,0,56,56,124,1,bloeien,images/br_bloeien.png,images/cb_bloeien.png,0,,,,,,,,,,,,,,,,,,,,,,
,,,,,,00029,2023-09-10_23h01.39.308,vbt_B1_day2,2022.2.4,Win32,60.76441636,,,,,,,,,,,,,,,,,,,,,,,,,,,down,0,0.2199,,-0.001851824,-0.141666695,1,0,0,0.9665,0,57,57,128,1,prikken,images/br_prikken.png,images/cb_prikken.png,0,,,,,,,,,,,,,,,,,,,,,,
,,,,,,00029,2023-09-10_23h01.39.308,vbt_B1_day2,2022.2.4,Win32,60.76441636,,,,,,,,,,,,,,,,,,,,,,,,,,,down,0,0.402,,-0.001851824,-0.141666695,1,0,0,0.7493,0,58,58,119,1,liefje,images/br_liefje.png,images/cb_liefje.png,0,,,,,,,,,,,,,,,,,,,,,,
,,,,,,00029,2023-09-10_23h01.39.308,vbt_B1_day2,2022.2.4,Win32,60.76441636,,,,,,,,,,,,,,,,,,,,,,,,,,,down,0,0.6711,,-0.001851824,-0.141666695,1,0,0,0.9002,0,59,59,158,1,innemen,images/br_innemen.png,images/cb_innemen.png,0,,,,,,,,,,,,,,,,,,,,,,
,,,,,,00029,2023-09-10_23h01.39.308,vbt_B1_day2,2022.2.4,Win32,60.76441636,,,,,,,,,,,,,,,,,,,,,,,,,,,down,0,0.1446,,-0.001851824,-0.141666695,1,0,0,0.6335,0,60,60,70,1,ijdel,images/br_ijdel.png,images/cb_ijdel.png,0,,,,,,,,,,,,,,,,,,,,,,
,,,,,,00029,2023-09-10_23h01.39.308,vbt_B1_day2,2022.2.4,Win32,60.76441636,,,,,,,,,,,,,,,,,,,,,,,,,,,down,0,0.4082,,-0.001851824,-0.141666695,1,0,0,2.3498,0,61,61,173,1,apparaat,images/br_apparaat.png,images/cb_apparaat.png,0,,,,,,,,,,,,,,,,,,,,,,
,,,,,,00029,2023-09-10_23h01.39.308,vbt_B1_day2,2022.2.4,Win32,60.76441636,,,,,,,,,,,,,,,,,,,,,,,,,,,down,0,1.2615,,-0.001851824,-0.141666695,1,0,0,0.7,0,62,62,34,1,vorm,images/br_vorm.png,images/cb_vorm.png,0,,,,,,,,,,,,,,,,,,,,,,
,,,,,,00029,2023-09-10_23h01.39.308,vbt_B1_day2,2022.2.4,Win32,60.76441636,,,,,,,,,,,,,,,,,,,,,,,,,,,down,0,0.7399,,-0.001851824,-0.141666695,1,0,0,0.9654,0,63,63,54,1,gebit,images/br_gebit.png,images/cb_gebit.png,0,,,,,,,,,,,,,,,,,,,,,,
,,,,,,00029,2023-09-10_23h01.39.308,vbt_B1_day2,2022.2.4,Win32,60.76441636,,,,,,,,,,,,,,,,,,,,,,,,,,,down,0,2.2681,,-0.001851824,-0.141666695,1,0,0,0.9499,0,64,64,33,1,vlek,images/br_vlek.png,images/cb_vlek.png,0,,,,,,,,,,,,,,,,,,,,,,
,,,,,,00029,2023-09-10_23h01.39.308,vbt_B1_day2,2022.2.4,Win32,60.76441636,,,,,,,,,,,,,,,,,,,,,,,,,,,down,0,0.544,,-0.001851824,-0.141666695,1,0,0,0.8336,0,65,65,32,1,palm,images/br_palm.png,images/cb_palm.png,0,,,,,,,,,,,,,,,,,,,,,,
,,,,,,00029,2023-09-10_23h01.39.308,vbt_B1_day2,2022.2.4,Win32,60.76441636,,,,,,,,,,,,,,,,,,,,,,,,,,,down,0,0.5535,,-0.001851824,-0.141666695,1,0,0,0.7991,0,66,66,55,1,praat,images/br_praat.png,images/cb_praat.png,0,,,,,,,,,,,,,,,,,,,,,,
,,,,,,00029,2023-09-10_23h01.39.308,vbt_B1_day2,2022.2.4,Win32,60.76441636,,,,,,,,,,,,,,,,,,,,,,,,,,,down,0,44.1829,,-0.001851824,-0.141666695,1,0,0,6.8346,0,67,67,57,1,steek,images/br_steek.png,images/cb_steek.png,1,steeksteek,,,,,,,,,,,,,,,,,,,,,
,,,,,,00029,2023-09-10_23h01.39.308,vbt_B1_day2,2022.2.4,Win32,60.76441636,,,,,,,,,,,,,,,,,,,,,,,,,,,down,0,0.5495,,-0.001851824,-0.141666695,1,0,0,1.0492,0,68,68,47,1,kabel,images/br_kabel.png,images/cb_kabel.png,0,,,,,,,,,,,,,,,,,,,,,,
,,,,,,00029,2023-09-10_23h01.39.308,vbt_B1_day2,2022.2.4,Win32,60.76441636,,,,,,,,,,,,,,,,,,,,,,,,,,,down,0,0.3854,,-0.001851824,-0.141666695,1,0,0,0.9495,0,69,69,35,1,lust,images/br_lust.png,images/cb_lust.png,0,,,,,,,,,,,,,,,,,,,,,,
,,,,,,00029,2023-09-10_23h01.39.308,vbt_B1_day2,2022.2.4,Win32,60.76441636,,,,,,,,,,,,,,,,,,,,,,,,,,,down,0,2.071,,-0.001851824,-0.141666695,1,0,0,0.6665,0,70,70,3,1,mand,images/br_mand.png,images/cb_mand.png,0,,,,,,,,,,,,,,,,,,,,,,
,,,,,,00029,2023-09-10_23h01.39.308,vbt_B1_day2,2022.2.4,Win32,60.76441636,,,,,,,,,,,,,,,,,,,,,,,,,,,down,0,3.8348,,-0.001851824,-0.141666695,1,0,0,7.5662,0,71,71,167,1,eenhoorn,images/br_eenhoorn.png,images/cb_eenhoorn.png,0,,,,,,,,,,,,,,,,,,,,,,
,,,,,,00029,2023-09-10_23h01.39.308,vbt_B1_day2,2022.2.4,Win32,60.76441636,,,,,,,,,,,,,,,,,,,,,,,,,,,down,0,2.2497,,-0.001851824,-0.141666695,1,0,0,1.1489,0,72,72,192,1,schaamte,images/br_schaamte.png,images/cb_schaamte.png,0,,,,,,,,,,,,,,,,,,,,,,
,,,,,,00029,2023-09-10_23h01.39.308,vbt_B1_day2,2022.2.4,Win32,60.76441636,,,,,,,,,,,,,,,,,,,,,,,,,,,down,0,1.0021,,-0.001851824,-0.141666695,1,0,0,1.0832,0,73,73,61,1,groen,images/br_groen.png,images/cb_groen.png,0,,,,,,,,,,,,,,,,,,,,,,
,,,,,,00029,2023-09-10_23h01.39.308,vbt_B1_day2,2022.2.4,Win32,60.76441636,,,,,,,,,,,,,,,,,,,,,,,,,,,down,0,2.3916,,-0.001851824,-0.141666695,1,0,0,1.8494,0,74,74,30,1,uien,images/br_uien.png,images/cb_uien.png,0,,,,,,,,,,,,,,,,,,,,,,
,,,,,,00029,2023-09-10_23h01.39.308,vbt_B1_day2,2022.2.4,Win32,60.76441636,,,,,,,,,,,,,,,,,,,,,,,,,,,down,0,36.5836,,-0.001851824,-0.141666695,1,0,0,15.1338,0,75,75,18,1,blik,images/br_blik.png,images/cb_blik.png,1,blik,,,,,,,,,,,,,,,,,,,,,
,,,,,,00029,2023-09-10_23h01.39.308,vbt_B1_day2,2022.2.4,Win32,60.76441636,,,,,,,,,,,,,,,,,,,,,,,,,,,down,0,0.0414,,-0.001851824,-0.141666695,1,0,0,0.9338,0,76,76,103,1,joggen,images/br_joggen.png,images/cb_joggen.png,0,,,,,,,,,,,,,,,,,,,,,,
,,,,,,00029,2023-09-10_23h01.39.308,vbt_B1_day2,2022.2.4,Win32,60.76441636,,,,,,,,,,,,,,,,,,,,,,,,,,,down,0,0.1532,,-0.001851824,-0.141666695,1,0,0,0.7995,0,77,77,148,1,smullen,images/br_smullen.png,images/cb_smullen.png,0,,,,,,,,,,,,,,,,,,,,,,
,,,,,,00029,2023-09-10_23h01.39.308,vbt_B1_day2,2022.2.4,Win32,60.76441636,,,,,,,,,,,,,,,,,,,,,,,,,,,down,0,0.293,,-0.001851824,-0.141666695,1,0,0,0.6668,0,78,78,79,1,nodig,images/br_nodig.png,images/cb_nodig.png,0,,,,,,,,,,,,,,,,,,,,,,
,,,,,,00029,2023-09-10_23h01.39.308,vbt_B1_day2,2022.2.4,Win32,60.76441636,,,,,,,,,,,,,,,,,,,,,,,,,,,down,0,23.8668,,-0.001851824,-0.141666695,1,0,0,1.5341,0,79,79,137,1,trekker,images/br_trekker.png,images/cb_trekker.png,1,trekker,,,,,,,,,,,,,,,,,,,,,
,,,,,,00029,2023-09-10_23h01.39.308,vbt_B1_day2,2022.2.4,Win32,60.76441636,,,,,,,,,,,,,,,,,,,,,,,,,,,down,0,0.2947,,-0.001851824,-0.141666695,1,0,0,0.5669,0,80,80,15,1,soda,images/br_soda.png,images/cb_soda.png,0,,,,,,,,,,,,,,,,,,,,,,
,,,,,,00029,2023-09-10_23h01.39.308,vbt_B1_day2,2022.2.4,Win32,60.76441636,,,,,,,,,,,,,,,,,,,,,,,,,,,down,0,1.713,,-0.001851824,-0.141666695,1,0,0,0.933,0,81,81,92,1,geheim,images/br_geheim.png,images/cb_geheim.png,0,,,,,,,,,,,,,,,,,,,,,,
,,,,,,00029,2023-09-10_23h01.39.308,vbt_B1_day2,2022.2.4,Win32,60.76441636,,,,,,,,,,,,,,,,,,,,,,,,,,,down,0,0.6033,,-0.001851824,-0.141666695,1,0,0,0.6681,0,82,82,76,1,afval,images/br_afval.png,images/cb_afval.png,0,,,,,,,,,,,,,,,,,,,,,,
,,,,,,00029,2023-09-10_23h01.39.308,vbt_B1_day2,2022.2.4,Win32,60.76441636,,,,,,,,,,,,,,,,,,,,,,,,,,,down,0,0.0737,,-0.001851824,-0.141666695,1,0,0,0.6988,0,83,83,118,1,vinger,images/br_vinger.png,images/cb_vinger.png,0,,,,,,,,,,,,,,,,,,,,,,
,,,,,,00029,2023-09-10_23h01.39.308,vbt_B1_day2,2022.2.4,Win32,60.76441636,,,,,,,,,,,,,,,,,,,,,,,,,,,down,0,0.3199,,-0.001851824,-0.141666695,1,0,0,0.6666,0,84,84,37,1,mijn,images/br_mijn.png,images/cb_mijn.png,0,,,,,,,,,,,,,,,,,,,,,,
,,,,,,00029,2023-09-10_23h01.39.308,vbt_B1_day2,2022.2.4,Win32,60.76441636,,,,,,,,,,,,,,,,,,,,,,,,,,,down,0,3.1737,,-0.001851824,-0.141666695,1,0,0,0.5002,0,85,85,42,1,bleek,images/br_bleek.png,images/cb_bleek.png,0,,,,,,,,,,,,,,,,,,,,,,
,,,,,,00029,2023-09-10_23h01.39.308,vbt_B1_day2,2022.2.4,Win32,60.76441636,,,,,,,,,,,,,,,,,,,,,,,,,,,down,0,1.0003,,-0.001851824,-0.141666695,1,0,0,0.6499,0,86,86,132,1,grappen,images/br_grappen.png,images/cb_grappen.png,0,,,,,,,,,,,,,,,,,,,,,,
,,,,,,00029,2023-09-10_23h01.39.308,vbt_B1_day2,2022.2.4,Win32,60.76441636,,,,,,,,,,,,,,,,,,,,,,,,,,,down,0,0.466,,-0.001851824,-0.141666695,1,0,0,0.6333,0,87,87,168,1,bisschop,images/br_bisschop.png,images/cb_bisschop.png,0,,,,,,,,,,,,,,,,,,,,,,
,,,,,,00029,2023-09-10_23h01.39.308,vbt_B1_day2,2022.2.4,Win32,60.76441636,,,,,,,,,,,,,,,,,,,,,,,,,,,down,0,26.933,,-0.001851824,-0.141666695,1,0,0,1.1658,0,88,88,97,1,loyaal,images/br_loyaal.png,images/cb_loyaal.png,1,loyaal,,,,,,,,,,,,,,,,,,,,,
,,,,,,00029,2023-09-10_23h01.39.308,vbt_B1_day2,2022.2.4,Win32,60.76441636,,,,,,,,,,,,,,,,,,,,,,,,,,,down,0,0.102,,-0.001851824,-0.141666695,1,0,0,0.6665,0,89,89,88,1,boeien,images/br_boeien.png,images/cb_boeien.png,0,,,,,,,,,,,,,,,,,,,,,,
,,,,,,00029,2023-09-10_23h01.39.308,vbt_B1_day2,2022.2.4,Win32,60.76441636,,,,,,,,,,,,,,,,,,,,,,,,,,,down,0,1.2711,,-0.001851824,-0.141666695,1,0,0,0.7329,0,90,90,86,1,woning,images/br_woning.png,images/cb_woning.png,0,,,,,,,,,,,,,,,,,,,,,,
,,,,,,00029,2023-09-10_23h01.39.308,vbt_B1_day2,2022.2.4,Win32,60.76441636,,,,,,,,,,,,,,,,,,,,,,,,,,,down,0,0.3054,,-0.001851824,-0.141666695,1,0,0,0.5997,0,91,91,12,1,kust,images/br_kust.png,images/cb_kust.png,0,,,,,,,,,,,,,,,,,,,,,,
,,,,,,00029,2023-09-10_23h01.39.308,vbt_B1_day2,2022.2.4,Win32,60.76441636,,,,,,,,,,,,,,,,,,,,,,,,,,,down,0,0.5083,,-0.001851824,-0.141666695,1,0,0,0.5994,0,92,92,146,1,opkomen,images/br_opkomen.png,images/cb_opkomen.png,0,,,,,,,,,,,,,,,,,,,,,,
,,,,,,00029,2023-09-10_23h01.39.308,vbt_B1_day2,2022.2.4,Win32,60.76441636,,,,,,,,,,,,,,,,,,,,,,,,,,,down,0,0.418,,-0.001851824,-0.141666695,1,0,0,0.5497,0,93,93,165,1,feestdag,images/br_feestdag.png,images/cb_feestdag.png,0,,,,,,,,,,,,,,,,,,,,,,
,,,,,,00029,2023-09-10_23h01.39.308,vbt_B1_day2,2022.2.4,Win32,60.76441636,,,,,,,,,,,,,,,,,,,,,,,,,,,down,0,1.352,,-0.001851824,-0.141666695,1,0,0,0.4327,0,94,94,174,1,stemming,images/br_stemming.png,images/cb_stemming.png,0,,,,,,,,,,,,,,,,,,,,,,
,,,,,,00029,2023-09-10_23h01.39.308,vbt_B1_day2,2022.2.4,Win32,60.76441636,,,,,,,,,,,,,,,,,,,,,,,,,,,down,0,0.4751,,-0.001851824,-0.141666695,1,0,0,0.7502,0,95,95,45,1,piste,images/br_piste.png,images/cb_piste.png,0,,,,,,,,,,,,,,,,,,,,,,
,,,,,,00029,2023-09-10_23h01.39.308,vbt_B1_day2,2022.2.4,Win32,60.76441636,,,,,,,,,,,,,,,,,,,,,,,,,,,down,0,2.9927,,-0.001851824,-0.141666695,1,0,0,0.634,0,96,96,104,1,zweven,images/br_zweven.png,images/cb_zweven.png,0,,,,,,,,,,,,,,,,,,,,,,
,,,,,,00029,2023-09-10_23h01.39.308,vbt_B1_day2,2022.2.4,Win32,60.76441636,,,,,,,,,,,,,,,,,,,,,,,,,,,down,0,3.4173,,-0.001851824,-0.141666695,1,0,0,0.8328,0,97,97,155,1,gerucht,images/br_gerucht.png,images/cb_gerucht.png,0,,,,,,,,,,,,,,,,,,,,,,
,,,,,,00029,2023-09-10_23h01.39.308,vbt_B1_day2,2022.2.4,Win32,60.76441636,,,,,,,,,,,,,,,,,,,,,,,,,,,down,0,1.8582,,-0.001851824,-0.141666695,1,0,0,0.8986,0,98,98,46,1,jagen,images/br_jagen.png,images/cb_jagen.png,0,,,,,,,,,,,,,,,,,,,,,,
,,,,,,00029,2023-09-10_23h01.39.308,vbt_B1_day2,2022.2.4,Win32,60.76441636,,,,,,,,,,,,,,,,,,,,,,,,,,,down,0,0.3404,,-0.001851824,-0.141666695,1,0,0,0.6665,0,99,99,186,1,voorraad,images/br_voorraad.png,images/cb_voorraad.png,0,,,,,,,,,,,,,,,,,,,,,,
,,,,,,00029,2023-09-10_23h01.39.308,vbt_B1_day2,2022.2.4,Win32,60.76441636,,,,,,,,,,,,,,,,,,,,,,,,,,,down,0,0.7548,,-0.001851824,-0.141666695,1,0,0,0.7166,0,100,100,13,1,kaal,images/br_kaal.png,images/cb_kaal.png,0,,,,,,,,,,,,,,,,,,,,,,
,,,,,,00029,2023-09-10_23h01.39.308,vbt_B1_day2,2022.2.4,Win32,60.76441636,,,,,,,,,,,,,,,,,,,,,,,,,,,down,0,0.1848,,-0.001851824,-0.141666695,1,0,0,0.6666,0,101,101,164,1,anarchie,images/br_anarchie.png,images/cb_anarchie.png,0,,,,,,,,,,,,,,,,,,,,,,
,,,,,,00029,2023-09-10_23h01.39.308,vbt_B1_day2,2022.2.4,Win32,60.76441636,,,,,,,,,,,,,,,,,,,,,,,,,,,down,0,0.4574,,-0.001851824,-0.141666695,1,0,0,0.5499,0,102,102,49,1,laken,images/br_laken.png,images/cb_laken.png,0,,,,,,,,,,,,,,,,,,,,,,
,,,,,,00029,2023-09-10_23h01.39.308,vbt_B1_day2,2022.2.4,Win32,60.76441636,,,,,,,,,,,,,,,,,,,,,,,,,,,down,0,2.9831,,-0.001851824,-0.141666695,1,0,0,0.5668,0,103,103,91,1,gezond,images/br_gezond.png,images/cb_gezond.png,0,,,,,,,,,,,,,,,,,,,,,,
,,,,,,00029,2023-09-10_23h01.39.308,vbt_B1_day2,2022.2.4,Win32,60.76441636,,,,,,,,,,,,,,,,,,,,,,,,,,,down,0,30.7675,,-0.001851824,-0.141666695,1,0,0,1.3332,0,104,104,139,1,stiekem,images/br_stiekem.png,images/cb_stiekem.png,1,stiekem,,,,,,,,,,,,,,,,,,,,,
,,,,,,00029,2023-09-10_23h01.39.308,vbt_B1_day2,2022.2.4,Win32,60.76441636,,,,,,,,,,,,,,,,,,,,,,,,,,,down,0,23.2948,,-0.001851824,-0.141666695,1,0,0,1.55,0,105,105,136,1,waarbij,images/br_waarbij.png,images/cb_waarbij.png,1,waarbij,,,,,,,,,,,,,,,,,,,,,
,,,,,,00029,2023-09-10_23h01.39.308,vbt_B1_day2,2022.2.4,Win32,60.76441636,,,,,,,,,,,,,,,,,,,,,,,,,,,down,0,52.2909,,-0.001851824,-0.141666695,1,0,0,1.5167,0,106,106,177,1,maaltijd,images/br_maaltijd.png,images/cb_maaltijd.png,1,maaltijd,,,,,,,,,,,,,,,,,,,,,
,,,,,,00029,2023-09-10_23h01.39.308,vbt_B1_day2,2022.2.4,Win32,60.76441636,,,,,,,,,,,,,,,,,,,,,,,,,,,down,0,0.2015,,-0.001851824,-0.141666695,1,0,0,0.7002,0,107,107,43,1,klauw,images/br_klauw.png,images/cb_klauw.png,0,,,,,,,,,,,,,,,,,,,,,,
,,,,,,00029,2023-09-10_23h01.39.308,vbt_B1_day2,2022.2.4,Win32,60.76441636,,,,,,,,,,,,,,,,,,,,,,,,,,,down,0,0.4603,,-0.001851824,-0.141666695,1,0,0,0.5834,0,108,108,5,1,blad,images/br_blad.png,images/cb_blad.png,0,,,,,,,,,,,,,,,,,,,,,,
,,,,,,00029,2023-09-10_23h01.39.308,vbt_B1_day2,2022.2.4,Win32,60.76441636,,,,,,,,,,,,,,,,,,,,,,,,,,,down,0,0.3924,,-0.001851824,-0.141666695,1,0,0,0.6494,0,109,109,2,1,jaar,images/br_jaar.png,images/cb_jaar.png,0,,,,,,,,,,,,,,,,,,,,,,
,,,,,,00029,2023-09-10_23h01.39.308,vbt_B1_day2,2022.2.4,Win32,60.76441636,,,,,,,,,,,,,,,,,,,,,,,,,,,down,0,1.5047,,-0.001851824,-0.141666695,1,0,0,0.7482,0,110,110,26,1,leuk,images/br_leuk.png,images/cb_leuk.png,0,,,,,,,,,,,,,,,,,,,,,,
,,,,,,00029,2023-09-10_23h01.39.308,vbt_B1_day2,2022.2.4,Win32,60.76441636,,,,,,,,,,,,,,,,,,,,,,,,,,,down,0,1.6575,,-0.001851824,-0.141666695,1,0,0,0.6668,0,111,111,14,1,rijp,images/br_rijp.png,images/cb_rijp.png,0,,,,,,,,,,,,,,,,,,,,,,
,,,,,,00029,2023-09-10_23h01.39.308,vbt_B1_day2,2022.2.4,Win32,60.76441636,,,,,,,,,,,,,,,,,,,,,,,,,,,down,0,0.5351,,-0.001851824,-0.141666695,1,0,0,0.5333,0,112,112,172,1,weigeren,images/br_weigeren.png,images/cb_weigeren.png,0,,,,,,,,,,,,,,,,,,,,,,
,,,,,,00029,2023-09-10_23h01.39.308,vbt_B1_day2,2022.2.4,Win32,60.76441636,,,,,,,,,,,,,,,,,,,,,,,,,,,down,0,0.6404,,-0.001851824,-0.141666695,1,0,0,0.7659,0,113,113,170,1,schatten,images/br_schatten.png,images/cb_schatten.png,0,,,,,,,,,,,,,,,,,,,,,,
,,,,,,00029,2023-09-10_23h01.39.308,vbt_B1_day2,2022.2.4,Win32,60.76441636,,,,,,,,,,,,,,,,,,,,,,,,,,,down,0,0.3513,,-0.001851824,-0.141666695,1,0,0,0.6837,0,114,114,129,1,verhaal,images/br_verhaal.png,images/cb_verhaal.png,0,,,,,,,,,,,,,,,,,,,,,,
,,,,,,00029,2023-09-10_23h01.39.308,vbt_B1_day2,2022.2.4,Win32,60.76441636,,,,,,,,,,,,,,,,,,,,,,,,,,,down,0,0.4959,,-0.001851824,-0.141666695,1,0,0,0.667,0,115,115,193,1,weeshuis,images/br_weeshuis.png,images/cb_weeshuis.png,0,,,,,,,,,,,,,,,,,,,,,,
,,,,,,00029,2023-09-10_23h01.39.308,vbt_B1_day2,2022.2.4,Win32,60.76441636,,,,,,,,,,,,,,,,,,,,,,,,,,,down,0,0.5969,,-0.001851824,-0.141666695,1,0,0,0.5667,0,116,116,126,1,kasteel,images/br_kasteel.png,images/cb_kasteel.png,0,,,,,,,,,,,,,,,,,,,,,,
,,,,,,00029,2023-09-10_23h01.39.308,vbt_B1_day2,2022.2.4,Win32,60.76441636,,,,,,,,,,,,,,,,,,,,,,,,,,,down,0,0.2892,,-0.001851824,-0.141666695,1,0,0,0.5336,0,117,117,135,1,gedicht,images/br_gedicht.png,images/cb_gedicht.png,0,,,,,,,,,,,,,,,,,,,,,,
,,,,,,00029,2023-09-10_23h01.39.308,vbt_B1_day2,2022.2.4,Win32,60.76441636,,,,,,,,,,,,,,,,,,,,,,,,,,,down,0,0.017,,-0.001851824,-0.141666695,1,0,0,0.5161,0,118,118,111,1,ticket,images/br_ticket.png,images/cb_ticket.png,0,,,,,,,,,,,,,,,,,,,,,,
,,,,,,00029,2023-09-10_23h01.39.308,vbt_B1_day2,2022.2.4,Win32,60.76441636,,,,,,,,,,,,,,,,,,,,,,,,,,,down,0,0.9574,,-0.001851824,-0.141666695,1,0,0,0.6331,0,119,119,28,1,stal,images/br_stal.png,images/cb_stal.png,0,,,,,,,,,,,,,,,,,,,,,,
,,,,,,00029,2023-09-10_23h01.39.308,vbt_B1_day2,2022.2.4,Win32,60.76441636,,,,,,,,,,,,,,,,,,,,,,,,,,,down,0,29.0073,,-0.001851824,-0.141666695,1,0,0,1,0,120,120,98,1,kreeft,images/br_kreeft.png,images/cb_kreeft.png,1,kreeft,,,,,,,,,,,,,,,,,,,,,
,,,,,,00029,2023-09-10_23h01.39.308,vbt_B1_day2,2022.2.4,Win32,60.76441636,,,,,,,,,,,,,,,,,,,,,,,,,,,down,0,0.6338,,-0.001851824,-0.141666695,1,0,0,0.6173,0,121,121,84,1,lokken,images/br_lokken.png,images/cb_lokken.png,0,,,,,,,,,,,,,,,,,,,,,,
,,,,,,00029,2023-09-10_23h01.39.308,vbt_B1_day2,2022.2.4,Win32,60.76441636,,,,,,,,,,,,,,,,,,,,,,,,,,,down,0,0.0364,,-0.001851824,-0.141666695,1,0,0,0.5827,0,122,122,78,1,leren,images/br_leren.png,images/cb_leren.png,0,,,,,,,,,,,,,,,,,,,,,,
,,,,,,00029,2023-09-10_23h01.39.308,vbt_B1_day2,2022.2.4,Win32,60.76441636,,,,,,,,,,,,,,,,,,,,,,,,,,,down,0,0.1688,,-0.001851824,-0.141666695,1,0,0,0.5168,0,123,123,27,1,dans,images/br_dans.png,images/cb_dans.png,0,,,,,,,,,,,,,,,,,,,,,,
,,,,,,00029,2023-09-10_23h01.39.308,vbt_B1_day2,2022.2.4,Win32,60.76441636,,,,,,,,,,,,,,,,,,,,,,,,,,,down,0,0.0281,,-0.001851824,-0.141666695,1,0,0,0.4835,0,124,124,52,1,wagon,images/br_wagon.png,images/cb_wagon.png,0,,,,,,,,,,,,,,,,,,,,,,
,,,,,,00029,2023-09-10_23h01.39.308,vbt_B1_day2,2022.2.4,Win32,60.76441636,,,,,,,,,,,,,,,,,,,,,,,,,,,down,0,0.3844,,-0.001851824,-0.141666695,1,0,0,0.5332,0,125,125,38,1,baai,images/br_baai.png,images/cb_baai.png,0,,,,,,,,,,,,,,,,,,,,,,
,,,,,,00029,2023-09-10_23h01.39.308,vbt_B1_day2,2022.2.4,Win32,60.76441636,,,,,,,,,,,,,,,,,,,,,,,,,,,down,0,7.7169,,-0.001851824,-0.141666695,1,0,0,3.1491,0,126,126,19,1,geit,images/br_geit.png,images/cb_geit.png,1,geit,,,,,,,,,,,,,,,,,,,,,
,,,,,,00029,2023-09-10_23h01.39.308,vbt_B1_day2,2022.2.4,Win32,60.76441636,,,,,,,,,,,,,,,,,,,,,,,,,,,down,0,3.2893,,-0.001851824,-0.141666695,1,0,0,0.9996,0,127,127,60,1,jasje,images/br_jasje.png,images/cb_jasje.png,0,,,,,,,,,,,,,,,,,,,,,,
,,,,,,00029,2023-09-10_23h01.39.308,vbt_B1_day2,2022.2.4,Win32,60.76441636,,,,,,,,,,,,,,,,,,,,,,,,,,,down,0,22.3254,,-0.001851824,-0.141666695,1,0,0,1.1482,0,128,128,99,1,koffie,images/br_koffie.png,images/cb_koffie.png,1,koffie,,,,,,,,,,,,,,,,,,,,,
,,,,,,00029,2023-09-10_23h01.39.308,vbt_B1_day2,2022.2.4,Win32,60.76441636,,,,,,,,,,,,,,,,,,,,,,,,,,,down,0,0.2021,,-0.001851824,-0.141666695,1,0,0,0.5832,0,129,129,130,1,keihard,images/br_keihard.png,images/cb_keihard.png,0,,,,,,,,,,,,,,,,,,,,,,
,,,,,,00029,2023-09-10_23h01.39.308,vbt_B1_day2,2022.2.4,Win32,60.76441636,,,,,,,,,,,,,,,,,,,,,,,,,,,down,0,0.61,,-0.001851824,-0.141666695,1,0,0,0.6169,0,130,130,184,1,aandelen,images/br_aandelen.png,images/cb_aandelen.png,0,,,,,,,,,,,,,,,,,,,,,,
,,,,,,00029,2023-09-10_23h01.39.308,vbt_B1_day2,2022.2.4,Win32,60.76441636,,,,,,,,,,,,,,,,,,,,,,,,,,,down,0,0.7866,,-0.001851824,-0.141666695,1,0,0,0.5668,0,131,131,116,1,besmet,images/br_besmet.png,images/cb_besmet.png,0,,,,,,,,,,,,,,,,,,,,,,
,,,,,,00029,2023-09-10_23h01.39.308,vbt_B1_day2,2022.2.4,Win32,60.76441636,,,,,,,,,,,,,,,,,,,,,,,,,,,down,0,0.2426,,-0.001851824,-0.141666695,1,0,0,0.5166,0,132,132,171,1,aarzelen,images/br_aarzelen.png,images/cb_aarzelen.png,0,,,,,,,,,,,,,,,,,,,,,,
,,,,,,00029,2023-09-10_23h01.39.308,vbt_B1_day2,2022.2.4,Win32,60.76441636,,,,,,,,,,,,,,,,,,,,,,,,,,,down,0,0.3356,,-0.001851824,-0.141666695,1,0,0,0.7002,0,133,133,106,1,zingen,images/br_zingen.png,images/cb_zingen.png,0,,,,,,,,,,,,,,,,,,,,,,
,,,,,,00029,2023-09-10_23h01.39.308,vbt_B1_day2,2022.2.4,Win32,60.76441636,,,,,,,,,,,,,,,,,,,,,,,,,,,down,0,0.6906,,-0.001851824,-0.141666695,1,0,0,0.5169,0,134,134,134,1,geliefd,images/br_geliefd.png,images/cb_geliefd.png,0,,,,,,,,,,,,,,,,,,,,,,
,,,,,,00029,2023-09-10_23h01.39.308,vbt_B1_day2,2022.2.4,Win32,60.76441636,,,,,,,,,,,,,,,,,,,,,,,,,,,down,0,0.9383,,-0.001851824,-0.141666695,1,0,0,0.5337,0,135,135,25,1,plek,images/br_plek.png,images/cb_plek.png,0,,,,,,,,,,,,,,,,,,,,,,
,,,,,,00029,2023-09-10_23h01.39.308,vbt_B1_day2,2022.2.4,Win32,60.76441636,,,,,,,,,,,,,,,,,,,,,,,,,,,down,0,0.0275,,-0.001851824,-0.141666695,1,0,0,0.6668,0,136,136,39,1,laag,images/br_laag.png,images/cb_laag.png,0,,,,,,,,,,,,,,,,,,,,,,
,,,,,,00029,2023-09-10_23h01.39.308,vbt_B1_day2,2022.2.4,Win32,60.76441636,,,,,,,,,,,,,,,,,,,,,,,,,,,down,0,0.7543,,-0.001851824,-0.141666695,1,0,0,0.4668,0,137,137,120,1,klimmen,images/br_klimmen.png,images/cb_klimmen.png,0,,,,,,,,,,,,,,,,,,,,,,
,,,,,,00029,2023-09-10_23h01.39.308,vbt_B1_day2,2022.2.4,Win32,60.76441636,,,,,,,,,,,,,,,,,,,,,,,,,,,down,0,0.3204,,-0.001851824,-0.141666695,1,0,0,0.45,0,138,138,109,1,totaal,images/br_totaal.png,images/cb_totaal.png,0,,,,,,,,,,,,,,,,,,,,,,
,,,,,,00029,2023-09-10_23h01.39.308,vbt_B1_day2,2022.2.4,Win32,60.76441636,,,,,,,,,,,,,,,,,,,,,,,,,,,down,0,0.6414,,-0.001851824,-0.141666695,1,0,0,0.4667,0,139,139,64,1,wegen,images/br_wegen.png,images/cb_wegen.png,0,,,,,,,,,,,,,,,,,,,,,,
,,,,,,00029,2023-09-10_23h01.39.308,vbt_B1_day2,2022.2.4,Win32,60.76441636,,,,,,,,,,,,,,,,,,,,,,,,,,,down,0,0.7661,,-0.001851824,-0.141666695,1,0,0,0.4333,0,140,140,160,1,daarheen,images/br_daarheen.png,images/cb_daarheen.png,0,,,,,,,,,,,,,,,,,,,,,,
,,,,,,00029,2023-09-10_23h01.39.308,vbt_B1_day2,2022.2.4,Win32,60.76441636,,,,,,,,,,,,,,,,,,,,,,,,,,,down,0,0.4689,,-0.001851824,-0.141666695,1,0,0,0.4999,0,141,141,23,1,zout,images/br_zout.png,images/cb_zout.png,0,,,,,,,,,,,,,,,,,,,,,,
,,,,,,00029,2023-09-10_23h01.39.308,vbt_B1_day2,2022.2.4,Win32,60.76441636,,,,,,,,,,,,,,,,,,,,,,,,,,,down,0,1.6958,,-0.001851824,-0.141666695,1,0,0,0.5163,0,142,142,149,1,redding,images/br_redding.png,images/cb_redding.png,0,,,,,,,,,,,,,,,,,,,,,,
,,,,,,00029,2023-09-10_23h01.39.308,vbt_B1_day2,2022.2.4,Win32,60.76441636,,,,,,,,,,,,,,,,,,,,,,,,,,,down,0,2.2356,,-0.001851824,-0.141666695,1,0,0,0.5501,0,143,143,159,1,sufferd,images/br_sufferd.png,images/cb_sufferd.png,0,,,,,,,,,,,,,,,,,,,,,,
,,,,,,00029,2023-09-10_23h01.39.308,vbt_B1_day2,2022.2.4,Win32,60.76441636,,,,,,,,,,,,,,,,,,,,,,,,,,,down,0,0.1483,,-0.001851824,-0.141666695,1,0,0,0.4997,0,144,144,175,1,heengaan,images/br_heengaan.png,images/cb_heengaan.png,0,,,,,,,,,,,,,,,,,,,,,,
,,,,,,00029,2023-09-10_23h01.39.308,vbt_B1_day2,2022.2.4,Win32,60.76441636,,,,,,,,,,,,,,,,,,,,,,,,,,,down,0,0.6045,,-0.001851824,-0.141666695,1,0,0,0.4666,0,145,145,63,1,flirt,images/br_flirt.png,images/cb_flirt.png,0,,,,,,,,,,,,,,,,,,,,,,
,,,,,,00029,2023-09-10_23h01.39.308,vbt_B1_day2,2022.2.4,Win32,60.76441636,,,,,,,,,,,,,,,,,,,,,,,,,,,down,0,0.7045,,-0.001851824,-0.141666695,1,0,0,0.5501,0,146,146,95,1,vreten,images/br_vreten.png,images/cb_vreten.png,0,,,,,,,,,,,,,,,,,,,,,,
,,,,,,00029,2023-09-10_23h01.39.308,vbt_B1_day2,2022.2.4,Win32,60.76441636,,,,,,,,,,,,,,,,,,,,,,,,,,,down,0,1.2585,,-0.001851824,-0.141666695,1,0,0,0.5994,0,147,147,100,1,geduld,images/br_geduld.png,images/cb_geduld.png,0,,,,,,,,,,,,,,,,,,,,,,
,,,,,,00029,2023-09-10_23h01.39.308,vbt_B1_day2,2022.2.4,Win32,60.76441636,,,,,,,,,,,,,,,,,,,,,,,,,,,down,0,1.0902,,-0.001851824,-0.141666695,1,0,0,0.6334,0,148,148,190,1,goedkoop,images/br_goedkoop.png,images/cb_goedkoop.png,0,,,,,,,,,,,,,,,,,,,,,,
,,,,,,00029,2023-09-10_23h01.39.308,vbt_B1_day2,2022.2.4,Win32,60.76441636,,,,,,,,,,,,,,,,,,,,,,,,,,,down,0,45.63,,-0.001851824,-0.141666695,1,0,0,2.4833,0,149,149,96,1,slagen,images/br_slagen.png,images/cb_slagen.png,1,slager,,,,,,,,,,,,,,,,,,,,,
,,,,,,00029,2023-09-10_23h01.39.308,vbt_B1_day2,2022.2.4,Win32,60.76441636,,,,,,,,,,,,,,,,,,,,,,,,,,,down,0,0.0512,,-0.001851824,-0.141666695,1,0,0,0.6333,0,150,150,85,1,heilig,images/br_heilig.png,images/cb_heilig.png,0,,,,,,,,,,,,,,,,,,,,,,
,,,,,,00029,2023-09-10_23h01.39.308,vbt_B1_day2,2022.2.4,Win32,60.76441636,,,,,,,,,,,,,,,,,,,,,,,,,,,down,0,0.6745,,-0.001851824,-0.141666695,1,0,0,0.6495,0,151,151,51,1,samen,images/br_samen.png,images/cb_samen.png,0,,,,,,,,,,,,,,,,,,,,,,
,,,,,,00029,2023-09-10_23h01.39.308,vbt_B1_day2,2022.2.4,Win32,60.76441636,,,,,,,,,,,,,,,,,,,,,,,,,,,down,0,0.1092,,-0.001851824,-0.141666695,1,0,0,0.6848,0,152,152,195,1,middelen,images/br_middelen.png,images/cb_middelen.png,0,,,,,,,,,,,,,,,,,,,,,,
,,,,,,00029,2023-09-10_23h01.39.308,vbt_B1_day2,2022.2.4,Win32,60.76441636,,,,,,,,,,,,,,,,,,,,,,,,,,,down,0,0.4236,,-0.001851824,-0.141666695,1,0,0,0.5182,0,153,153,4,1,moes,images/br_moes.png,images/cb_moes.png,0,,,,,,,,,,,,,,,,,,,,,,
,,,,,,00029,2023-09-10_23h01.39.308,vbt_B1_day2,2022.2.4,Win32,60.76441636,,,,,,,,,,,,,,,,,,,,,,,,,,,down,0,0.341,,-0.001851824,-0.141666695,1,0,0,0.518,0,154,154,151,1,aanzoek,images/br_aanzoek.png,images/cb_aanzoek.png,0,,,,,,,,,,,,,,,,,,,,,,
,,,,,,00029,2023-09-10_23h01.39.308,vbt_B1_day2,2022.2.4,Win32,60.76441636,,,,,,,,,,,,,,,,,,,,,,,,,,,down,0,0.0191,,-0.001851824,-0.141666695,1,0,0,0.4828,0,155,155,81,1,dubbel,images/br_dubbel.png,images/cb_dubbel.png,0,,,,,,,,,,,,,,,,,,,,,,
,,,,,,00029,2023-09-10_23h01.39.308,vbt_B1_day2,2022.2.4,Win32,60.76441636,,,,,,,,,,,,,,,,,,,,,,,,,,,down,0,0.1703,,-0.001851824,-0.141666695,1,0,0,0.5499,0,156,156,101,1,staren,images/br_staren.png,images/cb_staren.png,0,,,,,,,,,,,,,,,,,,,,,,
,,,,,,00029,2023-09-10_23h01.39.308,vbt_B1_day2,2022.2.4,Win32,60.76441636,,,,,,,,,,,,,,,,,,,,,,,,,,,down,0,0.2405,,-0.001851824,-0.141666695,1,0,0,0.6336,0,157,157,11,1,mode,images/br_mode.png,images/cb_mode.png,0,,,,,,,,,,,,,,,,,,,,,,
,,,,,,00029,2023-09-10_23h01.39.308,vbt_B1_day2,2022.2.4,Win32,60.76441636,,,,,,,,,,,,,,,,,,,,,,,,,,,down,0,0.5733,,-0.001851824,-0.141666695,1,0,0,0.783,0,158,158,122,1,waarvan,images/br_waarvan.png,images/cb_waarvan.png,0,,,,,,,,,,,,,,,,,,,,,,
,,,,,,00029,2023-09-10_23h01.39.308,vbt_B1_day2,2022.2.4,Win32,60.76441636,,,,,,,,,,,,,,,,,,,,,,,,,,,down,0,1.8688,,-0.001851824,-0.141666695,1,0,0,0.4494,0,159,159,69,1,waken,images/br_waken.png,images/cb_waken.png,0,,,,,,,,,,,,,,,,,,,,,,
,,,,,,00029,2023-09-10_23h01.39.308,vbt_B1_day2,2022.2.4,Win32,60.76441636,,,,,,,,,,,,,,,,,,,,,,,,,,,down,0,0.2366,,-0.001851824,-0.141666695,1,0,0,0.5161,0,160,160,21,1,mist,images/br_mist.png,images/cb_mist.png,0,,,,,,,,,,,,,,,,,,,,,,
,,,,,,00029,2023-09-10_23h01.39.308,vbt_B1_day2,2022.2.4,Win32,60.76441636,,,,,,,,,,,,,,,,,,,,,,,,,,,down,0,0.1544,,-0.001851824,-0.141666695,1,0,0,0.5661,0,161,161,113,1,koppen,images/br_koppen.png,images/cb_koppen.png,0,,,,,,,,,,,,,,,,,,,,,,
,,,,,,00029,2023-09-10_23h01.39.308,vbt_B1_day2,2022.2.4,Win32,60.76441636,,,,,,,,,,,,,,,,,,,,,,,,,,,down,0,0.8786,,-0.001851824,-0.141666695,1,0,0,0.4831,0,162,162,162,1,uitdelen,images/br_uitdelen.png,images/cb_uitdelen.png,0,,,,,,,,,,,,,,,,,,,,,,
,,,,,,00029,2023-09-10_23h01.39.308,vbt_B1_day2,2022.2.4,Win32,60.76441636,,,,,,,,,,,,,,,,,,,,,,,,,,,down,0,0.2205,,-0.001851824,-0.141666695,1,0,0,0.5331,0,163,163,87,1,toeval,images/br_toeval.png,images/cb_toeval.png,0,,,,,,,,,,,,,,,,,,,,,,
,,,,,,00029,2023-09-10_23h01.39.308,vbt_B1_day2,2022.2.4,Win32,60.76441636,,,,,,,,,,,,,,,,,,,,,,,,,,,down,0,0.0725,,-0.001851824,-0.141666695,1,0,0,0.7997,0,164,164,0,1,slak,images/br_slak.png,images/cb_slak.png,0,,,,,,,,,,,,,,,,,,,,,,
,,,,,,00029,2023-09-10_23h01.39.308,vbt_B1_day2,2022.2.4,Win32,60.76441636,,,,,,,,,,,,,,,,,,,,,,,,,,,down,0,0.0989,,-0.001851824,-0.141666695,1,0,0,0.5662,0,165,165,123,1,hiervan,images/br_hiervan.png,images/cb_hiervan.png,0,,,,,,,,,,,,,,,,,,,,,,
,,,,,,00029,2023-09-10_23h01.39.308,vbt_B1_day2,2022.2.4,Win32,60.76441636,,,,,,,,,,,,,,,,,,,,,,,,,,,down,0,0.5182,,-0.001851824,-0.141666695,1,0,0,0.7503,0,166,166,93,1,waarop,images/br_waarop.png,images/cb_waarop.png,0,,,,,,,,,,,,,,,,,,,,,,
,,,,,,00029,2023-09-10_23h01.39.308,vbt_B1_day2,2022.2.4,Win32,60.76441636,,,,,,,,,,,,,,,,,,,,,,,,,,,down,0,2.6683,,-0.001851824,-0.141666695,1,0,0,0.667,0,167,167,121,1,twijfel,images/br_twijfel.png,images/cb_twijfel.png,0,,,,,,,,,,,,,,,,,,,,,,
,,,,,,00029,2023-09-10_23h01.39.308,vbt_B1_day2,2022.2.4,Win32,60.76441636,,,,,,,,,,,,,,,,,,,,,,,,,,,down,0,0.2677,,-0.001851824,-0.141666695,1,0,0,0.8993,0,168,168,94,1,oceaan,images/br_oceaan.png,images/cb_oceaan.png,0,,,,,,,,,,,,,,,,,,,,,,
,,,,,,00029,2023-09-10_23h01.39.308,vbt_B1_day2,2022.2.4,Win32,60.76441636,,,,,,,,,,,,,,,,,,,,,,,,,,,down,0,2.5664,,-0.001851824,-0.141666695,1,0,0,0.95,0,169,169,199,1,beseffen,images/br_beseffen.png,images/cb_beseffen.png,0,,,,,,,,,,,,,,,,,,,,,,
,,,,,,00029,2023-09-10_23h01.39.308,vbt_B1_day2,2022.2.4,Win32,60.76441636,,,,,,,,,,,,,,,,,,,,,,,,,,,down,0,0.3037,,-0.001851824,-0.141666695,1,0,0,0.5829,0,170,170,66,1,lever,images/br_lever.png,images/cb_lever.png,0,,,,,,,,,,,,,,,,,,,,,,
,,,,,,00029,2023-09-10_23h01.39.308,vbt_B1_day2,2022.2.4,Win32,60.76441636,,,,,,,,,,,,,,,,,,,,,,,,,,,down,0,34.5601,,-0.001851824,-0.141666695,1,0,0,1.483,0,171,171,58,1,tekst,images/br_tekst.png,images/cb_tekst.png,1,tekst,,,,,,,,,,,,,,,,,,,,,
,,,,,,00029,2023-09-10_23h01.39.308,vbt_B1_day2,2022.2.4,Win32,60.76441636,,,,,,,,,,,,,,,,,,,,,,,,,,,down,0,0.3093,,-0.001851824,-0.141666695,1,0,0,0.4485,0,172,172,182,1,bijkomen,images/br_bijkomen.png,images/cb_bijkomen.png,0,,,,,,,,,,,,,,,,,,,,,,
,,,,,,00029,2023-09-10_23h01.39.308,vbt_B1_day2,2022.2.4,Win32,60.76441636,,,,,,,,,,,,,,,,,,,,,,,,,,,down,0,0.3075,,-0.001851824,-0.141666695,1,0,0,0.4501,0,173,173,65,1,parel,images/br_parel.png,images/cb_parel.png,0,,,,,,,,,,,,,,,,,,,,,,
,,,,,,00029,2023-09-10_23h01.39.308,vbt_B1_day2,2022.2.4,Win32,60.76441636,,,,,,,,,,,,,,,,,,,,,,,,,,,down,0,0.7018,,-0.001851824,-0.141666695,1,0,0,0.5828,0,174,174,31,1,poes,images/br_poes.png,images/cb_poes.png,0,,,,,,,,,,,,,,,,,,,,,,
,,,,,,00029,2023-09-10_23h01.39.308,vbt_B1_day2,2022.2.4,Win32,60.76441636,,,,,,,,,,,,,,,,,,,,,,,,,,,down,0,0.636,,-0.001851824,-0.141666695,1,0,0,0.4674,0,175,175,194,1,driemaal,images/br_driemaal.png,images/cb_driemaal.png,0,,,,,,,,,,,,,,,,,,,,,,
,,,,,,00029,2023-09-10_23h01.39.308,vbt_B1_day2,2022.2.4,Win32,60.76441636,,,,,,,,,,,,,,,,,,,,,,,,,,,down,0,1.2216,,-0.001851824,-0.141666695,1,0,0,0.433,0,176,176,107,1,maling,images/br_maling.png,images/cb_maling.png,0,,,,,,,,,,,,,,,,,,,,,,
,,,,,,00029,2023-09-10_23h01.39.308,vbt_B1_day2,2022.2.4,Win32,60.76441636,,,,,,,,,,,,,,,,,,,,,,,,,,,down,0,0.4171,,-0.001851824,-0.141666695,1,0,0,0.5,0,177,177,189,1,aanraden,images/br_aanraden.png,images/cb_aanraden.png,0,,,,,,,,,,,,,,,,,,,,,,
,,,,,,00029,2023-09-10_23h01.39.308,vbt_B1_day2,2022.2.4,Win32,60.76441636,,,,,,,,,,,,,,,,,,,,,,,,,,,down,0,1.4074,,-0.001851824,-0.141666695,1,0,0,0.8994,0,178,178,179,1,woestijn,images/br_woestijn.png,images/cb_woestijn.png,1,,,,,,,,,,,,,,,,,,,,,,
,,,,,,00029,2023-09-10_23h01.39.308,vbt_B1_day2,2022.2.4,Win32,60.76441636,,,,,,,,,,,,,,,,,,,,,,,,,,,down,0,0.0709,,-0.001851824,-0.141666695,1,0,0,0.4672,0,179,179,22,1,stof,images/br_stof.png,images/cb_stof.png,0,,,,,,,,,,,,,,,,,,,,,,
,,,,,,00029,2023-09-10_23h01.39.308,vbt_B1_day2,2022.2.4,Win32,60.76441636,,,,,,,,,,,,,,,,,,,,,,,,,,,down,0,0.0355,,-0.001851824,-0.141666695,1,0,0,0.4995,0,180,180,29,1,baas,images/br_baas.png,images/cb_baas.png,0,,,,,,,,,,,,,,,,,,,,,,
,,,,,,00029,2023-09-10_23h01.39.308,vbt_B1_day2,2022.2.4,Win32,60.76441636,,,,,,,,,,,,,,,,,,,,,,,,,,,down,0,0.5353,,-0.001851824,-0.141666695,1,0,0,0.7651,0,181,181,133,1,seizoen,images/br_seizoen.png,images/cb_seizoen.png,0,,,,,,,,,,,,,,,,,,,,,,
,,,,,,00029,2023-09-10_23h01.39.308,vbt_B1_day2,2022.2.4,Win32,60.76441636,,,,,,,,,,,,,,,,,,,,,,,,,,,down,0,0.5569,,-0.001851824,-0.141666695,1,0,0,0.4829,0,182,182,156,1,rechten,images/br_rechten.png,images/cb_rechten.png,0,,,,,,,,,,,,,,,,,,,,,,
,,,,,,00029,2023-09-10_23h01.39.308,vbt_B1_day2,2022.2.4,Win32,60.76441636,,,,,,,,,,,,,,,,,,,,,,,,,,,down,0,2.4625,,-0.001851824,-0.141666695,1,0,0,0.5166,0,183,183,9,1,hier,images/br_hier.png,images/cb_hier.png,0,,,,,,,,,,,,,,,,,,,,,,
,,,,,,00029,2023-09-10_23h01.39.308,vbt_B1_day2,2022.2.4,Win32,60.76441636,,,,,,,,,,,,,,,,,,,,,,,,,,,down,0,0.803,,-0.001851824,-0.141666695,1,0,0,0.5493,0,184,184,198,1,bedoelen,images/br_bedoelen.png,images/cb_bedoelen.png,0,,,,,,,,,,,,,,,,,,,,,,
,,,,,,00029,2023-09-10_23h01.39.308,vbt_B1_day2,2022.2.4,Win32,60.76441636,,,,,,,,,,,,,,,,,,,,,,,,,,,down,0,0.3348,,-0.001851824,-0.141666695,1,0,0,0.5332,0,185,185,89,1,slapen,images/br_slapen.png,images/cb_slapen.png,0,,,,,,,,,,,,,,,,,,,,,,
,,,,,,00029,2023-09-10_23h01.39.308,vbt_B1_day2,2022.2.4,Win32,60.76441636,,,,,,,,,,,,,,,,,,,,,,,,,,,down,0,0.5376,,-0.001851824,-0.141666695,1,0,0,0.5834,0,186,186,102,1,legaal,images/br_legaal.png,images/cb_legaal.png,0,,,,,,,,,,,,,,,,,,,,,,
,,,,,,00029,2023-09-10_23h01.39.308,vbt_B1_day2,2022.2.4,Win32,60.76441636,,,,,,,,,,,,,,,,,,,,,,,,,,,down,0,0.1155,,-0.001851824,-0.141666695,1,0,0,0.6019,0,187,187,142,1,snuiven,images/br_snuiven.png,images/cb_snuiven.png,0,,,,,,,,,,,,,,,,,,,,,,
,,,,,,00029,2023-09-10_23h01.39.308,vbt_B1_day2,2022.2.4,Win32,60.76441636,,,,,,,,,,,,,,,,,,,,,,,,,,,down,0,0.3395,,-0.001851824,-0.141666695,1,0,0,0.5679,0,188,188,147,1,komisch,images/br_komisch.png,images/cb_komisch.png,0,,,,,,,,,,,,,,,,,,,,,,
,,,,,,00029,2023-09-10_23h01.39.308,vbt_B1_day2,2022.2.4,Win32,60.76441636,,,,,,,,,,,,,,,,,,,,,,,,,,,down,0,0.7132,,-0.001851824,-0.141666695,1,0,0,0.5334,0,189,189,161,1,attentie,images/br_attentie.png,images/cb_attentie.png,0,,,,,,,,,,,,,,,,,,,,,,
,,,,,,00029,2023-09-10_23h01.39.308,vbt_B1_day2,2022.2.4,Win32,60.76441636,,,,,,,,,,,,,,,,,,,,,,,,,,,down,0,0.2945,,-0.001851824,-0.141666695,1,0,0,0.5497,0,190,190,152,1,afnemen,images/br_afnemen.png,images/cb_afnemen.png,0,,,,,,,,,,,,,,,,,,,,,,
,,,,,,00029,2023-09-10_23h01.39.308,vbt_B1_day2,2022.2.4,Win32,60.76441636,,,,,,,,,,,,,,,,,,,,,,,,,,,down,0,0.356,,-0.001851824,-0.141666695,1,0,0,0.5667,0,191,191,191,1,opheffen,images/br_opheffen.png,images/cb_opheffen.png,0,,,,,,,,,,,,,,,,,,,,,,
,,,,,,00029,2023-09-10_23h01.39.308,vbt_B1_day2,2022.2.4,Win32,60.76441636,,,,,,,,,,,,,,,,,,,,,,,,,,,down,0,0.9615,,-0.001851824,-0.141666695,1,0,0,0.4833,0,192,192,154,1,aflopen,images/br_aflopen.png,images/cb_aflopen.png,0,,,,,,,,,,,,,,,,,,,,,,
,,,,,,00029,2023-09-10_23h01.39.308,vbt_B1_day2,2022.2.4,Win32,60.76441636,,,,,,,,,,,,,,,,,,,,,,,,,,,down,0,0.6462,,-0.001851824,-0.141666695,1,0,0,0.5165,0,193,193,197,1,spanning,images/br_spanning.png,images/cb_spanning.png,0,,,,,,,,,,,,,,,,,,,,,,
,,,,,,00029,2023-09-10_23h01.39.308,vbt_B1_day2,2022.2.4,Win32,60.76441636,,,,,,,,,,,,,,,,,,,,,,,,,,,down,0,0.4851,,-0.001851824,-0.141666695,1,0,0,0.4676,0,194,194,20,1,site,images/br_site.png,images/cb_site.png,0,,,,,,,,,,,,,,,,,,,,,,
,,,,,,00029,2023-09-10_23h01.39.308,vbt_B1_day2,2022.2.4,Win32,60.76441636,,,,,,,,,,,,,,,,,,,,,,,,,,,down,0,15.035,,-0.001851824,-0.141666695,1,0,0,2.0167,0,195,195,59,1,kring,images/br_kring.png,images/cb_kring.png,1,krijg,,,,,,,,,,,,,,,,,,,,,
,,,,,,00029,2023-09-10_23h01.39.308,vbt_B1_day2,2022.2.4,Win32,60.76441636,,,,,,,,,,,,,,,,,,,,,,,,,,,down,0,10.3852,,-0.001851824,-0.141666695,1,0,0,0.8166,0,196,196,56,1,traag,images/br_traag.png,images/cb_traag.png,1,traag,,,,,,,,,,,,,,,,,,,,,
,,,,,,00029,2023-09-10_23h01.39.308,vbt_B1_day2,2022.2.4,Win32,60.76441636,,,,,,,,,,,,,,,,,,,,,,,,,,,down,0,0.2039,,-0.001851824,-0.141666695,1,0,0,0.5835,0,197,197,163,1,schuilen,images/br_schuilen.png,images/cb_schuilen.png,0,,,,,,,,,,,,,,,,,,,,,,
,,,,,,00029,2023-09-10_23h01.39.308,vbt_B1_day2,2022.2.4,Win32,60.76441636,,,,,,,,,,,,,,,,,,,,,,,,,,,down,0,0.6263,,-0.001851824,-0.141666695,1,0,0,0.5998,0,198,198,40,1,schep,images/br_schep.png,images/cb_schep.png,0,,,,,,,,,,,,,,,,,,,,,,
,,,,,,00029,2023-09-10_23h01.39.308,vbt_B1_day2,2022.2.4,Win32,60.76441636,,,,,,,,,,,,,,,,,,,,,,,,,,,down,0,0.4545,,-0.001851824,-0.141666695,1,0,0,0.7162,0,199,199,41,1,maken,images/br_maken.png,images/cb_maken.png,0,,,,,,,,,,,,,,,,,,,,,,
,,,,,,00029,2023-09-10_23h01.39.308,vbt_B1_day2,2022.2.4,Win32,60.76441636,,,,,,,,,,,,,,,,,,,,,,,,,,,,,,,,,,,,,,,,,,,,,,,-0.001851824,-0.141666695,1,0,0,,,,,,,,,,,,,,,,
,,,,,,00029,2023-09-10_23h01.39.308,vbt_B1_day2,2022.2.4,Win32,60.76441636,,,,,,,,,,,,,,,,,,,,,,,,,,,,,,,,,,,,,,,,,,,,,,,,,,,,-0.001851824,-0.141666695,1,0,0,,,,,,,,,,,
,,,,,,00029,2023-09-10_23h01.39.308,vbt_B1_day2,2022.2.4,Win32,60.76441636,,,,,,,,,,,,,,,,,,,,,,,,,,,,,,,,,,,,,,,,,,trots,images/br_trots.png,images/cb_trots.png,,...,,,,,,,,,,,-0.001851824,-0.141666695,1,0,0,...,0,0,0,44,1
,,,,,,00029,2023-09-10_23h01.39.308,vbt_B1_day2,2022.2.4,Win32,60.76441636,,,,,,,,,,,,,,,,,,,,,,,,,,,,,,,,,,,,,,,,,,kabel,images/br_kabel.png,images/cb_kabel.png,,ktce,,,,,,,,,,,-0.001851824,-0.141666695,1,0,0,ktce,0,1,1,7,1
,,,,,,00029,2023-09-10_23h01.39.308,vbt_B1_day2,2022.2.4,Win32,60.76441636,,,,,,,,,,,,,,,,,,,,,,,,,,,,,,,,,,,,,,,,,,lijnen,images/br_lijnen.png,images/cb_lijnen.png,,,,,,,,,,,,,-0.001851824,-0.141666695,1,0,0,,0,2,2,51,1
,,,,,,00029,2023-09-10_23h01.39.308,vbt_B1_day2,2022.2.4,Win32,60.76441636,,,,,,,,,,,,,,,,,,,,,,,,,,,,,,,,,,,,,,,,,,flits,images/br_flits.png,images/cb_flits.png,,,,,,,,,,,,,-0.001851824,-0.141666695,1,0,0,,0,3,3,4,1
,,,,,,00029,2023-09-10_23h01.39.308,vbt_B1_day2,2022.2.4,Win32,60.76441636,,,,,,,,,,,,,,,,,,,,,,,,,,,,,,,,,,,,,,,,,,zomers,images/br_zomers.png,images/cb_zomers.png,,,,,,,,,,,,,-0.001851824,-0.141666695,1,0,0,,0,4,4,48,1
,,,,,,00029,2023-09-10_23h01.39.308,vbt_B1_day2,2022.2.4,Win32,60.76441636,,,,,,,,,,,,,,,,,,,,,,,,,,,,,,,,,,,,,,,,,,agressie,images/br_agressie.png,images/cb_agressie.png,,agressie,,,,,,,,,,,-0.001851824,-0.141666695,1,0,0,agressie,0,5,5,59,1
,,,,,,00029,2023-09-10_23h01.39.308,vbt_B1_day2,2022.2.4,Win32,60.76441636,,,,,,,,,,,,,,,,,,,,,,,,,,,,,,,,,,,,,,,,,,lurgen,images/br_lurgen.png,images/cb_lurgen.png,,lopen,,,,,,,,,,,-0.001851824,-0.141666695,1,0,0,lopen,0,6,6,29,1
,,,,,,00029,2023-09-10_23h01.39.308,vbt_B1_day2,2022.2.4,Win32,60.76441636,,,,,,,,,,,,,,,,,,,,,,,,,,,,,,,,,,,,,,,,,,feestdag,images/br_feestdag.png,images/cb_feestdag.png,,gee,,,,,,,,,,,-0.001851824,-0.141666695,1,0,0,gee,0,7,7,17,1
,,,,,,00029,2023-09-10_23h01.39.308,vbt_B1_day2,2022.2.4,Win32,60.76441636,,,,,,,,,,,,,,,,,,,,,,,,,,,,,,,,,,,,,,,,,,clan,images/br_clan.png,images/cb_clan.png,,cl,,,,,,,,,,,-0.001851824,-0.141666695,1,0,0,cl,0,8,8,40,1
,,,,,,00029,2023-09-10_23h01.39.308,vbt_B1_day2,2022.2.4,Win32,60.76441636,,,,,,,,,,,,,,,,,,,,,,,,,,,,,,,,,,,,,,,,,,joes,images/br_joes.png,images/cb_joes.png,,joes,,,,,,,,,,,-0.001851824,-0.141666695,1,0,0,joes,0,9,9,20,1
,,,,,,00029,2023-09-10_23h01.39.308,vbt_B1_day2,2022.2.4,Win32,60.76441636,,,,,,,,,,,,,,,,,,,,,,,,,,,,,,,,,,,,,,,,,,inzicht,images/br_inzicht.png,images/cb_inzicht.png,,onee..e,,,,,,,,,,,-0.001851824,-0.141666695,1,0,0,onee..e,0,10,10,53,1
,,,,,,00029,2023-09-10_23h01.39.308,vbt_B1_day2,2022.2.4,Win32,60.76441636,,,,,,,,,,,,,,,,,,,,,,,,,,,,,,,,,,,,,,,,,,zegel,images/br_zegel.png,images/cb_zegel.png,,.e..e,,,,,,,,,,,-0.001851824,-0.141666695,1,0,0,.e..e,0,11,11,46,1
,,,,,,00029,2023-09-10_23h01.39.308,vbt_B1_day2,2022.2.4,Win32,60.76441636,,,,,,,,,,,,,,,,,,,,,,,,,,,,,,,,,,,,,,,,,,sora,images/br_sora.png,images/cb_sora.png,,sora,,,,,,,,,,,-0.001851824,-0.141666695,1,0,0,sora,0,12,12,22,1
,,,,,,00029,2023-09-10_23h01.39.308,vbt_B1_day2,2022.2.4,Win32,60.76441636,,,,,,,,,,,,,,,,,,,,,,,,,,,,,,,,,,,,,,,,,,breuk,images/br_breuk.png,images/cb_breuk.png,,,,,,,,,,,,,-0.001851824,-0.141666695,1,0,0,,0,13,13,45,1
,,,,,,00029,2023-09-10_23h01.39.308,vbt_B1_day2,2022.2.4,Win32,60.76441636,,,,,,,,,,,,,,,,,,,,,,,,,,,,,,,,,,,,,,,,,,systeem,images/br_systeem.png,images/cb_systeem.png,,sustee,,,,,,,,,,,-0.014814801,-0.199999986,1,0,0,sustee,0,14,14,54,1
,,,,,,00029,2023-09-10_23h01.39.308,vbt_B1_day2,2022.2.4,Win32,60.76441636,,,,,,,,,,,,,,,,,,,,,,,,,,,,,,,,,,,,,,,,,,doodmoe,images/br_doodmoe.png,images/cb_doodmoe.png,,,,,,,,,,,,,-0.014814801,-0.199999986,1,0,0,,0,15,15,15,1
,,,,,,00029,2023-09-10_23h01.39.308,vbt_B1_day2,2022.2.4,Win32,60.76441636,,,,,,,,,,,,,,,,,,,,,,,,,,,,,,,,,,,,,,,,,,wijve,images/br_wijve.png,images/cb_wijve.png,,wijve,,,,,,,,,,,-0.014814801,-0.199999986,1,0,0,wijve,0,16,16,27,1
,,,,,,00029,2023-09-10_23h01.39.308,vbt_B1_day2,2022.2.4,Win32,60.76441636,,,,,,,,,,,,,,,,,,,,,,,,,,,,,,,,,,,,,,,,,,kijlen,images/br_kijlen.png,images/cb_kijlen.png,,,,,,,,,,,,,0.074999986,-0.155555584,1,0,0,,0,17,17,31,1
,,,,,,00029,2023-09-10_23h01.39.308,vbt_B1_day2,2022.2.4,Win32,60.76441636,,,,,,,,,,,,,,,,,,,,,,,,,,,,,,,,,,,,,,,,,,remel,images/br_remel.png,images/cb_remel.png,,re.e,,,,,,,,,,,0.074999986,-0.155555584,1,0,0,re.e,0,18,18,25,1
,,,,,,00029,2023-09-10_23h01.39.308,vbt_B1_day2,2022.2.4,Win32,60.76441636,,,,,,,,,,,,,,,,,,,,,,,,,,,,,,,,,,,,,,,,,,manieren,images/br_manieren.png,images/cb_manieren.png,,.anierin,,,,,,,,,,,0.074999986,-0.155555584,1,0,0,.anierin,0,19,19,56,1
,,,,,,00029,2023-09-10_23h01.39.308,vbt_B1_day2,2022.2.4,Win32,60.76441636,,,,,,,,,,,,,,,,,,,,,,,,,,,,,,,,,,,,,,,,,,jong,images/br_jong.png,images/cb_jong.png,,jong,,,,,,,,,,,0.074999986,-0.155555584,1,0,0,jong,0,20,20,43,1
,,,,,,00029,2023-09-10_23h01.39.308,vbt_B1_day2,2022.2.4,Win32,60.76441636,,,,,,,,,,,,,,,,,,,,,,,,,,,,,,,,,,,,,,,,,,krimmen,images/br_krimmen.png,images/cb_krimmen.png,,,,,,,,,,,,,0.143518519,-0.257407436,1,0,0,,0,21,21,35,1
,,,,,,00029,2023-09-10_23h01.39.308,vbt_B1_day2,2022.2.4,Win32,60.76441636,,,,,,,,,,,,,,,,,,,,,,,,,,,,,,,,,,,,,,,,,,prekken,images/br_prekken.png,images/cb_prekken.png,,,,,,,,,,,,,0.12037037,-0.304629644,1,0,0,,0,22,22,34,1
,,,,,,00029,2023-09-10_23h01.39.308,vbt_B1_day2,2022.2.4,Win32,60.76441636,,,,,,,,,,,,,,,,,,,,,,,,,,,,,,,,,,,,,,,,,,koorts,images/br_koorts.png,images/cb_koorts.png,,,,,,,,,,,,,0.12037037,-0.304629644,1,0,0,,0,23,23,50,1
,,,,,,00029,2023-09-10_23h01.39.308,vbt_B1_day2,2022.2.4,Win32,60.76441636,,,,,,,,,,,,,,,,,,,,,,,,,,,,,,,,,,,,,,,,,,tweeling,images/br_tweeling.png,images/cb_tweeling.png,,,,,,,,,,,,,0.12037037,-0.304629644,1,0,0,,0,24,24,58,1
,,,,,,00029,2023-09-10_23h01.39.308,vbt_B1_day2,2022.2.4,Win32,60.76441636,,,,,,,,,,,,,,,,,,,,,,,,,,,,,,,,,,,,,,,,,,dode,images/br_dode.png,images/cb_dode.png,,d.e.,,,,,,,,,,,0.12037037,-0.304629644,1,0,0,d.e.,0,25,25,41,1
,,,,,,00029,2023-09-10_23h01.39.308,vbt_B1_day2,2022.2.4,Win32,60.76441636,,,,,,,,,,,,,,,,,,,,,,,,,,,,,,,,,,,,,,,,,,strikken,images/br_strikken.png,images/cb_strikken.png,,,,,,,,,,,,,0.112963005,-0.342592593,1,0,0,,0,26,26,18,1
,,,,,,00029,2023-09-10_23h01.39.308,vbt_B1_day2,2022.2.4,Win32,60.76441636,,,,,,,,,,,,,,,,,,,,,,,,,,,,,,,,,,,,,,,,,,piste,images/br_piste.png,images/cb_piste.png,,verbi,,,,,,,,,,,0.112963005,-0.342592593,1,0,0,verbi,0,27,27,5,1
,,,,,,00029,2023-09-10_23h01.39.308,vbt_B1_day2,2022.2.4,Win32,60.76441636,,,,,,,,,,,,,,,,,,,,,,,,,,,,,,,,,,,,,,,,,,bereuwen,images/br_bereuwen.png,images/cb_bereuwen.png,,,,,,,,,,,,,0.112963005,-0.342592593,1,0,0,,0,28,28,39,1
,,,,,,00029,2023-09-10_23h01.39.308,vbt_B1_day2,2022.2.4,Win32,60.76441636,,,,,,,,,,,,,,,,,,,,,,,,,,,,,,,,,,,,,,,,,,ningen,images/br_ningen.png,images/cb_ningen.png,,,,,,,,,,,,,0.112963005,-0.342592593,1,0,0,,0,29,29,28,1
,,,,,,00029,2023-09-10_23h01.39.308,vbt_B1_day2,2022.2.4,Win32,60.76441636,,,,,,,,,,,,,,,,,,,,,,,,,,,,,,,,,,,,,,,,,,aanzien,images/br_aanzien.png,images/cb_aanzien.png,,,,,,,,,,,,,0.112963005,-0.342592593,1,0,0,,0,30,30,13,1
,,,,,,00029,2023-09-10_23h01.39.308,vbt_B1_day2,2022.2.4,Win32,60.76441636,,,,,,,,,,,,,,,,,,,,,,,,,,,,,,,,,,,,,,,,,,bloeien,images/br_bloeien.png,images/cb_bloeien.png,,,,,,,,,,,,,0.112963005,-0.342592593,1,0,0,,0,31,31,12,1
,,,,,,00029,2023-09-10_23h01.39.308,vbt_B1_day2,2022.2.4,Win32,60.76441636,,,,,,,,,,,,,,,,,,,,,,,,,,,,,,,,,,,,,,,,,,zwager,images/br_zwager.png,images/cb_zwager.png,,,,,,,,,,,,,0.112963005,-0.342592593,1,0,0,,0,32,32,49,1
,,,,,,00029,2023-09-10_23h01.39.308,vbt_B1_day2,2022.2.4,Win32,60.76441636,,,,,,,,,,,,,,,,,,,,,,,,,,,,,,,,,,,,,,,,,,welzijn,images/br_welzijn.png,images/cb_welzijn.png,,kelder,,,,,,,,,,,0.112963005,-0.342592593,1,0,0,kelder,0,33,33,52,1
,,,,,,00029,2023-09-10_23h01.39.308,vbt_B1_day2,2022.2.4,Win32,60.76441636,,,,,,,,,,,,,,,,,,,,,,,,,,,,,,,,,,,,,,,,,,anarchie,images/br_anarchie.png,images/cb_anarchie.png,,anar..,,,,,,,,,,,0.112963005,-0.342592593,1,0,0,anar..,0,34,34,16,1
,,,,,,00029,2023-09-10_23h01.39.308,vbt_B1_day2,2022.2.4,Win32,60.76441636,,,,,,,,,,,,,,,,,,,,,,,,,,,,,,,,,,,,,,,,,,toeval,images/br_toeval.png,images/cb_toeval.png,,,,,,,,,,,,,0.112963005,-0.342592593,1,0,0,,0,35,35,11,1
,,,,,,00029,2023-09-10_23h01.39.308,vbt_B1_day2,2022.2.4,Win32,60.76441636,,,,,,,,,,,,,,,,,,,,,,,,,,,,,,,,,,,,,,,,,,geld,images/br_geld.png,images/cb_geld.png,,geld,,,,,,,,,,,0.112963005,-0.342592593,1,0,0,geld,0,36,36,3,1
,,,,,,00029,2023-09-10_23h01.39.308,vbt_B1_day2,2022.2.4,Win32,60.76441636,,,,,,,,,,,,,,,,,,,,,,,,,,,,,,,,,,,,,,,,,,kenzis,images/br_kenzis.png,images/cb_kenzis.png,,kinde,,,,,,,,,,,0.112963005,-0.342592593,1,0,0,kinde,0,37,37,30,1
,,,,,,00029,2023-09-10_23h01.39.308,vbt_B1_day2,2022.2.4,Win32,60.76441636,,,,,,,,,,,,,,,,,,,,,,,,,,,,,,,,,,,,,,,,,,sifferd,images/br_sifferd.png,images/cb_sifferd.png,,fee,,,,,,,,,,,0.112963005,-0.342592593,1,0,0,fee,0,38,38,32,1
,,,,,,00029,2023-09-10_23h01.39.308,vbt_B1_day2,2022.2.4,Win32,60.76441636,,,,,,,,,,,,,,,,,,,,,,,,,,,,,,,,,,,,,,,,,,badon,images/br_badon.png,images/cb_badon.png,,carb,,,,,,,,,,,0.112963005,-0.342592593,1,0,0,carb,0,39,39,26,1
,,,,,,00029,2023-09-10_23h01.39.308,vbt_B1_day2,2022.2.4,Win32,60.76441636,,,,,,,,,,,,,,,,,,,,,,,,,,,,,,,,,,,,,,,,,,opdatten,images/br_opdatten.png,images/cb_opdatten.png,,,,,,,,,,,,,0.112963005,-0.342592593,1,0,0,,0,40,40,37,1
,,,,,,00029,2023-09-10_23h01.39.308,vbt_B1_day2,2022.2.4,Win32,60.76441636,,,,,,,,,,,,,,,,,,,,,,,,,,,,,,,,,,,,,,,,,,heilig,images/br_heilig.png,images/cb_heilig.png,,,,,,,,,,,,,0.112963005,-0.342592593,1,0,0,,0,41,41,9,1
,,,,,,00029,2023-09-10_23h01.39.308,vbt_B1_day2,2022.2.4,Win32,60.76441636,,,,,,,,,,,,,,,,,,,,,,,,,,,,,,,,,,,,,,,,,,goon,images/br_goon.png,images/cb_goon.png,,,,,,,,,,,,,0.112963005,-0.342592593,1,0,0,,0,42,42,23,1
,,,,,,00029,2023-09-10_23h01.39.308,vbt_B1_day2,2022.2.4,Win32,60.76441636,,,,,,,,,,,,,,,,,,,,,,,,,,,,,,,,,,,,,,,,,,diep,images/br_diep.png,images/cb_diep.png,,dier,,,,,,,,,,,0.112963005,-0.342592593,1,0,0,dier,0,43,43,2,1
,,,,,,00029,2023-09-10_23h01.39.308,vbt_B1_day2,2022.2.4,Win32,60.76441636,,,,,,,,,,,,,,,,,,,,,,,,,,,,,,,,,,,,,,,,,,moes,images/br_moes.png,images/cb_moes.png,,,,,,,,,,,,,0.112963005,-0.342592593,1,0,0,,0,44,44,0,1
,,,,,,00029,2023-09-10_23h01.39.308,vbt_B1_day2,2022.2.4,Win32,60.76441636,,,,,,,,,,,,,,,,,,,,,,,,,,,,,,,,,,,,,,,,,,lokken,images/br_lokken.png,images/cb_lokken.png,,,,,,,,,,,,,0.112963005,-0.342592593,1,0,0,,0,45,45,8,1
,,,,,,00029,2023-09-10_23h01.39.308,vbt_B1_day2,2022.2.4,Win32,60.76441636,,,,,,,,,,,,,,,,,,,,,,,,,,,,,,,,,,,,,,,,,,aanvraag,images/br_aanvraag.png,images/cb_aanvraag.png,,,,,,,,,,,,,0.112963005,-0.342592593,1,0,0,,0,46,46,57,1
,,,,,,00029,2023-09-10_23h01.39.308,vbt_B1_day2,2022.2.4,Win32,60.76441636,,,,,,,,,,,,,,,,,,,,,,,,,,,,,,,,,,,,,,,,,,negel,images/br_negel.png,images/cb_negel.png,,,,,,,,,,,,,0.112963005,-0.342592593,1,0,0,,0,47,47,24,1
,,,,,,00029,2023-09-10_23h01.39.308,vbt_B1_day2,2022.2.4,Win32,60.76441636,,,,,,,,,,,,,,,,,,,,,,,,,,,,,,,,,,,,,,,,,,sjijfel,images/br_sjijfel.png,images/cb_sjijfel.png,,,,,,,,,,,,,0.112963005,-0.342592593,1,0,0,,0,48,48,33,1
,,,,,,00029,2023-09-10_23h01.39.308,vbt_B1_day2,2022.2.4,Win32,60.76441636,,,,,,,,,,,,,,,,,,,,,,,,,,,,,,,,,,,,,,,,,,kasteel,images/br_kasteel.png,images/cb_kasteel.png,,,,,,,,,,,,,0.112963005,-0.342592593,1,0,0,,0,49,49,14,1
,,,,,,00029,2023-09-10_23h01.39.308,vbt_B1_day2,2022.2.4,Win32,60.76441636,,,,,,,,,,,,,,,,,,,,,,,,,,,,,,,,,,,,,,,,,,ophuimen,images/br_ophuimen.png,images/cb_ophuimen.png,,,,,,,,,,,,,0.112963005,-0.342592593,1,0,0,,0,50,50,36,1
,,,,,,00029,2023-09-10_23h01.39.308,vbt_B1_day2,2022.2.4,Win32,60.76441636,,,,,,,,,,,,,,,,,,,,,,,,,,,,,,,,,,,,,,,,,,blad,images/br_blad.png,images/cb_blad.png,,,,,,,,,,,,,0.112963005,-0.342592593,1,0,0,,0,51,51,1,1
,,,,,,00029,2023-09-10_23h01.39.308,vbt_B1_day2,2022.2.4,Win32,60.76441636,,,,,,,,,,,,,,,,,,,,,,,,,,,,,,,,,,,,,,,,,,plannen,images/br_plannen.png,images/cb_plannen.png,,,,,,,,,,,,,0.112963005,-0.342592593,1,0,0,,0,52,52,55,1
,,,,,,00029,2023-09-10_23h01.39.308,vbt_B1_day2,2022.2.4,Win32,60.76441636,,,,,,,,,,,,,,,,,,,,,,,,,,,,,,,,,,,,,,,,,,tand,images/br_tand.png,images/cb_tand.png,,,,,,,,,,,,,0.05277782,-0.263888889,1,0,0,,0,53,53,42,1
,,,,,,00029,2023-09-10_23h01.39.308,vbt_B1_day2,2022.2.4,Win32,60.76441636,,,,,,,,,,,,,,,,,,,,,,,,,,,,,,,,,,,,,,,,,,stes,images/br_stes.png,images/cb_stes.png,,,,,,,,,,,,,0.05277782,-0.263888889,1,0,0,,0,54,54,21,1
,,,,,,00029,2023-09-10_23h01.39.308,vbt_B1_day2,2022.2.4,Win32,60.76441636,,,,,,,,,,,,,,,,,,,,,,,,,,,,,,,,,,,,,,,,,,woning,images/br_woning.png,images/cb_woning.png,,,,,,,,,,,,,0.05277782,-0.263888889,1,0,0,,0,55,55,10,1
,,,,,,00029,2023-09-10_23h01.39.308,vbt_B1_day2,2022.2.4,Win32,60.76441636,,,,,,,,,,,,,,,,,,,,,,,,,,,,,,,,,,,,,,,,,,heengeen,images/br_heengeen.png,images/cb_heengeen.png,,,,,,,,,,,,,0.05277782,-0.263888889,1,0,0,,0,56,56,38,1
,,,,,,00029,2023-09-10_23h01.39.308,vbt_B1_day2,2022.2.4,Win32,60.76441636,,,,,,,,,,,,,,,,,,,,,,,,,,,,,,,,,,,,,,,,,,jagen,images/br_jagen.png,images/cb_jagen.png,,,,,,,,,,,,,0.05277782,-0.263888889,1,0,0,,0,57,57,6,1
,,,,,,00029,2023-09-10_23h01.39.308,vbt_B1_day2,2022.2.4,Win32,60.76441636,,,,,,,,,,,,,,,,,,,,,,,,,,,,,,,,,,,,,,,,,,eenhoorn,images/br_eenhoorn.png,images/cb_eenhoorn.png,,,,,,,,,,,,,0.05277782,-0.263888889,1,0,0,,0,58,58,19,1
,,,,,,00029,2023-09-10_23h01.39.308,vbt_B1_day2,2022.2.4,Win32,60.76441636,,,,,,,,,,,,,,,,,,,,,,,,,,,,,,,,,,,,,,,,,,thema,images/br_thema.png,images/cb_thema.png,,,,,,,,,,,,,0.05277782,-0.263888889,1,0,0,,0,59,59,47,1
,,,,,,00029,2023-09-10_23h01.39.308,vbt_B1_day2,2022.2.4,Win32,60.76441636,,,,,,,,,,,,,,,,,,,,,,,,,,,,,,,,,,,,,,,,,,,,,,,,,,,,,,,,,,,,,,,,,,,
