welcome_mouse.x,welcome_mouse.y,welcome_mouse.leftButton,welcome_mouse.midButton,welcome_mouse.rightButton,welcome_mouse.time,"ID",date,expName,psychopyVersion,OS,frameRate,participant,refresh_mouse.x,refresh_mouse.y,refresh_mouse.leftButton,refresh_mouse.midButton,refresh_mouse.rightButton,refresh_mouse.time,braille_mouse.x,braille_mouse.y,braille_mouse.leftButton,braille_mouse.midButton,braille_mouse.rightButton,braille_mouse.time,trials.thisRepN,trials.thisTrialN,trials.thisN,trials.thisIndex,trials.ran,nlLet,brLet,cbLet,trainInstr_mouse.x,trainInstr_mouse.y,trainInstr_mouse.leftButton,trainInstr_mouse.midButton,trainInstr_mouse.rightButton,trainInstr_mouse.time,translation_key.keys,translation_key.corr,translation_key.rt,word_rsp.text,word_mouse.x,word_mouse.y,word_mouse.leftButton,word_mouse.midButton,word_mouse.rightButton,word_mouse.time,train_loop.thisRepN,train_loop.thisTrialN,train_loop.thisN,train_loop.thisIndex,train_loop.ran,nlWrd,brWrd,cbWrd,test,testResp,mouse.x,mouse.y,mouse.leftButton,mouse.midButton,mouse.rightButton,testInstr_mouse.x,testInstr_mouse.y,testInstr_mouse.leftButton,testInstr_mouse.midButton,testInstr_mouse.rightButton,test_mouse.x,test_mouse.y,test_mouse.leftButton,test_mouse.midButton,test_mouse.rightButton,test_response.text,test_loop.thisRepN,test_loop.thisTrialN,test_loop.thisN,test_loop.thisIndex,test_loop.ran
-0.160185143,-0.235185199,1,0,0,27.3892,51175,2023-07-21_13h00.43.918,vbt_B1_day2,2022.2.4,Win32,59.8372427,51175,,,,,,,,,,,,,,,,,,,,,,,,,,,,,,,,,,,,,,,,,,,,,,,,,,,,,,,,,,,,,,,,,,,
,,,,,,51175,2023-07-21_13h00.43.918,vbt_B1_day2,2022.2.4,Win32,59.8372427,51175,-0.160185143,-0.235185199,1,0,0,12.6796,,,,,,,,,,,,,,,,,,,,,,,,,,,,,,,,,,,,,,,,,,,,,,,,,,,,,,,,,,,,,
,,,,,,51175,2023-07-21_13h00.43.918,vbt_B1_day2,2022.2.4,Win32,59.8372427,51175,,,,,,,-0.160185143,-0.235185199,1,0,0,1.8518,0,0,0,15,1,p,images/br_p.png,images/cb_p.png,,,,,,,,,,,,,,,,,,,,,,,,,,,,,,,,,,,,,,,,,,,,,,,
,,,,,,51175,2023-07-21_13h00.43.918,vbt_B1_day2,2022.2.4,Win32,59.8372427,51175,,,,,,,-0.160185143,-0.235185199,1,0,0,21.205,0,1,1,5,1,f,images/br_f.png,images/cb_f.png,,,,,,,,,,,,,,,,,,,,,,,,,,,,,,,,,,,,,,,,,,,,,,,
,,,,,,51175,2023-07-21_13h00.43.918,vbt_B1_day2,2022.2.4,Win32,59.8372427,51175,,,,,,,-0.160185143,-0.235185199,1,0,0,5.6704,0,2,2,18,1,s,images/br_s.png,images/cb_s.png,,,,,,,,,,,,,,,,,,,,,,,,,,,,,,,,,,,,,,,,,,,,,,,
,,,,,,51175,2023-07-21_13h00.43.918,vbt_B1_day2,2022.2.4,Win32,59.8372427,51175,,,,,,,-0.160185143,-0.235185199,1,0,0,2.6387,0,3,3,0,1,a,images/br_a.png,images/cb_a.png,,,,,,,,,,,,,,,,,,,,,,,,,,,,,,,,,,,,,,,,,,,,,,,
,,,,,,51175,2023-07-21_13h00.43.918,vbt_B1_day2,2022.2.4,Win32,59.8372427,51175,,,,,,,-0.160185143,-0.235185199,1,0,0,0.5237,0,4,4,9,1,j,images/br_j.png,images/cb_j.png,,,,,,,,,,,,,,,,,,,,,,,,,,,,,,,,,,,,,,,,,,,,,,,
,,,,,,51175,2023-07-21_13h00.43.918,vbt_B1_day2,2022.2.4,Win32,59.8372427,51175,,,,,,,-0.160185143,-0.235185199,1,0,0,4.1377,0,5,5,6,1,g,images/br_g.png,images/cb_g.png,,,,,,,,,,,,,,,,,,,,,,,,,,,,,,,,,,,,,,,,,,,,,,,
,,,,,,51175,2023-07-21_13h00.43.918,vbt_B1_day2,2022.2.4,Win32,59.8372427,51175,,,,,,,-0.160185143,-0.235185199,1,0,0,12.8318,0,6,6,3,1,d,images/br_d.png,images/cb_d.png,,,,,,,,,,,,,,,,,,,,,,,,,,,,,,,,,,,,,,,,,,,,,,,
,,,,,,51175,2023-07-21_13h00.43.918,vbt_B1_day2,2022.2.4,Win32,59.8372427,51175,,,,,,,-0.160185143,-0.235185199,1,0,0,0.3948,0,7,7,25,1,z,images/br_z.png,images/cb_z.png,,,,,,,,,,,,,,,,,,,,,,,,,,,,,,,,,,,,,,,,,,,,,,,
,,,,,,51175,2023-07-21_13h00.43.918,vbt_B1_day2,2022.2.4,Win32,59.8372427,51175,,,,,,,-0.160185143,-0.235185199,1,0,0,0.2557,0,8,8,11,1,l,images/br_l.png,images/cb_l.png,,,,,,,,,,,,,,,,,,,,,,,,,,,,,,,,,,,,,,,,,,,,,,,
,,,,,,51175,2023-07-21_13h00.43.918,vbt_B1_day2,2022.2.4,Win32,59.8372427,51175,,,,,,,-0.160185143,-0.235185199,1,0,0,4.3915,0,9,9,20,1,u,images/br_u.png,images/cb_u.png,,,,,,,,,,,,,,,,,,,,,,,,,,,,,,,,,,,,,,,,,,,,,,,
,,,,,,51175,2023-07-21_13h00.43.918,vbt_B1_day2,2022.2.4,Win32,59.8372427,51175,,,,,,,-0.160185143,-0.235185199,1,0,0,5.0044,0,10,10,24,1,y,images/br_y.png,images/cb_y.png,,,,,,,,,,,,,,,,,,,,,,,,,,,,,,,,,,,,,,,,,,,,,,,
,,,,,,51175,2023-07-21_13h00.43.918,vbt_B1_day2,2022.2.4,Win32,59.8372427,51175,,,,,,,-0.160185143,-0.235185199,1,0,0,2.0391,0,11,11,8,1,i,images/br_i.png,images/cb_i.png,,,,,,,,,,,,,,,,,,,,,,,,,,,,,,,,,,,,,,,,,,,,,,,
,,,,,,51175,2023-07-21_13h00.43.918,vbt_B1_day2,2022.2.4,Win32,59.8372427,51175,,,,,,,-0.160185143,-0.235185199,1,0,0,8.1832,0,12,12,7,1,h,images/br_h.png,images/cb_h.png,,,,,,,,,,,,,,,,,,,,,,,,,,,,,,,,,,,,,,,,,,,,,,,
,,,,,,51175,2023-07-21_13h00.43.918,vbt_B1_day2,2022.2.4,Win32,59.8372427,51175,,,,,,,-0.160185143,-0.235185199,1,0,0,1.0861,0,13,13,14,1,o,images/br_o.png,images/cb_o.png,,,,,,,,,,,,,,,,,,,,,,,,,,,,,,,,,,,,,,,,,,,,,,,
,,,,,,51175,2023-07-21_13h00.43.918,vbt_B1_day2,2022.2.4,Win32,59.8372427,51175,,,,,,,-0.160185143,-0.235185199,1,0,0,0.84,0,14,14,19,1,t,images/br_t.png,images/cb_t.png,,,,,,,,,,,,,,,,,,,,,,,,,,,,,,,,,,,,,,,,,,,,,,,
,,,,,,51175,2023-07-21_13h00.43.918,vbt_B1_day2,2022.2.4,Win32,59.8372427,51175,,,,,,,-0.160185143,-0.235185199,1,0,0,6.8003,0,15,15,22,1,w,images/br_w.png,images/cb_w.png,,,,,,,,,,,,,,,,,,,,,,,,,,,,,,,,,,,,,,,,,,,,,,,
,,,,,,51175,2023-07-21_13h00.43.918,vbt_B1_day2,2022.2.4,Win32,59.8372427,51175,,,,,,,-0.160185143,-0.235185199,1,0,0,2.0431,0,16,16,10,1,k,images/br_k.png,images/cb_k.png,,,,,,,,,,,,,,,,,,,,,,,,,,,,,,,,,,,,,,,,,,,,,,,
,,,,,,51175,2023-07-21_13h00.43.918,vbt_B1_day2,2022.2.4,Win32,59.8372427,51175,,,,,,,-0.160185143,-0.235185199,1,0,0,3.8392,0,17,17,12,1,m,images/br_m.png,images/cb_m.png,,,,,,,,,,,,,,,,,,,,,,,,,,,,,,,,,,,,,,,,,,,,,,,
,,,,,,51175,2023-07-21_13h00.43.918,vbt_B1_day2,2022.2.4,Win32,59.8372427,51175,,,,,,,-0.160185143,-0.235185199,1,0,0,0.0681,0,18,18,2,1,c,images/br_c.png,images/cb_c.png,,,,,,,,,,,,,,,,,,,,,,,,,,,,,,,,,,,,,,,,,,,,,,,
,,,,,,51175,2023-07-21_13h00.43.918,vbt_B1_day2,2022.2.4,Win32,59.8372427,51175,,,,,,,-0.160185143,-0.235185199,1,0,0,0.2224,0,19,19,4,1,e,images/br_e.png,images/cb_e.png,,,,,,,,,,,,,,,,,,,,,,,,,,,,,,,,,,,,,,,,,,,,,,,
,,,,,,51175,2023-07-21_13h00.43.918,vbt_B1_day2,2022.2.4,Win32,59.8372427,51175,,,,,,,-0.160185143,-0.235185199,1,0,0,1.5907,0,20,20,13,1,n,images/br_n.png,images/cb_n.png,,,,,,,,,,,,,,,,,,,,,,,,,,,,,,,,,,,,,,,,,,,,,,,
,,,,,,51175,2023-07-21_13h00.43.918,vbt_B1_day2,2022.2.4,Win32,59.8372427,51175,,,,,,,-0.160185143,-0.235185199,1,0,0,0.1862,0,21,21,17,1,r,images/br_r.png,images/cb_r.png,,,,,,,,,,,,,,,,,,,,,,,,,,,,,,,,,,,,,,,,,,,,,,,
,,,,,,51175,2023-07-21_13h00.43.918,vbt_B1_day2,2022.2.4,Win32,59.8372427,51175,,,,,,,-0.160185143,-0.235185199,1,0,0,3.4916,0,22,22,1,1,b,images/br_b.png,images/cb_b.png,,,,,,,,,,,,,,,,,,,,,,,,,,,,,,,,,,,,,,,,,,,,,,,
,,,,,,51175,2023-07-21_13h00.43.918,vbt_B1_day2,2022.2.4,Win32,59.8372427,51175,,,,,,,-0.160185143,-0.235185199,1,0,0,0.9889,0,23,23,23,1,x,images/br_x.png,images/cb_x.png,,,,,,,,,,,,,,,,,,,,,,,,,,,,,,,,,,,,,,,,,,,,,,,
,,,,,,51175,2023-07-21_13h00.43.918,vbt_B1_day2,2022.2.4,Win32,59.8372427,51175,,,,,,,-0.160185143,-0.235185199,1,0,0,1.6528,0,24,24,21,1,v,images/br_v.png,images/cb_v.png,,,,,,,,,,,,,,,,,,,,,,,,,,,,,,,,,,,,,,,,,,,,,,,
,,,,,,51175,2023-07-21_13h00.43.918,vbt_B1_day2,2022.2.4,Win32,59.8372427,51175,,,,,,,-0.160185143,-0.235185199,1,0,0,0.302,0,25,25,16,1,q,images/br_q.png,images/cb_q.png,,,,,,,,,,,,,,,,,,,,,,,,,,,,,,,,,,,,,,,,,,,,,,,
,,,,,,51175,2023-07-21_13h00.43.918,vbt_B1_day2,2022.2.4,Win32,59.8372427,51175,,,,,,,,,,,,,,,,,,,,,-0.160185143,-0.235185199,1,0,0,44.6422,,,,,,,,,,,,,,,,,,,,,,,,,,,,,,,,,,,,,,,,,
,,,,,,51175,2023-07-21_13h00.43.918,vbt_B1_day2,2022.2.4,Win32,59.8372427,51175,,,,,,,,,,,,,,,,,,,,,,,,,,,down,0,16.2017,,-0.160185143,-0.235185199,1,0,0,5.2125,0,0,0,135,1,gedicht,images/br_gedicht.png,images/cb_gedicht.png,0,,,,,,,,,,,,,,,,,,,,,,
,,,,,,51175,2023-07-21_13h00.43.918,vbt_B1_day2,2022.2.4,Win32,59.8372427,51175,,,,,,,,,,,,,,,,,,,,,,,,,,,down,0,42.4124,,0.046296296,-0.357407393,1,0,0,2.2036,0,1,1,57,1,steek,images/br_steek.png,images/cb_steek.png,1,steek,,,,,,,,,,,,,,,,,,,,,
,,,,,,51175,2023-07-21_13h00.43.918,vbt_B1_day2,2022.2.4,Win32,59.8372427,51175,,,,,,,,,,,,,,,,,,,,,,,,,,,down,0,17.484,,0.046296296,-0.357407393,1,0,0,2.976,0,2,2,171,1,aarzelen,images/br_aarzelen.png,images/cb_aarzelen.png,0,,,,,,,,,,,,,,,,,,,,,,
,,,,,,51175,2023-07-21_13h00.43.918,vbt_B1_day2,2022.2.4,Win32,59.8372427,51175,,,,,,,,,,,,,,,,,,,,,,,,,,,down,0,4.7354,,0.046296296,-0.357407393,1,0,0,3.0424,0,3,3,34,1,vorm,images/br_vorm.png,images/cb_vorm.png,0,,,,,,,,,,,,,,,,,,,,,,
,,,,,,51175,2023-07-21_13h00.43.918,vbt_B1_day2,2022.2.4,Win32,59.8372427,51175,,,,,,,,,,,,,,,,,,,,,,,,,,,down,0,22.0513,,0.046296296,-0.357407393,1,0,0,3.0018,0,4,4,83,1,mening,images/br_mening.png,images/cb_mening.png,0,,,,,,,,,,,,,,,,,,,,,,
,,,,,,51175,2023-07-21_13h00.43.918,vbt_B1_day2,2022.2.4,Win32,59.8372427,51175,,,,,,,,,,,,,,,,,,,,,,,,,,,down,0,35.5286,,0.046296296,-0.357407393,1,0,0,3.1991,0,5,5,178,1,huisdier,images/br_huisdier.png,images/cb_huisdier.png,1,huisdier,,,,,,,,,,,,,,,,,,,,,
,,,,,,51175,2023-07-21_13h00.43.918,vbt_B1_day2,2022.2.4,Win32,59.8372427,51175,,,,,,,,,,,,,,,,,,,,,,,,,,,down,0,8.3557,,0.046296296,-0.357407393,1,0,0,2.6671,0,6,6,61,1,groen,images/br_groen.png,images/cb_groen.png,0,,,,,,,,,,,,,,,,,,,,,,
,,,,,,51175,2023-07-21_13h00.43.918,vbt_B1_day2,2022.2.4,Win32,59.8372427,51175,,,,,,,,,,,,,,,,,,,,,,,,,,,down,0,17.9298,,0.046296296,-0.357407393,1,0,0,1.6001,0,7,7,139,1,stiekem,images/br_stiekem.png,images/cb_stiekem.png,1,stiekem,,,,,,,,,,,,,,,,,,,,,
,,,,,,51175,2023-07-21_13h00.43.918,vbt_B1_day2,2022.2.4,Win32,59.8372427,51175,,,,,,,,,,,,,,,,,,,,,,,,,,,down,0,11.9355,,0.046296296,-0.357407393,1,0,0,1.3844,0,8,8,132,1,grappen,images/br_grappen.png,images/cb_grappen.png,0,,,,,,,,,,,,,,,,,,,,,,
,,,,,,51175,2023-07-21_13h00.43.918,vbt_B1_day2,2022.2.4,Win32,59.8372427,51175,,,,,,,,,,,,,,,,,,,,,,,,,,,down,0,22.369,,0.046296296,-0.357407393,1,0,0,3.7171,0,9,9,199,1,beseffen,images/br_beseffen.png,images/cb_beseffen.png,0,,,,,,,,,,,,,,,,,,,,,,
,,,,,,51175,2023-07-21_13h00.43.918,vbt_B1_day2,2022.2.4,Win32,59.8372427,51175,,,,,,,,,,,,,,,,,,,,,,,,,,,down,0,20.5672,,0.046296296,-0.357407393,1,0,0,1.137,0,10,10,198,1,bedoelen,images/br_bedoelen.png,images/cb_bedoelen.png,0,,,,,,,,,,,,,,,,,,,,,,
,,,,,,51175,2023-07-21_13h00.43.918,vbt_B1_day2,2022.2.4,Win32,59.8372427,51175,,,,,,,,,,,,,,,,,,,,,,,,,,,down,0,12.2463,,0.046296296,-0.357407393,1,0,0,1.0165,0,11,11,91,1,gezond,images/br_gezond.png,images/cb_gezond.png,0,,,,,,,,,,,,,,,,,,,,,,
,,,,,,51175,2023-07-21_13h00.43.918,vbt_B1_day2,2022.2.4,Win32,59.8372427,51175,,,,,,,,,,,,,,,,,,,,,,,,,,,down,0,9.0351,,0.046296296,-0.357407393,1,0,0,1.5762,0,12,12,137,1,trekker,images/br_trekker.png,images/cb_trekker.png,1,trekker,,,,,,,,,,,,,,,,,,,,,
,,,,,,51175,2023-07-21_13h00.43.918,vbt_B1_day2,2022.2.4,Win32,59.8372427,51175,,,,,,,,,,,,,,,,,,,,,,,,,,,down,0,11.4016,,0.046296296,-0.357407393,1,0,0,1.5903,0,13,13,160,1,daarheen,images/br_daarheen.png,images/cb_daarheen.png,0,,,,,,,,,,,,,,,,,,,,,,
,,,,,,51175,2023-07-21_13h00.43.918,vbt_B1_day2,2022.2.4,Win32,59.8372427,51175,,,,,,,,,,,,,,,,,,,,,,,,,,,down,0,32.599,,0.046296296,-0.357407393,1,0,0,1.7384,0,14,14,130,1,keihard,images/br_keihard.png,images/cb_keihard.png,0,,,,,,,,,,,,,,,,,,,,,,
,,,,,,51175,2023-07-21_13h00.43.918,vbt_B1_day2,2022.2.4,Win32,59.8372427,51175,,,,,,,,,,,,,,,,,,,,,,,,,,,down,0,7.7348,,0.046296296,-0.357407393,1,0,0,1.5047,0,15,15,189,1,aanraden,images/br_aanraden.png,images/cb_aanraden.png,0,,,,,,,,,,,,,,,,,,,,,,
,,,,,,51175,2023-07-21_13h00.43.918,vbt_B1_day2,2022.2.4,Win32,59.8372427,51175,,,,,,,,,,,,,,,,,,,,,,,,,,,down,0,7.7844,,0.046296296,-0.357407393,1,0,0,2.7583,0,16,16,166,1,strikken,images/br_strikken.png,images/cb_strikken.png,0,,,,,,,,,,,,,,,,,,,,,,
,,,,,,51175,2023-07-21_13h00.43.918,vbt_B1_day2,2022.2.4,Win32,59.8372427,51175,,,,,,,,,,,,,,,,,,,,,,,,,,,down,0,17.7083,,0.046296296,-0.357407393,1,0,0,2.435,0,17,17,43,1,klauw,images/br_klauw.png,images/cb_klauw.png,0,,,,,,,,,,,,,,,,,,,,,,
,,,,,,51175,2023-07-21_13h00.43.918,vbt_B1_day2,2022.2.4,Win32,59.8372427,51175,,,,,,,,,,,,,,,,,,,,,,,,,,,down,0,12.7013,,0.046296296,-0.357407393,1,0,0,1.4663,0,18,18,15,1,soda,images/br_soda.png,images/cb_soda.png,0,,,,,,,,,,,,,,,,,,,,,,
,,,,,,51175,2023-07-21_13h00.43.918,vbt_B1_day2,2022.2.4,Win32,59.8372427,51175,,,,,,,,,,,,,,,,,,,,,,,,,,,down,0,9.4349,,0.046296296,-0.357407393,1,0,0,1.1381,0,19,19,104,1,zweven,images/br_zweven.png,images/cb_zweven.png,0,,,,,,,,,,,,,,,,,,,,,,
,,,,,,51175,2023-07-21_13h00.43.918,vbt_B1_day2,2022.2.4,Win32,59.8372427,51175,,,,,,,,,,,,,,,,,,,,,,,,,,,down,0,27.1489,,0.046296296,-0.357407393,1,0,0,1.2442,0,20,20,185,1,mijnheer,images/br_mijnheer.png,images/cb_mijnheer.png,0,,,,,,,,,,,,,,,,,,,,,,
,,,,,,51175,2023-07-21_13h00.43.918,vbt_B1_day2,2022.2.4,Win32,59.8372427,51175,,,,,,,,,,,,,,,,,,,,,,,,,,,down,0,5.5048,,0.046296296,-0.357407393,1,0,0,3.6101,0,21,21,2,1,jaar,images/br_jaar.png,images/cb_jaar.png,0,,,,,,,,,,,,,,,,,,,,,,
,,,,,,51175,2023-07-21_13h00.43.918,vbt_B1_day2,2022.2.4,Win32,59.8372427,51175,,,,,,,,,,,,,,,,,,,,,,,,,,,down,0,16.526,,0.046296296,-0.357407393,1,0,0,1.4526,0,22,22,131,1,opzicht,images/br_opzicht.png,images/cb_opzicht.png,0,,,,,,,,,,,,,,,,,,,,,,
,,,,,,51175,2023-07-21_13h00.43.918,vbt_B1_day2,2022.2.4,Win32,59.8372427,51175,,,,,,,,,,,,,,,,,,,,,,,,,,,down,0,10.5506,,0.046296296,-0.357407393,1,0,0,1.1912,0,23,23,86,1,woning,images/br_woning.png,images/cb_woning.png,0,,,,,,,,,,,,,,,,,,,,,,
,,,,,,51175,2023-07-21_13h00.43.918,vbt_B1_day2,2022.2.4,Win32,59.8372427,51175,,,,,,,,,,,,,,,,,,,,,,,,,,,down,0,7.0026,,0.046296296,-0.357407393,1,0,0,1.0146,0,24,24,78,1,leren,images/br_leren.png,images/cb_leren.png,0,,,,,,,,,,,,,,,,,,,,,,
,,,,,,51175,2023-07-21_13h00.43.918,vbt_B1_day2,2022.2.4,Win32,59.8372427,51175,,,,,,,,,,,,,,,,,,,,,,,,,,,down,0,17.0196,,0.046296296,-0.357407393,1,0,0,1.1845,0,25,25,127,1,doodmoe,images/br_doodmoe.png,images/cb_doodmoe.png,0,,,,,,,,,,,,,,,,,,,,,,
,,,,,,51175,2023-07-21_13h00.43.918,vbt_B1_day2,2022.2.4,Win32,59.8372427,51175,,,,,,,,,,,,,,,,,,,,,,,,,,,down,0,12.2385,,0.046296296,-0.357407393,1,0,0,1.4258,0,26,26,70,1,ijdel,images/br_ijdel.png,images/cb_ijdel.png,0,,,,,,,,,,,,,,,,,,,,,,
,,,,,,51175,2023-07-21_13h00.43.918,vbt_B1_day2,2022.2.4,Win32,59.8372427,51175,,,,,,,,,,,,,,,,,,,,,,,,,,,down,0,17.0837,,0.046296296,-0.357407393,1,0,0,1.406,0,27,27,100,1,geduld,images/br_geduld.png,images/cb_geduld.png,0,,,,,,,,,,,,,,,,,,,,,,
,,,,,,51175,2023-07-21_13h00.43.918,vbt_B1_day2,2022.2.4,Win32,59.8372427,51175,,,,,,,,,,,,,,,,,,,,,,,,,,,down,0,29.2162,,0.046296296,-0.357407393,1,0,0,1.1939,0,28,28,174,1,stemming,images/br_stemming.png,images/cb_stemming.png,0,,,,,,,,,,,,,,,,,,,,,,
,,,,,,51175,2023-07-21_13h00.43.918,vbt_B1_day2,2022.2.4,Win32,59.8372427,51175,,,,,,,,,,,,,,,,,,,,,,,,,,,down,0,22.7665,,0.046296296,-0.357407393,1,0,0,6.3893,0,29,29,128,1,prikken,images/br_prikken.png,images/cb_prikken.png,0,,,,,,,,,,,,,,,,,,,,,,
,,,,,,51175,2023-07-21_13h00.43.918,vbt_B1_day2,2022.2.4,Win32,59.8372427,51175,,,,,,,,,,,,,,,,,,,,,,,,,,,down,0,6.6706,,0.046296296,-0.357407393,1,0,0,1.9233,0,30,30,180,1,openbaar,images/br_openbaar.png,images/cb_openbaar.png,0,,,,,,,,,,,,,,,,,,,,,,
,,,,,,51175,2023-07-21_13h00.43.918,vbt_B1_day2,2022.2.4,Win32,59.8372427,51175,,,,,,,,,,,,,,,,,,,,,,,,,,,down,0,5.6358,,0.046296296,-0.357407393,1,0,0,1.0215,0,31,31,79,1,nodig,images/br_nodig.png,images/cb_nodig.png,0,,,,,,,,,,,,,,,,,,,,,,
,,,,,,51175,2023-07-21_13h00.43.918,vbt_B1_day2,2022.2.4,Win32,59.8372427,51175,,,,,,,,,,,,,,,,,,,,,,,,,,,down,0,6.5045,,0.046296296,-0.357407393,1,0,0,1.1528,0,32,32,120,1,klimmen,images/br_klimmen.png,images/cb_klimmen.png,0,,,,,,,,,,,,,,,,,,,,,,
,,,,,,51175,2023-07-21_13h00.43.918,vbt_B1_day2,2022.2.4,Win32,59.8372427,51175,,,,,,,,,,,,,,,,,,,,,,,,,,,down,0,16.0179,,0.046296296,-0.357407393,1,0,0,1.2215,0,33,33,85,1,heilig,images/br_heilig.png,images/cb_heilig.png,0,,,,,,,,,,,,,,,,,,,,,,
,,,,,,51175,2023-07-21_13h00.43.918,vbt_B1_day2,2022.2.4,Win32,59.8372427,51175,,,,,,,,,,,,,,,,,,,,,,,,,,,down,0,5.653,,0.046296296,-0.357407393,1,0,0,1.4689,0,34,34,10,1,leek,images/br_leek.png,images/cb_leek.png,0,,,,,,,,,,,,,,,,,,,,,,
,,,,,,51175,2023-07-21_13h00.43.918,vbt_B1_day2,2022.2.4,Win32,59.8372427,51175,,,,,,,,,,,,,,,,,,,,,,,,,,,down,0,10.4136,,0.046296296,-0.357407393,1,0,0,2.0863,0,35,35,96,1,slagen,images/br_slagen.png,images/cb_slagen.png,1,slagen,,,,,,,,,,,,,,,,,,,,,
,,,,,,51175,2023-07-21_13h00.43.918,vbt_B1_day2,2022.2.4,Win32,59.8372427,51175,,,,,,,,,,,,,,,,,,,,,,,,,,,down,0,11.2176,,0.046296296,-0.357407393,1,0,0,1.0558,0,36,36,65,1,parel,images/br_parel.png,images/cb_parel.png,0,,,,,,,,,,,,,,,,,,,,,,
,,,,,,51175,2023-07-21_13h00.43.918,vbt_B1_day2,2022.2.4,Win32,59.8372427,51175,,,,,,,,,,,,,,,,,,,,,,,,,,,down,0,2.6441,,0.046296296,-0.357407393,1,0,0,1.2392,0,37,37,84,1,lokken,images/br_lokken.png,images/cb_lokken.png,0,,,,,,,,,,,,,,,,,,,,,,
,,,,,,51175,2023-07-21_13h00.43.918,vbt_B1_day2,2022.2.4,Win32,59.8372427,51175,,,,,,,,,,,,,,,,,,,,,,,,,,,down,0,13.5838,,0.046296296,-0.357407393,1,0,0,1.2192,0,38,38,169,1,oprotten,images/br_oprotten.png,images/cb_oprotten.png,0,,,,,,,,,,,,,,,,,,,,,,
,,,,,,51175,2023-07-21_13h00.43.918,vbt_B1_day2,2022.2.4,Win32,59.8372427,51175,,,,,,,,,,,,,,,,,,,,,,,,,,,down,0,11.9504,,0.046296296,-0.357407393,1,0,0,1.3691,0,39,39,107,1,maling,images/br_maling.png,images/cb_maling.png,0,,,,,,,,,,,,,,,,,,,,,,
,,,,,,51175,2023-07-21_13h00.43.918,vbt_B1_day2,2022.2.4,Win32,59.8372427,51175,,,,,,,,,,,,,,,,,,,,,,,,,,,down,0,5.6087,,0.046296296,-0.357407393,1,0,0,1.1031,0,40,40,64,1,wegen,images/br_wegen.png,images/cb_wegen.png,0,,,,,,,,,,,,,,,,,,,,,,
,,,,,,51175,2023-07-21_13h00.43.918,vbt_B1_day2,2022.2.4,Win32,59.8372427,51175,,,,,,,,,,,,,,,,,,,,,,,,,,,down,0,12.8701,,0.046296296,-0.357407393,1,0,0,1.4233,0,41,41,32,1,palm,images/br_palm.png,images/cb_palm.png,0,,,,,,,,,,,,,,,,,,,,,,
,,,,,,51175,2023-07-21_13h00.43.918,vbt_B1_day2,2022.2.4,Win32,59.8372427,51175,,,,,,,,,,,,,,,,,,,,,,,,,,,down,0,8.7017,,0.046296296,-0.357407393,1,0,0,0.9437,0,42,42,28,1,stal,images/br_stal.png,images/cb_stal.png,0,,,,,,,,,,,,,,,,,,,,,,
,,,,,,51175,2023-07-21_13h00.43.918,vbt_B1_day2,2022.2.4,Win32,59.8372427,51175,,,,,,,,,,,,,,,,,,,,,,,,,,,down,0,7.1537,,0.046296296,-0.357407393,1,0,0,1.0525,0,43,43,13,1,kaal,images/br_kaal.png,images/cb_kaal.png,0,,,,,,,,,,,,,,,,,,,,,,
,,,,,,51175,2023-07-21_13h00.43.918,vbt_B1_day2,2022.2.4,Win32,59.8372427,51175,,,,,,,,,,,,,,,,,,,,,,,,,,,down,0,27.3333,,0.046296296,-0.357407393,1,0,0,0.9176,0,44,44,144,1,eetlust,images/br_eetlust.png,images/cb_eetlust.png,0,,,,,,,,,,,,,,,,,,,,,,
,,,,,,51175,2023-07-21_13h00.43.918,vbt_B1_day2,2022.2.4,Win32,59.8372427,51175,,,,,,,,,,,,,,,,,,,,,,,,,,,down,0,8.7013,,0.046296296,-0.357407393,1,0,0,1.0217,0,45,45,117,1,kennis,images/br_kennis.png,images/cb_kennis.png,0,,,,,,,,,,,,,,,,,,,,,,
,,,,,,51175,2023-07-21_13h00.43.918,vbt_B1_day2,2022.2.4,Win32,59.8372427,51175,,,,,,,,,,,,,,,,,,,,,,,,,,,down,0,6.6035,,0.046296296,-0.357407393,1,0,0,1.112,0,46,46,16,1,ziek,images/br_ziek.png,images/cb_ziek.png,1,ziek,,,,,,,,,,,,,,,,,,,,,
,,,,,,51175,2023-07-21_13h00.43.918,vbt_B1_day2,2022.2.4,Win32,59.8372427,51175,,,,,,,,,,,,,,,,,,,,,,,,,,,down,0,9.1369,,0.046296296,-0.357407393,1,0,0,0.8477,0,47,47,149,1,redding,images/br_redding.png,images/cb_redding.png,0,,,,,,,,,,,,,,,,,,,,,,
,,,,,,51175,2023-07-21_13h00.43.918,vbt_B1_day2,2022.2.4,Win32,59.8372427,51175,,,,,,,,,,,,,,,,,,,,,,,,,,,down,0,10.984,,0.046296296,-0.357407393,1,0,0,0.9399,0,48,48,155,1,gerucht,images/br_gerucht.png,images/cb_gerucht.png,0,,,,,,,,,,,,,,,,,,,,,,
,,,,,,51175,2023-07-21_13h00.43.918,vbt_B1_day2,2022.2.4,Win32,59.8372427,51175,,,,,,,,,,,,,,,,,,,,,,,,,,,down,0,16.8237,,0.046296296,-0.357407393,1,0,0,1.1249,0,49,49,136,1,waarbij,images/br_waarbij.png,images/cb_waarbij.png,1,waarbij,,,,,,,,,,,,,,,,,,,,,
,,,,,,51175,2023-07-21_13h00.43.918,vbt_B1_day2,2022.2.4,Win32,59.8372427,51175,,,,,,,,,,,,,,,,,,,,,,,,,,,down,0,10.4518,,0.046296296,-0.357407393,1,0,0,0.8492,0,50,50,175,1,heengaan,images/br_heengaan.png,images/cb_heengaan.png,0,,,,,,,,,,,,,,,,,,,,,,
,,,,,,51175,2023-07-21_13h00.43.918,vbt_B1_day2,2022.2.4,Win32,59.8372427,51175,,,,,,,,,,,,,,,,,,,,,,,,,,,down,0,9.8691,,0.046296296,-0.357407393,1,0,0,1.0054,0,51,51,134,1,geliefd,images/br_geliefd.png,images/cb_geliefd.png,0,,,,,,,,,,,,,,,,,,,,,,
,,,,,,51175,2023-07-21_13h00.43.918,vbt_B1_day2,2022.2.4,Win32,59.8372427,51175,,,,,,,,,,,,,,,,,,,,,,,,,,,down,0,20.1016,,0.046296296,-0.357407393,1,0,0,1.4216,0,52,52,154,1,aflopen,images/br_aflopen.png,images/cb_aflopen.png,0,,,,,,,,,,,,,,,,,,,,,,
,,,,,,51175,2023-07-21_13h00.43.918,vbt_B1_day2,2022.2.4,Win32,59.8372427,51175,,,,,,,,,,,,,,,,,,,,,,,,,,,down,0,3.669,,0.046296296,-0.357407393,1,0,0,1.2722,0,53,53,74,1,graaf,images/br_graaf.png,images/cb_graaf.png,0,,,,,,,,,,,,,,,,,,,,,,
,,,,,,51175,2023-07-21_13h00.43.918,vbt_B1_day2,2022.2.4,Win32,59.8372427,51175,,,,,,,,,,,,,,,,,,,,,,,,,,,down,0,25.2999,,0.046296296,-0.357407393,1,0,0,1.1144,0,54,54,110,1,zuster,images/br_zuster.png,images/cb_zuster.png,0,,,,,,,,,,,,,,,,,,,,,,
,,,,,,51175,2023-07-21_13h00.43.918,vbt_B1_day2,2022.2.4,Win32,59.8372427,51175,,,,,,,,,,,,,,,,,,,,,,,,,,,down,0,3.3342,,0.046296296,-0.357407393,1,0,0,1.1364,0,55,55,48,1,steel,images/br_steel.png,images/cb_steel.png,0,,,,,,,,,,,,,,,,,,,,,,
,,,,,,51175,2023-07-21_13h00.43.918,vbt_B1_day2,2022.2.4,Win32,59.8372427,51175,,,,,,,,,,,,,,,,,,,,,,,,,,,down,0,4.2514,,0.046296296,-0.357407393,1,0,0,0.942,0,56,56,38,1,baai,images/br_baai.png,images/cb_baai.png,0,,,,,,,,,,,,,,,,,,,,,,
,,,,,,51175,2023-07-21_13h00.43.918,vbt_B1_day2,2022.2.4,Win32,59.8372427,51175,,,,,,,,,,,,,,,,,,,,,,,,,,,down,0,14.9592,,0.046296296,-0.357407393,1,0,0,0.7906,0,57,57,190,1,goedkoop,images/br_goedkoop.png,images/cb_goedkoop.png,0,,,,,,,,,,,,,,,,,,,,,,
,,,,,,51175,2023-07-21_13h00.43.918,vbt_B1_day2,2022.2.4,Win32,59.8372427,51175,,,,,,,,,,,,,,,,,,,,,,,,,,,down,0,6.3091,,0.046296296,-0.357407393,1,0,0,1.0184,0,58,58,119,1,liefje,images/br_liefje.png,images/cb_liefje.png,0,,,,,,,,,,,,,,,,,,,,,,
,,,,,,51175,2023-07-21_13h00.43.918,vbt_B1_day2,2022.2.4,Win32,59.8372427,51175,,,,,,,,,,,,,,,,,,,,,,,,,,,down,0,4.5033,,0.046296296,-0.357407393,1,0,0,0.8384,0,59,59,23,1,zout,images/br_zout.png,images/cb_zout.png,0,,,,,,,,,,,,,,,,,,,,,,
,,,,,,51175,2023-07-21_13h00.43.918,vbt_B1_day2,2022.2.4,Win32,59.8372427,51175,,,,,,,,,,,,,,,,,,,,,,,,,,,down,0,12.2006,,0.046296296,-0.357407393,1,0,0,0.919,0,60,60,141,1,knielen,images/br_knielen.png,images/cb_knielen.png,0,,,,,,,,,,,,,,,,,,,,,,
,,,,,,51175,2023-07-21_13h00.43.918,vbt_B1_day2,2022.2.4,Win32,59.8372427,51175,,,,,,,,,,,,,,,,,,,,,,,,,,,down,0,17.1693,,0.050925926,-0.357407393,1,0,0,1.3652,0,61,61,58,1,tekst,images/br_tekst.png,images/cb_tekst.png,1,tekst,,,,,,,,,,,,,,,,,,,,,
,,,,,,51175,2023-07-21_13h00.43.918,vbt_B1_day2,2022.2.4,Win32,59.8372427,51175,,,,,,,,,,,,,,,,,,,,,,,,,,,down,0,3.988,,0.050925926,-0.357407393,1,0,0,1.1345,0,62,62,125,1,aanzien,images/br_aanzien.png,images/cb_aanzien.png,0,,,,,,,,,,,,,,,,,,,,,,
,,,,,,51175,2023-07-21_13h00.43.918,vbt_B1_day2,2022.2.4,Win32,59.8372427,51175,,,,,,,,,,,,,,,,,,,,,,,,,,,down,0,4.8849,,0.050925926,-0.357407393,1,0,0,0.9006,0,63,63,148,1,smullen,images/br_smullen.png,images/cb_smullen.png,0,,,,,,,,,,,,,,,,,,,,,,
,,,,,,51175,2023-07-21_13h00.43.918,vbt_B1_day2,2022.2.4,Win32,59.8372427,51175,,,,,,,,,,,,,,,,,,,,,,,,,,,down,0,4.001,,0.050925926,-0.357407393,1,0,0,0.8452,0,64,64,47,1,kabel,images/br_kabel.png,images/cb_kabel.png,0,,,,,,,,,,,,,,,,,,,,,,
,,,,,,51175,2023-07-21_13h00.43.918,vbt_B1_day2,2022.2.4,Win32,59.8372427,51175,,,,,,,,,,,,,,,,,,,,,,,,,,,down,0,3.0921,,0.050925926,-0.357407393,1,0,0,0.8366,0,65,65,46,1,jagen,images/br_jagen.png,images/cb_jagen.png,0,,,,,,,,,,,,,,,,,,,,,,
,,,,,,51175,2023-07-21_13h00.43.918,vbt_B1_day2,2022.2.4,Win32,59.8372427,51175,,,,,,,,,,,,,,,,,,,,,,,,,,,down,0,9.2673,,0.050925926,-0.357407393,1,0,0,0.8394,0,66,66,115,1,kleren,images/br_kleren.png,images/cb_kleren.png,0,,,,,,,,,,,,,,,,,,,,,,
,,,,,,51175,2023-07-21_13h00.43.918,vbt_B1_day2,2022.2.4,Win32,59.8372427,51175,,,,,,,,,,,,,,,,,,,,,,,,,,,down,0,4.2523,,0.050925926,-0.357407393,1,0,0,1.0032,0,67,67,118,1,vinger,images/br_vinger.png,images/cb_vinger.png,0,,,,,,,,,,,,,,,,,,,,,,
,,,,,,51175,2023-07-21_13h00.43.918,vbt_B1_day2,2022.2.4,Win32,59.8372427,51175,,,,,,,,,,,,,,,,,,,,,,,,,,,down,0,4.0604,,0.050925926,-0.357407393,1,0,0,0.8883,0,68,68,102,1,legaal,images/br_legaal.png,images/cb_legaal.png,0,,,,,,,,,,,,,,,,,,,,,,
,,,,,,51175,2023-07-21_13h00.43.918,vbt_B1_day2,2022.2.4,Win32,59.8372427,51175,,,,,,,,,,,,,,,,,,,,,,,,,,,down,0,4.9942,,0.050925926,-0.357407393,1,0,0,1.1384,0,69,69,3,1,mand,images/br_mand.png,images/cb_mand.png,0,,,,,,,,,,,,,,,,,,,,,,
,,,,,,51175,2023-07-21_13h00.43.918,vbt_B1_day2,2022.2.4,Win32,59.8372427,51175,,,,,,,,,,,,,,,,,,,,,,,,,,,down,0,9.8261,,0.050925926,-0.357407393,1,0,0,0.9859,0,70,70,80,1,kanjer,images/br_kanjer.png,images/cb_kanjer.png,0,,,,,,,,,,,,,,,,,,,,,,
,,,,,,51175,2023-07-21_13h00.43.918,vbt_B1_day2,2022.2.4,Win32,59.8372427,51175,,,,,,,,,,,,,,,,,,,,,,,,,,,down,0,4.4279,,0.050925926,-0.357407393,1,0,0,0.9901,0,71,71,50,1,stoom,images/br_stoom.png,images/cb_stoom.png,0,,,,,,,,,,,,,,,,,,,,,,
,,,,,,51175,2023-07-21_13h00.43.918,vbt_B1_day2,2022.2.4,Win32,59.8372427,51175,,,,,,,,,,,,,,,,,,,,,,,,,,,down,0,8.9521,,0.050925926,-0.357407393,1,0,0,1.0168,0,72,72,182,1,bijkomen,images/br_bijkomen.png,images/cb_bijkomen.png,0,,,,,,,,,,,,,,,,,,,,,,
,,,,,,51175,2023-07-21_13h00.43.918,vbt_B1_day2,2022.2.4,Win32,59.8372427,51175,,,,,,,,,,,,,,,,,,,,,,,,,,,down,0,23.4492,,0.050925926,-0.357407393,1,0,0,0.8398,0,73,73,165,1,feestdag,images/br_feestdag.png,images/cb_feestdag.png,0,,,,,,,,,,,,,,,,,,,,,,
,,,,,,51175,2023-07-21_13h00.43.918,vbt_B1_day2,2022.2.4,Win32,59.8372427,51175,,,,,,,,,,,,,,,,,,,,,,,,,,,down,0,11.5363,,0.050925926,-0.357407393,1,0,0,1.0172,0,74,74,92,1,geheim,images/br_geheim.png,images/cb_geheim.png,0,,,,,,,,,,,,,,,,,,,,,,
,,,,,,51175,2023-07-21_13h00.43.918,vbt_B1_day2,2022.2.4,Win32,59.8372427,51175,,,,,,,,,,,,,,,,,,,,,,,,,,,down,0,11.7331,,0.050925926,-0.357407393,1,0,0,0.8743,0,75,75,140,1,blijven,images/br_blijven.png,images/cb_blijven.png,0,,,,,,,,,,,,,,,,,,,,,,
,,,,,,51175,2023-07-21_13h00.43.918,vbt_B1_day2,2022.2.4,Win32,59.8372427,51175,,,,,,,,,,,,,,,,,,,,,,,,,,,down,0,6.8846,,0.050925926,-0.357407393,1,0,0,0.9187,0,76,76,45,1,piste,images/br_piste.png,images/cb_piste.png,0,,,,,,,,,,,,,,,,,,,,,,
,,,,,,51175,2023-07-21_13h00.43.918,vbt_B1_day2,2022.2.4,Win32,59.8372427,51175,,,,,,,,,,,,,,,,,,,,,,,,,,,down,0,7.6677,,0.050925926,-0.357407393,1,0,0,0.8194,0,77,77,75,1,snoep,images/br_snoep.png,images/cb_snoep.png,0,,,,,,,,,,,,,,,,,,,,,,
,,,,,,51175,2023-07-21_13h00.43.918,vbt_B1_day2,2022.2.4,Win32,59.8372427,51175,,,,,,,,,,,,,,,,,,,,,,,,,,,down,0,12.6319,,0.050925926,-0.357407393,1,0,0,1.1666,0,78,78,197,1,spanning,images/br_spanning.png,images/cb_spanning.png,0,,,,,,,,,,,,,,,,,,,,,,
,,,,,,51175,2023-07-21_13h00.43.918,vbt_B1_day2,2022.2.4,Win32,59.8372427,51175,,,,,,,,,,,,,,,,,,,,,,,,,,,down,0,14.0339,,0.050925926,-0.357407393,1,0,0,0.8462,0,79,79,159,1,sufferd,images/br_sufferd.png,images/cb_sufferd.png,0,,,,,,,,,,,,,,,,,,,,,,
,,,,,,51175,2023-07-21_13h00.43.918,vbt_B1_day2,2022.2.4,Win32,59.8372427,51175,,,,,,,,,,,,,,,,,,,,,,,,,,,down,0,7.2854,,0.050925926,-0.357407393,1,0,0,0.9064,0,80,80,27,1,dans,images/br_dans.png,images/cb_dans.png,0,,,,,,,,,,,,,,,,,,,,,,
,,,,,,51175,2023-07-21_13h00.43.918,vbt_B1_day2,2022.2.4,Win32,59.8372427,51175,,,,,,,,,,,,,,,,,,,,,,,,,,,down,0,21.1503,,0.050925926,-0.357407393,1,0,0,1.4225,0,81,81,94,1,oceaan,images/br_oceaan.png,images/cb_oceaan.png,0,,,,,,,,,,,,,,,,,,,,,,
,,,,,,51175,2023-07-21_13h00.43.918,vbt_B1_day2,2022.2.4,Win32,59.8372427,51175,,,,,,,,,,,,,,,,,,,,,,,,,,,down,0,10.717,,0.050925926,-0.357407393,1,0,0,1.123,0,82,82,111,1,ticket,images/br_ticket.png,images/cb_ticket.png,0,,,,,,,,,,,,,,,,,,,,,,
,,,,,,51175,2023-07-21_13h00.43.918,vbt_B1_day2,2022.2.4,Win32,59.8372427,51175,,,,,,,,,,,,,,,,,,,,,,,,,,,down,0,15.3018,,0.050925926,-0.357407393,1,0,0,1.2753,0,83,83,164,1,anarchie,images/br_anarchie.png,images/cb_anarchie.png,0,,,,,,,,,,,,,,,,,,,,,,
,,,,,,51175,2023-07-21_13h00.43.918,vbt_B1_day2,2022.2.4,Win32,59.8372427,51175,,,,,,,,,,,,,,,,,,,,,,,,,,,down,0,8.484,,0.050925926,-0.357407393,1,0,0,0.8185,0,84,84,37,1,mijn,images/br_mijn.png,images/cb_mijn.png,0,,,,,,,,,,,,,,,,,,,,,,
,,,,,,51175,2023-07-21_13h00.43.918,vbt_B1_day2,2022.2.4,Win32,59.8372427,51175,,,,,,,,,,,,,,,,,,,,,,,,,,,down,0,8.3946,,0.050925926,-0.357407393,1,0,0,0.8009,0,85,85,184,1,aandelen,images/br_aandelen.png,images/cb_aandelen.png,0,,,,,,,,,,,,,,,,,,,,,,
,,,,,,51175,2023-07-21_13h00.43.918,vbt_B1_day2,2022.2.4,Win32,59.8372427,51175,,,,,,,,,,,,,,,,,,,,,,,,,,,down,0,7.819,,0.050925926,-0.357407393,1,0,0,0.85,0,86,86,122,1,waarvan,images/br_waarvan.png,images/cb_waarvan.png,0,,,,,,,,,,,,,,,,,,,,,,
,,,,,,51175,2023-07-21_13h00.43.918,vbt_B1_day2,2022.2.4,Win32,59.8372427,51175,,,,,,,,,,,,,,,,,,,,,,,,,,,down,0,6.0409,,0.050925926,-0.357407393,1,0,0,0.8551,0,87,87,73,1,volop,images/br_volop.png,images/cb_volop.png,0,,,,,,,,,,,,,,,,,,,,,,
,,,,,,51175,2023-07-21_13h00.43.918,vbt_B1_day2,2022.2.4,Win32,59.8372427,51175,,,,,,,,,,,,,,,,,,,,,,,,,,,down,0,9.8651,,0.050925926,-0.357407393,1,0,0,0.9882,0,88,88,138,1,akkoord,images/br_akkoord.png,images/cb_akkoord.png,1,akkoord,,,,,,,,,,,,,,,,,,,,,
,,,,,,51175,2023-07-21_13h00.43.918,vbt_B1_day2,2022.2.4,Win32,59.8372427,51175,,,,,,,,,,,,,,,,,,,,,,,,,,,down,0,9.2373,,0.050925926,-0.357407393,1,0,0,0.8037,0,89,89,76,1,afval,images/br_afval.png,images/cb_afval.png,0,,,,,,,,,,,,,,,,,,,,,,
,,,,,,51175,2023-07-21_13h00.43.918,vbt_B1_day2,2022.2.4,Win32,59.8372427,51175,,,,,,,,,,,,,,,,,,,,,,,,,,,down,0,3.9375,,0.050925926,-0.357407393,1,0,0,0.5757,0,90,90,67,1,zwart,images/br_zwart.png,images/cb_zwart.png,0,,,,,,,,,,,,,,,,,,,,,,
,,,,,,51175,2023-07-21_13h00.43.918,vbt_B1_day2,2022.2.4,Win32,59.8372427,51175,,,,,,,,,,,,,,,,,,,,,,,,,,,down,0,11.5343,,0.050925926,-0.357407393,1,0,0,0.4894,0,91,91,172,1,weigeren,images/br_weigeren.png,images/cb_weigeren.png,0,,,,,,,,,,,,,,,,,,,,,,
,,,,,,51175,2023-07-21_13h00.43.918,vbt_B1_day2,2022.2.4,Win32,59.8372427,51175,,,,,,,,,,,,,,,,,,,,,,,,,,,down,0,18.6351,,0.050925926,-0.357407393,1,0,0,0.5389,0,92,92,68,1,schat,images/br_schat.png,images/cb_schat.png,0,,,,,,,,,,,,,,,,,,,,,,
,,,,,,51175,2023-07-21_13h00.43.918,vbt_B1_day2,2022.2.4,Win32,59.8372427,51175,,,,,,,,,,,,,,,,,,,,,,,,,,,down,0,9.284,,0.050925926,-0.357407393,1,0,0,0.5176,0,93,93,24,1,jurk,images/br_jurk.png,images/cb_jurk.png,0,,,,,,,,,,,,,,,,,,,,,,
,,,,,,51175,2023-07-21_13h00.43.918,vbt_B1_day2,2022.2.4,Win32,59.8372427,51175,,,,,,,,,,,,,,,,,,,,,,,,,,,down,0,14.285,,0.050925926,-0.357407393,1,0,0,0.4545,0,94,94,143,1,hechten,images/br_hechten.png,images/cb_hechten.png,0,,,,,,,,,,,,,,,,,,,,,,
,,,,,,51175,2023-07-21_13h00.43.918,vbt_B1_day2,2022.2.4,Win32,59.8372427,51175,,,,,,,,,,,,,,,,,,,,,,,,,,,down,0,6.3842,,0.050925926,-0.357407393,1,0,0,0.643,0,95,95,4,1,moes,images/br_moes.png,images/cb_moes.png,0,,,,,,,,,,,,,,,,,,,,,,
,,,,,,51175,2023-07-21_13h00.43.918,vbt_B1_day2,2022.2.4,Win32,59.8372427,51175,,,,,,,,,,,,,,,,,,,,,,,,,,,down,0,10.4033,,0.050925926,-0.357407393,1,0,0,0.4108,0,96,96,98,1,kreeft,images/br_kreeft.png,images/cb_kreeft.png,1,kreeft,,,,,,,,,,,,,,,,,,,,,
,,,,,,51175,2023-07-21_13h00.43.918,vbt_B1_day2,2022.2.4,Win32,59.8372427,51175,,,,,,,,,,,,,,,,,,,,,,,,,,,down,0,23.4829,,0.050925926,-0.357407393,1,0,0,0.9027,0,97,97,147,1,komisch,images/br_komisch.png,images/cb_komisch.png,0,,,,,,,,,,,,,,,,,,,,,,
,,,,,,51175,2023-07-21_13h00.43.918,vbt_B1_day2,2022.2.4,Win32,59.8372427,51175,,,,,,,,,,,,,,,,,,,,,,,,,,,down,0,10.6174,,0.050925926,-0.357407393,1,0,0,0.4694,0,98,98,14,1,rijp,images/br_rijp.png,images/cb_rijp.png,0,,,,,,,,,,,,,,,,,,,,,,
,,,,,,51175,2023-07-21_13h00.43.918,vbt_B1_day2,2022.2.4,Win32,59.8372427,51175,,,,,,,,,,,,,,,,,,,,,,,,,,,down,0,1.6538,,0.050925926,-0.357407393,1,0,0,0.3388,0,99,99,7,1,geld,images/br_geld.png,images/cb_geld.png,0,,,,,,,,,,,,,,,,,,,,,,
,,,,,,51175,2023-07-21_13h00.43.918,vbt_B1_day2,2022.2.4,Win32,59.8372427,51175,,,,,,,,,,,,,,,,,,,,,,,,,,,down,0,11.6516,,0.050925926,-0.357407393,1,0,0,1.5357,0,100,100,116,1,besmet,images/br_besmet.png,images/cb_besmet.png,0,,,,,,,,,,,,,,,,,,,,,,
,,,,,,51175,2023-07-21_13h00.43.918,vbt_B1_day2,2022.2.4,Win32,59.8372427,51175,,,,,,,,,,,,,,,,,,,,,,,,,,,down,0,27.1834,,0.050925926,-0.357407393,1,0,0,0.3586,0,101,101,168,1,bisschop,images/br_bisschop.png,images/cb_bisschop.png,0,,,,,,,,,,,,,,,,,,,,,,
,,,,,,51175,2023-07-21_13h00.43.918,vbt_B1_day2,2022.2.4,Win32,59.8372427,51175,,,,,,,,,,,,,,,,,,,,,,,,,,,down,0,11.7063,,0.050925926,-0.357407393,1,0,0,0.7017,0,102,102,176,1,techniek,images/br_techniek.png,images/cb_techniek.png,1,techniek,,,,,,,,,,,,,,,,,,,,,
,,,,,,51175,2023-07-21_13h00.43.918,vbt_B1_day2,2022.2.4,Win32,59.8372427,51175,,,,,,,,,,,,,,,,,,,,,,,,,,,down,0,4.7517,,0.050925926,-0.357407393,1,0,0,0.6001,0,103,103,52,1,wagon,images/br_wagon.png,images/cb_wagon.png,0,,,,,,,,,,,,,,,,,,,,,,
,,,,,,51175,2023-07-21_13h00.43.918,vbt_B1_day2,2022.2.4,Win32,59.8372427,51175,,,,,,,,,,,,,,,,,,,,,,,,,,,down,0,4.5848,,0.050925926,-0.357407393,1,0,0,0.4426,0,104,104,31,1,poes,images/br_poes.png,images/cb_poes.png,0,,,,,,,,,,,,,,,,,,,,,,
,,,,,,51175,2023-07-21_13h00.43.918,vbt_B1_day2,2022.2.4,Win32,59.8372427,51175,,,,,,,,,,,,,,,,,,,,,,,,,,,down,0,12.9652,,0.050925926,-0.357407393,1,0,0,2.2049,0,105,105,30,1,uien,images/br_uien.png,images/cb_uien.png,0,,,,,,,,,,,,,,,,,,,,,,
,,,,,,51175,2023-07-21_13h00.43.918,vbt_B1_day2,2022.2.4,Win32,59.8372427,51175,,,,,,,,,,,,,,,,,,,,,,,,,,,down,0,9.5188,,0.050925926,-0.357407393,1,0,0,0.5372,0,106,106,11,1,mode,images/br_mode.png,images/cb_mode.png,0,,,,,,,,,,,,,,,,,,,,,,
,,,,,,51175,2023-07-21_13h00.43.918,vbt_B1_day2,2022.2.4,Win32,59.8372427,51175,,,,,,,,,,,,,,,,,,,,,,,,,,,down,0,20.8336,,0.050925926,-0.357407393,1,0,0,0.5697,0,107,107,153,1,vervoer,images/br_vervoer.png,images/cb_vervoer.png,0,,,,,,,,,,,,,,,,,,,,,,
,,,,,,51175,2023-07-21_13h00.43.918,vbt_B1_day2,2022.2.4,Win32,59.8372427,51175,,,,,,,,,,,,,,,,,,,,,,,,,,,down,0,23.6529,,0.050925926,-0.357407393,1,0,0,0.4218,0,108,108,170,1,schatten,images/br_schatten.png,images/cb_schatten.png,0,,,,,,,,,,,,,,,,,,,,,,
,,,,,,51175,2023-07-21_13h00.43.918,vbt_B1_day2,2022.2.4,Win32,59.8372427,51175,,,,,,,,,,,,,,,,,,,,,,,,,,,down,0,10.518,,0.050925926,-0.357407393,1,0,0,0.4063,0,109,109,113,1,koppen,images/br_koppen.png,images/cb_koppen.png,0,,,,,,,,,,,,,,,,,,,,,,
,,,,,,51175,2023-07-21_13h00.43.918,vbt_B1_day2,2022.2.4,Win32,59.8372427,51175,,,,,,,,,,,,,,,,,,,,,,,,,,,down,0,4.6013,,0.050925926,-0.357407393,1,0,0,1.2422,0,110,110,129,1,verhaal,images/br_verhaal.png,images/cb_verhaal.png,0,,,,,,,,,,,,,,,,,,,,,,
,,,,,,51175,2023-07-21_13h00.43.918,vbt_B1_day2,2022.2.4,Win32,59.8372427,51175,,,,,,,,,,,,,,,,,,,,,,,,,,,down,0,5.2682,,0.050925926,-0.357407393,1,0,0,0.4358,0,111,111,21,1,mist,images/br_mist.png,images/cb_mist.png,0,,,,,,,,,,,,,,,,,,,,,,
,,,,,,51175,2023-07-21_13h00.43.918,vbt_B1_day2,2022.2.4,Win32,59.8372427,51175,,,,,,,,,,,,,,,,,,,,,,,,,,,down,0,9.5342,,0.050925926,-0.357407393,1,0,0,0.436,0,112,112,35,1,lust,images/br_lust.png,images/cb_lust.png,0,,,,,,,,,,,,,,,,,,,,,,
,,,,,,51175,2023-07-21_13h00.43.918,vbt_B1_day2,2022.2.4,Win32,59.8372427,51175,,,,,,,,,,,,,,,,,,,,,,,,,,,down,0,9.4366,,0.050925926,-0.357407393,1,0,0,0.4345,0,113,113,121,1,twijfel,images/br_twijfel.png,images/cb_twijfel.png,0,,,,,,,,,,,,,,,,,,,,,,
,,,,,,51175,2023-07-21_13h00.43.918,vbt_B1_day2,2022.2.4,Win32,59.8372427,51175,,,,,,,,,,,,,,,,,,,,,,,,,,,down,0,4.7686,,0.050925926,-0.357407393,1,0,0,0.7382,0,114,114,18,1,blik,images/br_blik.png,images/cb_blik.png,1,blik,,,,,,,,,,,,,,,,,,,,,
,,,,,,51175,2023-07-21_13h00.43.918,vbt_B1_day2,2022.2.4,Win32,59.8372427,51175,,,,,,,,,,,,,,,,,,,,,,,,,,,down,0,9.4195,,0.050925926,-0.357407393,1,0,0,0.348,0,115,115,36,1,vuur,images/br_vuur.png,images/cb_vuur.png,0,,,,,,,,,,,,,,,,,,,,,,
,,,,,,51175,2023-07-21_13h00.43.918,vbt_B1_day2,2022.2.4,Win32,59.8372427,51175,,,,,,,,,,,,,,,,,,,,,,,,,,,down,0,12.5863,,0.050925926,-0.357407393,1,0,0,1.034,0,116,116,108,1,excuus,images/br_excuus.png,images/cb_excuus.png,0,,,,,,,,,,,,,,,,,,,,,,
,,,,,,51175,2023-07-21_13h00.43.918,vbt_B1_day2,2022.2.4,Win32,59.8372427,51175,,,,,,,,,,,,,,,,,,,,,,,,,,,down,0,6.7185,,0.050925926,-0.357407393,1,0,0,0.7363,0,117,117,89,1,slapen,images/br_slapen.png,images/cb_slapen.png,0,,,,,,,,,,,,,,,,,,,,,,
,,,,,,51175,2023-07-21_13h00.43.918,vbt_B1_day2,2022.2.4,Win32,59.8372427,51175,,,,,,,,,,,,,,,,,,,,,,,,,,,down,0,2.0393,,0.050925926,-0.357407393,1,0,0,0.6188,0,118,118,9,1,hier,images/br_hier.png,images/cb_hier.png,0,,,,,,,,,,,,,,,,,,,,,,
,,,,,,51175,2023-07-21_13h00.43.918,vbt_B1_day2,2022.2.4,Win32,59.8372427,51175,,,,,,,,,,,,,,,,,,,,,,,,,,,down,0,11.5672,,0.050925926,-0.357407393,1,0,0,0.4089,0,119,119,133,1,seizoen,images/br_seizoen.png,images/cb_seizoen.png,0,,,,,,,,,,,,,,,,,,,,,,
,,,,,,51175,2023-07-21_13h00.43.918,vbt_B1_day2,2022.2.4,Win32,59.8372427,51175,,,,,,,,,,,,,,,,,,,,,,,,,,,down,0,7.2361,,0.050925926,-0.357407393,1,0,0,0.5232,0,120,120,97,1,loyaal,images/br_loyaal.png,images/cb_loyaal.png,1,loyaal,,,,,,,,,,,,,,,,,,,,,
,,,,,,51175,2023-07-21_13h00.43.918,vbt_B1_day2,2022.2.4,Win32,59.8372427,51175,,,,,,,,,,,,,,,,,,,,,,,,,,,down,0,6.4177,,0.050925926,-0.357407393,1,0,0,0.4718,0,121,121,146,1,opkomen,images/br_opkomen.png,images/cb_opkomen.png,0,,,,,,,,,,,,,,,,,,,,,,
,,,,,,51175,2023-07-21_13h00.43.918,vbt_B1_day2,2022.2.4,Win32,59.8372427,51175,,,,,,,,,,,,,,,,,,,,,,,,,,,down,0,4.2026,,0.050925926,-0.357407393,1,0,0,0.4548,0,122,122,114,1,vullen,images/br_vullen.png,images/cb_vullen.png,0,,,,,,,,,,,,,,,,,,,,,,
,,,,,,51175,2023-07-21_13h00.43.918,vbt_B1_day2,2022.2.4,Win32,59.8372427,51175,,,,,,,,,,,,,,,,,,,,,,,,,,,down,0,22.3153,,0.050925926,-0.357407393,1,0,0,0.5737,0,123,123,145,1,invloed,images/br_invloed.png,images/cb_invloed.png,0,,,,,,,,,,,,,,,,,,,,,,
,,,,,,51175,2023-07-21_13h00.43.918,vbt_B1_day2,2022.2.4,Win32,59.8372427,51175,,,,,,,,,,,,,,,,,,,,,,,,,,,down,0,2.9684,,0.050925926,-0.357407393,1,0,0,0.6051,0,124,124,42,1,bleek,images/br_bleek.png,images/cb_bleek.png,0,,,,,,,,,,,,,,,,,,,,,,
,,,,,,51175,2023-07-21_13h00.43.918,vbt_B1_day2,2022.2.4,Win32,59.8372427,51175,,,,,,,,,,,,,,,,,,,,,,,,,,,down,0,14.3428,,0.050925926,-0.357407393,1,0,0,1.3693,0,125,125,188,1,strekken,images/br_strekken.png,images/cb_strekken.png,0,,,,,,,,,,,,,,,,,,,,,,
,,,,,,51175,2023-07-21_13h00.43.918,vbt_B1_day2,2022.2.4,Win32,59.8372427,51175,,,,,,,,,,,,,,,,,,,,,,,,,,,down,0,14.6014,,0.050925926,-0.357407393,1,0,0,1.6535,0,126,126,193,1,weeshuis,images/br_weeshuis.png,images/cb_weeshuis.png,0,,,,,,,,,,,,,,,,,,,,,,
,,,,,,51175,2023-07-21_13h00.43.918,vbt_B1_day2,2022.2.4,Win32,59.8372427,51175,,,,,,,,,,,,,,,,,,,,,,,,,,,down,0,27.9348,,0.050925926,-0.357407393,1,0,0,1.8548,0,127,127,187,1,opkijken,images/br_opkijken.png,images/cb_opkijken.png,0,,,,,,,,,,,,,,,,,,,,,,
,,,,,,51175,2023-07-21_13h00.43.918,vbt_B1_day2,2022.2.4,Win32,59.8372427,51175,,,,,,,,,,,,,,,,,,,,,,,,,,,down,0,5.757,,0.050925926,-0.357407393,1,0,0,0.5737,0,128,128,29,1,baas,images/br_baas.png,images/cb_baas.png,0,,,,,,,,,,,,,,,,,,,,,,
,,,,,,51175,2023-07-21_13h00.43.918,vbt_B1_day2,2022.2.4,Win32,59.8372427,51175,,,,,,,,,,,,,,,,,,,,,,,,,,,down,0,4.6043,,0.050925926,-0.357407393,1,0,0,0.5692,0,129,129,33,1,vlek,images/br_vlek.png,images/cb_vlek.png,0,,,,,,,,,,,,,,,,,,,,,,
,,,,,,51175,2023-07-21_13h00.43.918,vbt_B1_day2,2022.2.4,Win32,59.8372427,51175,,,,,,,,,,,,,,,,,,,,,,,,,,,down,0,11.4343,,0.050925926,-0.357407393,1,0,0,0.7907,0,130,130,54,1,gebit,images/br_gebit.png,images/cb_gebit.png,0,,,,,,,,,,,,,,,,,,,,,,
,,,,,,51175,2023-07-21_13h00.43.918,vbt_B1_day2,2022.2.4,Win32,59.8372427,51175,,,,,,,,,,,,,,,,,,,,,,,,,,,down,0,47.0143,,0.050925926,-0.357407393,1,0,0,2.2251,0,131,131,51,1,samen,images/br_samen.png,images/cb_samen.png,0,,,,,,,,,,,,,,,,,,,,,,
,,,,,,51175,2023-07-21_13h00.43.918,vbt_B1_day2,2022.2.4,Win32,59.8372427,51175,,,,,,,,,,,,,,,,,,,,,,,,,,,down,0,2.5691,,0.050925926,-0.357407393,1,0,0,0.4223,0,132,132,8,1,knie,images/br_knie.png,images/cb_knie.png,0,,,,,,,,,,,,,,,,,,,,,,
,,,,,,51175,2023-07-21_13h00.43.918,vbt_B1_day2,2022.2.4,Win32,59.8372427,51175,,,,,,,,,,,,,,,,,,,,,,,,,,,down,0,11.948,,0.050925926,-0.357407393,1,0,0,0.7837,0,133,133,177,1,maaltijd,images/br_maaltijd.png,images/cb_maaltijd.png,1,maaltijd,,,,,,,,,,,,,,,,,,,,,
,,,,,,51175,2023-07-21_13h00.43.918,vbt_B1_day2,2022.2.4,Win32,59.8372427,51175,,,,,,,,,,,,,,,,,,,,,,,,,,,down,0,3.6699,,0.050925926,-0.357407393,1,0,0,0.8411,0,134,134,0,1,slak,images/br_slak.png,images/cb_slak.png,0,,,,,,,,,,,,,,,,,,,,,,
,,,,,,51175,2023-07-21_13h00.43.918,vbt_B1_day2,2022.2.4,Win32,59.8372427,51175,,,,,,,,,,,,,,,,,,,,,,,,,,,down,0,9.6174,,0.050925926,-0.357407393,1,0,0,0.6695,0,135,135,82,1,muziek,images/br_muziek.png,images/cb_muziek.png,0,,,,,,,,,,,,,,,,,,,,,,
,,,,,,51175,2023-07-21_13h00.43.918,vbt_B1_day2,2022.2.4,Win32,59.8372427,51175,,,,,,,,,,,,,,,,,,,,,,,,,,,down,0,10.2344,,0.050925926,-0.357407393,1,0,0,0.7729,0,136,136,88,1,boeien,images/br_boeien.png,images/cb_boeien.png,0,,,,,,,,,,,,,,,,,,,,,,
,,,,,,51175,2023-07-21_13h00.43.918,vbt_B1_day2,2022.2.4,Win32,59.8372427,51175,,,,,,,,,,,,,,,,,,,,,,,,,,,down,0,4.9698,,0.050925926,-0.357407393,1,0,0,0.6914,0,137,137,19,1,geit,images/br_geit.png,images/cb_geit.png,1,geit,,,,,,,,,,,,,,,,,,,,,
,,,,,,51175,2023-07-21_13h00.43.918,vbt_B1_day2,2022.2.4,Win32,59.8372427,51175,,,,,,,,,,,,,,,,,,,,,,,,,,,down,0,3.3876,,0.050925926,-0.357407393,1,0,0,0.3752,0,138,138,22,1,stof,images/br_stof.png,images/cb_stof.png,0,,,,,,,,,,,,,,,,,,,,,,
,,,,,,51175,2023-07-21_13h00.43.918,vbt_B1_day2,2022.2.4,Win32,59.8372427,51175,,,,,,,,,,,,,,,,,,,,,,,,,,,down,0,3.1201,,0.050925926,-0.357407393,1,0,0,0.4554,0,139,139,25,1,plek,images/br_plek.png,images/cb_plek.png,0,,,,,,,,,,,,,,,,,,,,,,
,,,,,,51175,2023-07-21_13h00.43.918,vbt_B1_day2,2022.2.4,Win32,59.8372427,51175,,,,,,,,,,,,,,,,,,,,,,,,,,,down,0,2.0186,,0.050925926,-0.357407393,1,0,0,0.8878,0,140,140,17,1,taal,images/br_taal.png,images/cb_taal.png,1,taal,,,,,,,,,,,,,,,,,,,,,
,,,,,,51175,2023-07-21_13h00.43.918,vbt_B1_day2,2022.2.4,Win32,59.8372427,51175,,,,,,,,,,,,,,,,,,,,,,,,,,,down,0,5.6187,,0.050925926,-0.357407393,1,0,0,0.4905,0,141,141,49,1,laken,images/br_laken.png,images/cb_laken.png,0,,,,,,,,,,,,,,,,,,,,,,
,,,,,,51175,2023-07-21_13h00.43.918,vbt_B1_day2,2022.2.4,Win32,59.8372427,51175,,,,,,,,,,,,,,,,,,,,,,,,,,,down,0,12.4852,,0.050925926,-0.357407393,1,0,0,1.3989,0,142,142,152,1,afnemen,images/br_afnemen.png,images/cb_afnemen.png,0,,,,,,,,,,,,,,,,,,,,,,
,,,,,,51175,2023-07-21_13h00.43.918,vbt_B1_day2,2022.2.4,Win32,59.8372427,51175,,,,,,,,,,,,,,,,,,,,,,,,,,,down,0,3.9038,,0.050925926,-0.357407393,1,0,0,0.6081,0,143,143,56,1,traag,images/br_traag.png,images/cb_traag.png,1,traag,,,,,,,,,,,,,,,,,,,,,
,,,,,,51175,2023-07-21_13h00.43.918,vbt_B1_day2,2022.2.4,Win32,59.8372427,51175,,,,,,,,,,,,,,,,,,,,,,,,,,,down,0,12.5509,,0.050925926,-0.357407393,1,0,0,5.2559,0,144,144,105,1,wijlen,images/br_wijlen.png,images/cb_wijlen.png,0,,,,,,,,,,,,,,,,,,,,,,
,,,,,,51175,2023-07-21_13h00.43.918,vbt_B1_day2,2022.2.4,Win32,59.8372427,51175,,,,,,,,,,,,,,,,,,,,,,,,,,,down,0,9.6999,,0.050925926,-0.357407393,1,0,0,1.4729,0,145,145,40,1,schep,images/br_schep.png,images/cb_schep.png,0,,,,,,,,,,,,,,,,,,,,,,
,,,,,,51175,2023-07-21_13h00.43.918,vbt_B1_day2,2022.2.4,Win32,59.8372427,51175,,,,,,,,,,,,,,,,,,,,,,,,,,,down,0,4.4028,,0.050925926,-0.357407393,1,0,0,0.5911,0,146,146,126,1,kasteel,images/br_kasteel.png,images/cb_kasteel.png,0,,,,,,,,,,,,,,,,,,,,,,
,,,,,,51175,2023-07-21_13h00.43.918,vbt_B1_day2,2022.2.4,Win32,59.8372427,51175,,,,,,,,,,,,,,,,,,,,,,,,,,,down,0,3.7523,,0.050925926,-0.357407393,1,0,0,0.4428,0,147,147,112,1,lukken,images/br_lukken.png,images/cb_lukken.png,0,,,,,,,,,,,,,,,,,,,,,,
,,,,,,51175,2023-07-21_13h00.43.918,vbt_B1_day2,2022.2.4,Win32,59.8372427,51175,,,,,,,,,,,,,,,,,,,,,,,,,,,down,0,5.4508,,0.050925926,-0.357407393,1,0,0,0.5033,0,148,148,157,1,uitlaat,images/br_uitlaat.png,images/cb_uitlaat.png,0,,,,,,,,,,,,,,,,,,,,,,
,,,,,,51175,2023-07-21_13h00.43.918,vbt_B1_day2,2022.2.4,Win32,59.8372427,51175,,,,,,,,,,,,,,,,,,,,,,,,,,,down,0,9.1755,,0.050925926,-0.357407393,1,0,0,0.4378,0,149,149,62,1,knaap,images/br_knaap.png,images/cb_knaap.png,0,,,,,,,,,,,,,,,,,,,,,,
,,,,,,51175,2023-07-21_13h00.43.918,vbt_B1_day2,2022.2.4,Win32,59.8372427,51175,,,,,,,,,,,,,,,,,,,,,,,,,,,down,0,11.4178,,0.050925926,-0.357407393,1,0,0,0.7494,0,150,150,69,1,waken,images/br_waken.png,images/cb_waken.png,0,,,,,,,,,,,,,,,,,,,,,,
,,,,,,51175,2023-07-21_13h00.43.918,vbt_B1_day2,2022.2.4,Win32,59.8372427,51175,,,,,,,,,,,,,,,,,,,,,,,,,,,down,0,10.8271,,0.050925926,-0.357407393,1,0,0,0.802,0,151,151,194,1,driemaal,images/br_driemaal.png,images/cb_driemaal.png,0,,,,,,,,,,,,,,,,,,,,,,
,,,,,,51175,2023-07-21_13h00.43.918,vbt_B1_day2,2022.2.4,Win32,59.8372427,51175,,,,,,,,,,,,,,,,,,,,,,,,,,,down,0,18.086,,0.050925926,-0.357407393,1,0,0,4.0519,0,152,152,179,1,woestijn,images/br_woestijn.png,images/cb_woestijn.png,1,woestijn,,,,,,,,,,,,,,,,,,,,,
,,,,,,51175,2023-07-21_13h00.43.918,vbt_B1_day2,2022.2.4,Win32,59.8372427,51175,,,,,,,,,,,,,,,,,,,,,,,,,,,down,0,17.2229,,0.050925926,-0.357407393,1,0,0,0.8548,0,153,153,163,1,schuilen,images/br_schuilen.png,images/cb_schuilen.png,0,,,,,,,,,,,,,,,,,,,,,,
,,,,,,51175,2023-07-21_13h00.43.918,vbt_B1_day2,2022.2.4,Win32,59.8372427,51175,,,,,,,,,,,,,,,,,,,,,,,,,,,down,0,4.6521,,0.050925926,-0.357407393,1,0,0,0.5863,0,154,154,12,1,kust,images/br_kust.png,images/cb_kust.png,0,,,,,,,,,,,,,,,,,,,,,,
,,,,,,51175,2023-07-21_13h00.43.918,vbt_B1_day2,2022.2.4,Win32,59.8372427,51175,,,,,,,,,,,,,,,,,,,,,,,,,,,down,0,19.1506,,0.050925926,-0.357407393,1,0,0,2.7234,0,155,155,71,1,bever,images/br_bever.png,images/cb_bever.png,0,,,,,,,,,,,,,,,,,,,,,,
,,,,,,51175,2023-07-21_13h00.43.918,vbt_B1_day2,2022.2.4,Win32,59.8372427,51175,,,,,,,,,,,,,,,,,,,,,,,,,,,down,0,8.3529,,0.050925926,-0.357407393,1,0,0,0.4344,0,156,156,124,1,bloeien,images/br_bloeien.png,images/cb_bloeien.png,0,,,,,,,,,,,,,,,,,,,,,,
,,,,,,51175,2023-07-21_13h00.43.918,vbt_B1_day2,2022.2.4,Win32,59.8372427,51175,,,,,,,,,,,,,,,,,,,,,,,,,,,down,0,8.652,,0.050925926,-0.357407393,1,0,0,0.5021,0,157,157,44,1,flits,images/br_flits.png,images/cb_flits.png,0,,,,,,,,,,,,,,,,,,,,,,
,,,,,,51175,2023-07-21_13h00.43.918,vbt_B1_day2,2022.2.4,Win32,59.8372427,51175,,,,,,,,,,,,,,,,,,,,,,,,,,,down,0,4.4765,,0.050925926,-0.357407393,1,0,0,1.285,0,158,158,20,1,site,images/br_site.png,images/cb_site.png,0,,,,,,,,,,,,,,,,,,,,,,
,,,,,,51175,2023-07-21_13h00.43.918,vbt_B1_day2,2022.2.4,Win32,59.8372427,51175,,,,,,,,,,,,,,,,,,,,,,,,,,,down,0,9.1678,,0.050925926,-0.357407393,1,0,0,1.2853,0,159,159,162,1,uitdelen,images/br_uitdelen.png,images/cb_uitdelen.png,0,,,,,,,,,,,,,,,,,,,,,,
,,,,,,51175,2023-07-21_13h00.43.918,vbt_B1_day2,2022.2.4,Win32,59.8372427,51175,,,,,,,,,,,,,,,,,,,,,,,,,,,down,0,5.5685,,0.050925926,-0.357407393,1,0,0,0.655,0,160,160,167,1,eenhoorn,images/br_eenhoorn.png,images/cb_eenhoorn.png,0,,,,,,,,,,,,,,,,,,,,,,
,,,,,,51175,2023-07-21_13h00.43.918,vbt_B1_day2,2022.2.4,Win32,59.8372427,51175,,,,,,,,,,,,,,,,,,,,,,,,,,,down,0,5.9516,,0.050925926,-0.357407393,1,0,0,0.5389,0,161,161,72,1,strak,images/br_strak.png,images/cb_strak.png,0,,,,,,,,,,,,,,,,,,,,,,
,,,,,,51175,2023-07-21_13h00.43.918,vbt_B1_day2,2022.2.4,Win32,59.8372427,51175,,,,,,,,,,,,,,,,,,,,,,,,,,,down,0,7.7184,,0.050925926,-0.357407393,1,0,0,1.6022,0,162,162,186,1,voorraad,images/br_voorraad.png,images/cb_voorraad.png,0,,,,,,,,,,,,,,,,,,,,,,
,,,,,,51175,2023-07-21_13h00.43.918,vbt_B1_day2,2022.2.4,Win32,59.8372427,51175,,,,,,,,,,,,,,,,,,,,,,,,,,,down,0,13.194,,0.050925926,-0.357407393,1,0,0,1.2499,0,163,163,181,1,toegeven,images/br_toegeven.png,images/cb_toegeven.png,0,,,,,,,,,,,,,,,,,,,,,,
,,,,,,51175,2023-07-21_13h00.43.918,vbt_B1_day2,2022.2.4,Win32,59.8372427,51175,,,,,,,,,,,,,,,,,,,,,,,,,,,down,0,19.7335,,0.050925926,-0.357407393,1,0,0,9.8741,0,164,164,195,1,middelen,images/br_middelen.png,images/cb_middelen.png,0,,,,,,,,,,,,,,,,,,,,,,
,,,,,,51175,2023-07-21_13h00.43.918,vbt_B1_day2,2022.2.4,Win32,59.8372427,51175,,,,,,,,,,,,,,,,,,,,,,,,,,,down,0,9.1846,,0.050925926,-0.357407393,1,0,0,0.8734,0,165,165,106,1,zingen,images/br_zingen.png,images/cb_zingen.png,0,,,,,,,,,,,,,,,,,,,,,,
,,,,,,51175,2023-07-21_13h00.43.918,vbt_B1_day2,2022.2.4,Win32,59.8372427,51175,,,,,,,,,,,,,,,,,,,,,,,,,,,down,0,3.0849,,0.050925926,-0.357407393,1,0,0,0.6008,0,166,166,53,1,baron,images/br_baron.png,images/cb_baron.png,0,,,,,,,,,,,,,,,,,,,,,,
,,,,,,51175,2023-07-21_13h00.43.918,vbt_B1_day2,2022.2.4,Win32,59.8372427,51175,,,,,,,,,,,,,,,,,,,,,,,,,,,down,0,12.8669,,0.050925926,-0.357407393,1,0,0,0.5834,0,167,167,196,1,nakijken,images/br_nakijken.png,images/cb_nakijken.png,0,,,,,,,,,,,,,,,,,,,,,,
,,,,,,51175,2023-07-21_13h00.43.918,vbt_B1_day2,2022.2.4,Win32,59.8372427,51175,,,,,,,,,,,,,,,,,,,,,,,,,,,down,0,2.1605,,0.050925926,-0.357407393,1,0,0,0.8687,0,168,168,55,1,praat,images/br_praat.png,images/cb_praat.png,0,,,,,,,,,,,,,,,,,,,,,,
,,,,,,51175,2023-07-21_13h00.43.918,vbt_B1_day2,2022.2.4,Win32,59.8372427,51175,,,,,,,,,,,,,,,,,,,,,,,,,,,down,0,3.2512,,0.050925926,-0.357407393,1,0,0,0.7421,0,169,169,103,1,joggen,images/br_joggen.png,images/cb_joggen.png,0,,,,,,,,,,,,,,,,,,,,,,
,,,,,,51175,2023-07-21_13h00.43.918,vbt_B1_day2,2022.2.4,Win32,59.8372427,51175,,,,,,,,,,,,,,,,,,,,,,,,,,,down,0,0.5354,,0.050925926,-0.357407393,1,0,0,0.7592,0,170,170,1,1,zaal,images/br_zaal.png,images/cb_zaal.png,0,,,,,,,,,,,,,,,,,,,,,,
,,,,,,51175,2023-07-21_13h00.43.918,vbt_B1_day2,2022.2.4,Win32,59.8372427,51175,,,,,,,,,,,,,,,,,,,,,,,,,,,down,0,4.351,,0.050925926,-0.357407393,1,0,0,0.8517,0,171,171,101,1,staren,images/br_staren.png,images/cb_staren.png,0,,,,,,,,,,,,,,,,,,,,,,
,,,,,,51175,2023-07-21_13h00.43.918,vbt_B1_day2,2022.2.4,Win32,59.8372427,51175,,,,,,,,,,,,,,,,,,,,,,,,,,,down,0,6.9014,,0.050925926,-0.357407393,1,0,0,0.6185,0,172,172,192,1,schaamte,images/br_schaamte.png,images/cb_schaamte.png,0,,,,,,,,,,,,,,,,,,,,,,
,,,,,,51175,2023-07-21_13h00.43.918,vbt_B1_day2,2022.2.4,Win32,59.8372427,51175,,,,,,,,,,,,,,,,,,,,,,,,,,,down,0,5.1865,,0.050925926,-0.357407393,1,0,0,0.5389,0,173,173,156,1,rechten,images/br_rechten.png,images/cb_rechten.png,0,,,,,,,,,,,,,,,,,,,,,,
,,,,,,51175,2023-07-21_13h00.43.918,vbt_B1_day2,2022.2.4,Win32,59.8372427,51175,,,,,,,,,,,,,,,,,,,,,,,,,,,down,0,12.2669,,0.050925926,-0.357407393,1,0,0,0.5877,0,174,174,150,1,gegeven,images/br_gegeven.png,images/cb_gegeven.png,0,,,,,,,,,,,,,,,,,,,,,,
,,,,,,51175,2023-07-21_13h00.43.918,vbt_B1_day2,2022.2.4,Win32,59.8372427,51175,,,,,,,,,,,,,,,,,,,,,,,,,,,down,0,7.6349,,0.050925926,-0.357407393,1,0,0,0.4356,0,175,175,90,1,geluid,images/br_geluid.png,images/cb_geluid.png,0,,,,,,,,,,,,,,,,,,,,,,
,,,,,,51175,2023-07-21_13h00.43.918,vbt_B1_day2,2022.2.4,Win32,59.8372427,51175,,,,,,,,,,,,,,,,,,,,,,,,,,,down,0,4.6848,,0.050925926,-0.357407393,1,0,0,0.5732,0,176,176,77,1,woede,images/br_woede.png,images/cb_woede.png,0,,,,,,,,,,,,,,,,,,,,,,
,,,,,,51175,2023-07-21_13h00.43.918,vbt_B1_day2,2022.2.4,Win32,59.8372427,51175,,,,,,,,,,,,,,,,,,,,,,,,,,,down,0,12.1513,,0.050925926,-0.357407393,1,0,0,0.7381,0,177,177,142,1,snuiven,images/br_snuiven.png,images/cb_snuiven.png,0,,,,,,,,,,,,,,,,,,,,,,
,,,,,,51175,2023-07-21_13h00.43.918,vbt_B1_day2,2022.2.4,Win32,59.8372427,51175,,,,,,,,,,,,,,,,,,,,,,,,,,,down,0,4.022,,0.050925926,-0.357407393,1,0,0,0.64,0,178,178,95,1,vreten,images/br_vreten.png,images/cb_vreten.png,0,,,,,,,,,,,,,,,,,,,,,,
,,,,,,51175,2023-07-21_13h00.43.918,vbt_B1_day2,2022.2.4,Win32,59.8372427,51175,,,,,,,,,,,,,,,,,,,,,,,,,,,down,0,11.2684,,0.050925926,-0.357407393,1,0,0,1.6046,0,179,179,41,1,maken,images/br_maken.png,images/cb_maken.png,0,,,,,,,,,,,,,,,,,,,,,,
,,,,,,51175,2023-07-21_13h00.43.918,vbt_B1_day2,2022.2.4,Win32,59.8372427,51175,,,,,,,,,,,,,,,,,,,,,,,,,,,down,0,12.3501,,0.050925926,-0.357407393,1,0,0,0.4362,0,180,180,87,1,toeval,images/br_toeval.png,images/cb_toeval.png,0,,,,,,,,,,,,,,,,,,,,,,
,,,,,,51175,2023-07-21_13h00.43.918,vbt_B1_day2,2022.2.4,Win32,59.8372427,51175,,,,,,,,,,,,,,,,,,,,,,,,,,,down,0,12.2172,,0.050925926,-0.357407393,1,0,0,0.5014,0,181,181,123,1,hiervan,images/br_hiervan.png,images/cb_hiervan.png,0,,,,,,,,,,,,,,,,,,,,,,
,,,,,,51175,2023-07-21_13h00.43.918,vbt_B1_day2,2022.2.4,Win32,59.8372427,51175,,,,,,,,,,,,,,,,,,,,,,,,,,,down,0,1.5188,,0.050925926,-0.357407393,1,0,0,1.1744,0,182,182,39,1,laag,images/br_laag.png,images/cb_laag.png,0,,,,,,,,,,,,,,,,,,,,,,
,,,,,,51175,2023-07-21_13h00.43.918,vbt_B1_day2,2022.2.4,Win32,59.8372427,51175,,,,,,,,,,,,,,,,,,,,,,,,,,,down,0,14.1501,,0.050925926,-0.357407393,1,0,0,0.6542,0,183,183,66,1,lever,images/br_lever.png,images/cb_lever.png,0,,,,,,,,,,,,,,,,,,,,,,
,,,,,,51175,2023-07-21_13h00.43.918,vbt_B1_day2,2022.2.4,Win32,59.8372427,51175,,,,,,,,,,,,,,,,,,,,,,,,,,,down,0,6.7507,,0.050925926,-0.357407393,1,0,0,0.593,0,184,184,93,1,waarop,images/br_waarop.png,images/cb_waarop.png,0,,,,,,,,,,,,,,,,,,,,,,
,,,,,,51175,2023-07-21_13h00.43.918,vbt_B1_day2,2022.2.4,Win32,59.8372427,51175,,,,,,,,,,,,,,,,,,,,,,,,,,,down,0,13.9506,,0.050925926,-0.357407393,1,0,0,0.5744,0,185,185,60,1,jasje,images/br_jasje.png,images/cb_jasje.png,0,,,,,,,,,,,,,,,,,,,,,,
,,,,,,51175,2023-07-21_13h00.43.918,vbt_B1_day2,2022.2.4,Win32,59.8372427,51175,,,,,,,,,,,,,,,,,,,,,,,,,,,down,0,13.3171,,0.050925926,-0.357407393,1,0,0,5.2352,0,186,186,26,1,leuk,images/br_leuk.png,images/cb_leuk.png,0,,,,,,,,,,,,,,,,,,,,,,
,,,,,,51175,2023-07-21_13h00.43.918,vbt_B1_day2,2022.2.4,Win32,59.8372427,51175,,,,,,,,,,,,,,,,,,,,,,,,,,,down,0,10.8709,,0.050925926,-0.357407393,1,0,0,1.0192,0,187,187,173,1,apparaat,images/br_apparaat.png,images/cb_apparaat.png,0,,,,,,,,,,,,,,,,,,,,,,
,,,,,,51175,2023-07-21_13h00.43.918,vbt_B1_day2,2022.2.4,Win32,59.8372427,51175,,,,,,,,,,,,,,,,,,,,,,,,,,,down,0,3.7691,,0.050925926,-0.357407393,1,0,0,0.539,0,188,188,151,1,aanzoek,images/br_aanzoek.png,images/cb_aanzoek.png,0,,,,,,,,,,,,,,,,,,,,,,
,,,,,,51175,2023-07-21_13h00.43.918,vbt_B1_day2,2022.2.4,Win32,59.8372427,51175,,,,,,,,,,,,,,,,,,,,,,,,,,,down,0,7.2019,,0.050925926,-0.357407393,1,0,0,1.451,0,189,189,63,1,flirt,images/br_flirt.png,images/cb_flirt.png,0,,,,,,,,,,,,,,,,,,,,,,
,,,,,,51175,2023-07-21_13h00.43.918,vbt_B1_day2,2022.2.4,Win32,59.8372427,51175,,,,,,,,,,,,,,,,,,,,,,,,,,,down,0,10.8019,,0.050925926,-0.357407393,1,0,0,1.1055,0,190,190,161,1,attentie,images/br_attentie.png,images/cb_attentie.png,0,,,,,,,,,,,,,,,,,,,,,,
,,,,,,51175,2023-07-21_13h00.43.918,vbt_B1_day2,2022.2.4,Win32,59.8372427,51175,,,,,,,,,,,,,,,,,,,,,,,,,,,down,0,30.6997,,0.050925926,-0.357407393,1,0,0,4.743,0,191,191,191,1,opheffen,images/br_opheffen.png,images/cb_opheffen.png,0,,,,,,,,,,,,,,,,,,,,,,
,,,,,,51175,2023-07-21_13h00.43.918,vbt_B1_day2,2022.2.4,Win32,59.8372427,51175,,,,,,,,,,,,,,,,,,,,,,,,,,,down,0,6.4428,,0.050925926,-0.357407393,1,0,0,0.501,0,192,192,6,1,diep,images/br_diep.png,images/cb_diep.png,0,,,,,,,,,,,,,,,,,,,,,,
,,,,,,51175,2023-07-21_13h00.43.918,vbt_B1_day2,2022.2.4,Win32,59.8372427,51175,,,,,,,,,,,,,,,,,,,,,,,,,,,down,0,20.5008,,0.135185171,-0.375925912,1,0,0,0.7607,0,193,193,59,1,kring,images/br_kring.png,images/cb_kring.png,1,kring,,,,,,,,,,,,,,,,,,,,,
,,,,,,51175,2023-07-21_13h00.43.918,vbt_B1_day2,2022.2.4,Win32,59.8372427,51175,,,,,,,,,,,,,,,,,,,,,,,,,,,down,0,5.5839,,0.135185171,-0.375925912,1,0,0,0.4887,0,194,194,183,1,getuigen,images/br_getuigen.png,images/cb_getuigen.png,0,,,,,,,,,,,,,,,,,,,,,,
,,,,,,51175,2023-07-21_13h00.43.918,vbt_B1_day2,2022.2.4,Win32,59.8372427,51175,,,,,,,,,,,,,,,,,,,,,,,,,,,down,0,12.5846,,0.135185171,-0.375925912,1,0,0,0.5545,0,195,195,158,1,innemen,images/br_innemen.png,images/cb_innemen.png,0,,,,,,,,,,,,,,,,,,,,,,
,,,,,,51175,2023-07-21_13h00.43.918,vbt_B1_day2,2022.2.4,Win32,59.8372427,51175,,,,,,,,,,,,,,,,,,,,,,,,,,,down,0,9.8506,,0.135185171,-0.375925912,1,0,0,0.6058,0,196,196,109,1,totaal,images/br_totaal.png,images/cb_totaal.png,0,,,,,,,,,,,,,,,,,,,,,,
,,,,,,51175,2023-07-21_13h00.43.918,vbt_B1_day2,2022.2.4,Win32,59.8372427,51175,,,,,,,,,,,,,,,,,,,,,,,,,,,down,0,11.0505,,0.135185171,-0.375925912,1,0,0,1.1968,0,197,197,99,1,koffie,images/br_koffie.png,images/cb_koffie.png,1,koffie,,,,,,,,,,,,,,,,,,,,,
,,,,,,51175,2023-07-21_13h00.43.918,vbt_B1_day2,2022.2.4,Win32,59.8372427,51175,,,,,,,,,,,,,,,,,,,,,,,,,,,down,0,9.201,,0.135185171,-0.375925912,1,0,0,0.4754,0,198,198,5,1,blad,images/br_blad.png,images/cb_blad.png,0,,,,,,,,,,,,,,,,,,,,,,
,,,,,,51175,2023-07-21_13h00.43.918,vbt_B1_day2,2022.2.4,Win32,59.8372427,51175,,,,,,,,,,,,,,,,,,,,,,,,,,,down,0,5.6606,,0.135185171,-0.375925912,1,0,0,0.4693,0,199,199,81,1,dubbel,images/br_dubbel.png,images/cb_dubbel.png,0,,,,,,,,,,,,,,,,,,,,,,
,,,,,,51175,2023-07-21_13h00.43.918,vbt_B1_day2,2022.2.4,Win32,59.8372427,51175,,,,,,,,,,,,,,,,,,,,,,,,,,,,,,,,,,,,,,,,,,,,,,,0.582407492,-0.301851838,1,0,0,,,,,,,,,,,,,,,,
,,,,,,51175,2023-07-21_13h00.43.918,vbt_B1_day2,2022.2.4,Win32,59.8372427,51175,,,,,,,,,,,,,,,,,,,,,,,,,,,,,,,,,,,,,,,,,,,,,,,,,,,,0.582407492,-0.301851838,1,0,0,,,,,,,,,,,
,,,,,,51175,2023-07-21_13h00.43.918,vbt_B1_day2,2022.2.4,Win32,59.8372427,51175,,,,,,,,,,,,,,,,,,,,,,,,,,,,,,,,,,,,,,,,,,negel,images/br_negel.png,images/cb_negel.png,,negel,,,,,,,,,,,0.582407492,-0.301851838,1,0,0,negel,0,0,0,24,1
,,,,,,51175,2023-07-21_13h00.43.918,vbt_B1_day2,2022.2.4,Win32,59.8372427,51175,,,,,,,,,,,,,,,,,,,,,,,,,,,,,,,,,,,,,,,,,,moes,images/br_moes.png,images/cb_moes.png,,moeis,,,,,,,,,,,0.582407492,-0.301851838,1,0,0,moeis,0,1,1,0,1
,,,,,,51175,2023-07-21_13h00.43.918,vbt_B1_day2,2022.2.4,Win32,59.8372427,51175,,,,,,,,,,,,,,,,,,,,,,,,,,,,,,,,,,,,,,,,,,systeem,images/br_systeem.png,images/cb_systeem.png,,sy.,,,,,,,,,,,0.582407492,-0.301851838,1,0,0,sy.,0,2,2,54,1
,,,,,,51175,2023-07-21_13h00.43.918,vbt_B1_day2,2022.2.4,Win32,59.8372427,51175,,,,,,,,,,,,,,,,,,,,,,,,,,,,,,,,,,,,,,,,,,flits,images/br_flits.png,images/cb_flits.png,,flets,,,,,,,,,,,0.582407492,-0.301851838,1,0,0,flets,0,3,3,4,1
,,,,,,51175,2023-07-21_13h00.43.918,vbt_B1_day2,2022.2.4,Win32,59.8372427,51175,,,,,,,,,,,,,,,,,,,,,,,,,,,,,,,,,,,,,,,,,,bereuwen,images/br_bereuwen.png,images/cb_bereuwen.png,,bete,,,,,,,,,,,0.582407492,-0.301851838,1,0,0,bete,0,4,4,39,1
,,,,,,51175,2023-07-21_13h00.43.918,vbt_B1_day2,2022.2.4,Win32,59.8372427,51175,,,,,,,,,,,,,,,,,,,,,,,,,,,,,,,,,,,,,,,,,,thema,images/br_thema.png,images/cb_thema.png,,th,,,,,,,,,,,0.582407492,-0.301851838,1,0,0,th,0,5,5,47,1
,,,,,,51175,2023-07-21_13h00.43.918,vbt_B1_day2,2022.2.4,Win32,59.8372427,51175,,,,,,,,,,,,,,,,,,,,,,,,,,,,,,,,,,,,,,,,,,opdatten,images/br_opdatten.png,images/cb_opdatten.png,,opdat,,,,,,,,,,,0.582407492,-0.301851838,1,0,0,opdat,0,6,6,37,1
,,,,,,51175,2023-07-21_13h00.43.918,vbt_B1_day2,2022.2.4,Win32,59.8372427,51175,,,,,,,,,,,,,,,,,,,,,,,,,,,,,,,,,,,,,,,,,,blad,images/br_blad.png,images/cb_blad.png,,blad,,,,,,,,,,,0.582407492,-0.301851838,1,0,0,blad,0,7,7,1,1
,,,,,,51175,2023-07-21_13h00.43.918,vbt_B1_day2,2022.2.4,Win32,59.8372427,51175,,,,,,,,,,,,,,,,,,,,,,,,,,,,,,,,,,,,,,,,,,kijlen,images/br_kijlen.png,images/cb_kijlen.png,,kijl,,,,,,,,,,,0.582407492,-0.301851838,1,0,0,kijl,0,8,8,31,1
,,,,,,51175,2023-07-21_13h00.43.918,vbt_B1_day2,2022.2.4,Win32,59.8372427,51175,,,,,,,,,,,,,,,,,,,,,,,,,,,,,,,,,,,,,,,,,,anarchie,images/br_anarchie.png,images/cb_anarchie.png,,anarchie,,,,,,,,,,,0.582407492,-0.301851838,1,0,0,anarchie,0,9,9,16,1
,,,,,,51175,2023-07-21_13h00.43.918,vbt_B1_day2,2022.2.4,Win32,59.8372427,51175,,,,,,,,,,,,,,,,,,,,,,,,,,,,,,,,,,,,,,,,,,joes,images/br_joes.png,images/cb_joes.png,,joe,,,,,,,,,,,0.582407492,-0.301851838,1,0,0,joe,0,10,10,20,1
,,,,,,51175,2023-07-21_13h00.43.918,vbt_B1_day2,2022.2.4,Win32,59.8372427,51175,,,,,,,,,,,,,,,,,,,,,,,,,,,,,,,,,,,,,,,,,,badon,images/br_badon.png,images/cb_badon.png,,bado,,,,,,,,,,,0.582407492,-0.301851838,1,0,0,bado,0,11,11,26,1
,,,,,,51175,2023-07-21_13h00.43.918,vbt_B1_day2,2022.2.4,Win32,59.8372427,51175,,,,,,,,,,,,,,,,,,,,,,,,,,,,,,,,,,,,,,,,,,sora,images/br_sora.png,images/cb_sora.png,,sora,,,,,,,,,,,0.582407492,-0.301851838,1,0,0,sora,0,12,12,22,1
,,,,,,51175,2023-07-21_13h00.43.918,vbt_B1_day2,2022.2.4,Win32,59.8372427,51175,,,,,,,,,,,,,,,,,,,,,,,,,,,,,,,,,,,,,,,,,,plannen,images/br_plannen.png,images/cb_plannen.png,,plannen,,,,,,,,,,,0.582407492,-0.301851838,1,0,0,plannen,0,13,13,55,1
,,,,,,51175,2023-07-21_13h00.43.918,vbt_B1_day2,2022.2.4,Win32,59.8372427,51175,,,,,,,,,,,,,,,,,,,,,,,,,,,,,,,,,,,,,,,,,,sifferd,images/br_sifferd.png,images/cb_sifferd.png,,siffe,,,,,,,,,,,0.582407492,-0.301851838,1,0,0,siffe,0,14,14,32,1
,,,,,,51175,2023-07-21_13h00.43.918,vbt_B1_day2,2022.2.4,Win32,59.8372427,51175,,,,,,,,,,,,,,,,,,,,,,,,,,,,,,,,,,,,,,,,,,kabel,images/br_kabel.png,images/cb_kabel.png,,kabel,,,,,,,,,,,0.582407492,-0.301851838,1,0,0,kabel,0,15,15,7,1
,,,,,,51175,2023-07-21_13h00.43.918,vbt_B1_day2,2022.2.4,Win32,59.8372427,51175,,,,,,,,,,,,,,,,,,,,,,,,,,,,,,,,,,,,,,,,,,sjijfel,images/br_sjijfel.png,images/cb_sjijfel.png,,sjij,,,,,,,,,,,0.582407492,-0.301851838,1,0,0,sjij,0,16,16,33,1
,,,,,,51175,2023-07-21_13h00.43.918,vbt_B1_day2,2022.2.4,Win32,59.8372427,51175,,,,,,,,,,,,,,,,,,,,,,,,,,,,,,,,,,,,,,,,,,strikken,images/br_strikken.png,images/cb_strikken.png,,strikk,,,,,,,,,,,0.582407492,-0.301851838,1,0,0,strikk,0,17,17,18,1
,,,,,,51175,2023-07-21_13h00.43.918,vbt_B1_day2,2022.2.4,Win32,59.8372427,51175,,,,,,,,,,,,,,,,,,,,,,,,,,,,,,,,,,,,,,,,,,zegel,images/br_zegel.png,images/cb_zegel.png,,zegel,,,,,,,,,,,0.582407492,-0.301851838,1,0,0,zegel,0,18,18,46,1
,,,,,,51175,2023-07-21_13h00.43.918,vbt_B1_day2,2022.2.4,Win32,59.8372427,51175,,,,,,,,,,,,,,,,,,,,,,,,,,,,,,,,,,,,,,,,,,kenzis,images/br_kenzis.png,images/cb_kenzis.png,,ken,,,,,,,,,,,0.582407492,-0.301851838,1,0,0,ken,0,19,19,30,1
,,,,,,51175,2023-07-21_13h00.43.918,vbt_B1_day2,2022.2.4,Win32,59.8372427,51175,,,,,,,,,,,,,,,,,,,,,,,,,,,,,,,,,,,,,,,,,,welzijn,images/br_welzijn.png,images/cb_welzijn.png,,welzijn,,,,,,,,,,,0.582407492,-0.301851838,1,0,0,welzijn,0,20,20,52,1
,,,,,,51175,2023-07-21_13h00.43.918,vbt_B1_day2,2022.2.4,Win32,59.8372427,51175,,,,,,,,,,,,,,,,,,,,,,,,,,,,,,,,,,,,,,,,,,toeval,images/br_toeval.png,images/cb_toeval.png,,toeval,,,,,,,,,,,0.582407492,-0.301851838,1,0,0,toeval,0,21,21,11,1
,,,,,,51175,2023-07-21_13h00.43.918,vbt_B1_day2,2022.2.4,Win32,59.8372427,51175,,,,,,,,,,,,,,,,,,,,,,,,,,,,,,,,,,,,,,,,,,stes,images/br_stes.png,images/cb_stes.png,,stis,,,,,,,,,,,0.582407492,-0.301851838,1,0,0,stis,0,22,22,21,1
,,,,,,51175,2023-07-21_13h00.43.918,vbt_B1_day2,2022.2.4,Win32,59.8372427,51175,,,,,,,,,,,,,,,,,,,,,,,,,,,,,,,,,,,,,,,,,,krimmen,images/br_krimmen.png,images/cb_krimmen.png,,kri,,,,,,,,,,,0.582407492,-0.301851838,1,0,0,kri,0,23,23,35,1
,,,,,,51175,2023-07-21_13h00.43.918,vbt_B1_day2,2022.2.4,Win32,59.8372427,51175,,,,,,,,,,,,,,,,,,,,,,,,,,,,,,,,,,,,,,,,,,tand,images/br_tand.png,images/cb_tand.png,,tand,,,,,,,,,,,0.582407492,-0.301851838,1,0,0,tand,0,24,24,42,1
,,,,,,51175,2023-07-21_13h00.43.918,vbt_B1_day2,2022.2.4,Win32,59.8372427,51175,,,,,,,,,,,,,,,,,,,,,,,,,,,,,,,,,,,,,,,,,,doodmoe,images/br_doodmoe.png,images/cb_doodmoe.png,,doodmoe,,,,,,,,,,,0.582407492,-0.301851838,1,0,0,doodmoe,0,25,25,15,1
,,,,,,51175,2023-07-21_13h00.43.918,vbt_B1_day2,2022.2.4,Win32,59.8372427,51175,,,,,,,,,,,,,,,,,,,,,,,,,,,,,,,,,,,,,,,,,,tweeling,images/br_tweeling.png,images/cb_tweeling.png,,twee,,,,,,,,,,,0.582407492,-0.301851838,1,0,0,twee,0,26,26,58,1
,,,,,,51175,2023-07-21_13h00.43.918,vbt_B1_day2,2022.2.4,Win32,59.8372427,51175,,,,,,,,,,,,,,,,,,,,,,,,,,,,,,,,,,,,,,,,,,inzicht,images/br_inzicht.png,images/cb_inzicht.png,,inzicht,,,,,,,,,,,0.582407492,-0.301851838,1,0,0,inzicht,0,27,27,53,1
,,,,,,51175,2023-07-21_13h00.43.918,vbt_B1_day2,2022.2.4,Win32,59.8372427,51175,,,,,,,,,,,,,,,,,,,,,,,,,,,,,,,,,,,,,,,,,,lurgen,images/br_lurgen.png,images/cb_lurgen.png,,lu,,,,,,,,,,,0.582407492,-0.301851838,1,0,0,lu,0,28,28,29,1
,,,,,,51175,2023-07-21_13h00.43.918,vbt_B1_day2,2022.2.4,Win32,59.8372427,51175,,,,,,,,,,,,,,,,,,,,,,,,,,,,,,,,,,,,,,,,,,goon,images/br_goon.png,images/cb_goon.png,,goon,,,,,,,,,,,0.582407492,-0.301851838,1,0,0,goon,0,29,29,23,1
,,,,,,51175,2023-07-21_13h00.43.918,vbt_B1_day2,2022.2.4,Win32,59.8372427,51175,,,,,,,,,,,,,,,,,,,,,,,,,,,,,,,,,,,,,,,,,,prekken,images/br_prekken.png,images/cb_prekken.png,,prekken,,,,,,,,,,,0.582407492,-0.301851838,1,0,0,prekken,0,30,30,34,1
,,,,,,51175,2023-07-21_13h00.43.918,vbt_B1_day2,2022.2.4,Win32,59.8372427,51175,,,,,,,,,,,,,,,,,,,,,,,,,,,,,,,,,,,,,,,,,,wijve,images/br_wijve.png,images/cb_wijve.png,,wijve,,,,,,,,,,,0.582407492,-0.301851838,1,0,0,wijve,0,31,31,27,1
,,,,,,51175,2023-07-21_13h00.43.918,vbt_B1_day2,2022.2.4,Win32,59.8372427,51175,,,,,,,,,,,,,,,,,,,,,,,,,,,,,,,,,,,,,,,,,,lijnen,images/br_lijnen.png,images/cb_lijnen.png,,lijnen,,,,,,,,,,,0.582407492,-0.301851838,1,0,0,lijnen,0,32,32,51,1
,,,,,,51175,2023-07-21_13h00.43.918,vbt_B1_day2,2022.2.4,Win32,59.8372427,51175,,,,,,,,,,,,,,,,,,,,,,,,,,,,,,,,,,,,,,,,,,bloeien,images/br_bloeien.png,images/cb_bloeien.png,,bloe,,,,,,,,,,,0.582407492,-0.301851838,1,0,0,bloe,0,33,33,12,1
,,,,,,51175,2023-07-21_13h00.43.918,vbt_B1_day2,2022.2.4,Win32,59.8372427,51175,,,,,,,,,,,,,,,,,,,,,,,,,,,,,,,,,,,,,,,,,,heengeen,images/br_heengeen.png,images/cb_heengeen.png,,heengaan,,,,,,,,,,,0.582407492,-0.301851838,1,0,0,heengaan,0,34,34,38,1
,,,,,,51175,2023-07-21_13h00.43.918,vbt_B1_day2,2022.2.4,Win32,59.8372427,51175,,,,,,,,,,,,,,,,,,,,,,,,,,,,,,,,,,,,,,,,,,lokken,images/br_lokken.png,images/cb_lokken.png,,lokken,,,,,,,,,,,0.582407492,-0.301851838,1,0,0,lokken,0,35,35,8,1
,,,,,,51175,2023-07-21_13h00.43.918,vbt_B1_day2,2022.2.4,Win32,59.8372427,51175,,,,,,,,,,,,,,,,,,,,,,,,,,,,,,,,,,,,,,,,,,kasteel,images/br_kasteel.png,images/cb_kasteel.png,,kasteel,,,,,,,,,,,0.582407492,-0.301851838,1,0,0,kasteel,0,36,36,14,1
,,,,,,51175,2023-07-21_13h00.43.918,vbt_B1_day2,2022.2.4,Win32,59.8372427,51175,,,,,,,,,,,,,,,,,,,,,,,,,,,,,,,,,,,,,,,,,,heilig,images/br_heilig.png,images/cb_heilig.png,,heilig,,,,,,,,,,,0.582407492,-0.301851838,1,0,0,heilig,0,37,37,9,1
,,,,,,51175,2023-07-21_13h00.43.918,vbt_B1_day2,2022.2.4,Win32,59.8372427,51175,,,,,,,,,,,,,,,,,,,,,,,,,,,,,,,,,,,,,,,,,,remel,images/br_remel.png,images/cb_remel.png,,riem,,,,,,,,,,,0.582407492,-0.301851838,1,0,0,riem,0,38,38,25,1
,,,,,,51175,2023-07-21_13h00.43.918,vbt_B1_day2,2022.2.4,Win32,59.8372427,51175,,,,,,,,,,,,,,,,,,,,,,,,,,,,,,,,,,,,,,,,,,jagen,images/br_jagen.png,images/cb_jagen.png,,jagen,,,,,,,,,,,0.582407492,-0.301851838,1,0,0,jagen,0,39,39,6,1
,,,,,,51175,2023-07-21_13h00.43.918,vbt_B1_day2,2022.2.4,Win32,59.8372427,51175,,,,,,,,,,,,,,,,,,,,,,,,,,,,,,,,,,,,,,,,,,clan,images/br_clan.png,images/cb_clan.png,,clan,,,,,,,,,,,0.582407492,-0.301851838,1,0,0,clan,0,40,40,40,1
,,,,,,51175,2023-07-21_13h00.43.918,vbt_B1_day2,2022.2.4,Win32,59.8372427,51175,,,,,,,,,,,,,,,,,,,,,,,,,,,,,,,,,,,,,,,,,,feestdag,images/br_feestdag.png,images/cb_feestdag.png,,feestdag,,,,,,,,,,,0.582407492,-0.301851838,1,0,0,feestdag,0,41,41,17,1
,,,,,,51175,2023-07-21_13h00.43.918,vbt_B1_day2,2022.2.4,Win32,59.8372427,51175,,,,,,,,,,,,,,,,,,,,,,,,,,,,,,,,,,,,,,,,,,diep,images/br_diep.png,images/cb_diep.png,,diep,,,,,,,,,,,0.582407492,-0.301851838,1,0,0,diep,0,42,42,2,1
,,,,,,51175,2023-07-21_13h00.43.918,vbt_B1_day2,2022.2.4,Win32,59.8372427,51175,,,,,,,,,,,,,,,,,,,,,,,,,,,,,,,,,,,,,,,,,,breuk,images/br_breuk.png,images/cb_breuk.png,,breuk,,,,,,,,,,,0.582407492,-0.301851838,1,0,0,breuk,0,43,43,45,1
,,,,,,51175,2023-07-21_13h00.43.918,vbt_B1_day2,2022.2.4,Win32,59.8372427,51175,,,,,,,,,,,,,,,,,,,,,,,,,,,,,,,,,,,,,,,,,,aanvraag,images/br_aanvraag.png,images/cb_aanvraag.png,,aanvra,,,,,,,,,,,0.582407492,-0.301851838,1,0,0,aanvra,0,44,44,57,1
,,,,,,51175,2023-07-21_13h00.43.918,vbt_B1_day2,2022.2.4,Win32,59.8372427,51175,,,,,,,,,,,,,,,,,,,,,,,,,,,,,,,,,,,,,,,,,,piste,images/br_piste.png,images/cb_piste.png,,piste,,,,,,,,,,,0.582407492,-0.301851838,1,0,0,piste,0,45,45,5,1
,,,,,,51175,2023-07-21_13h00.43.918,vbt_B1_day2,2022.2.4,Win32,59.8372427,51175,,,,,,,,,,,,,,,,,,,,,,,,,,,,,,,,,,,,,,,,,,aanzien,images/br_aanzien.png,images/cb_aanzien.png,,aanzien,,,,,,,,,,,0.582407492,-0.301851838,1,0,0,aanzien,0,46,46,13,1
,,,,,,51175,2023-07-21_13h00.43.918,vbt_B1_day2,2022.2.4,Win32,59.8372427,51175,,,,,,,,,,,,,,,,,,,,,,,,,,,,,,,,,,,,,,,,,,koorts,images/br_koorts.png,images/cb_koorts.png,,koorts,,,,,,,,,,,0.582407492,-0.301851838,1,0,0,koorts,0,47,47,50,1
,,,,,,51175,2023-07-21_13h00.43.918,vbt_B1_day2,2022.2.4,Win32,59.8372427,51175,,,,,,,,,,,,,,,,,,,,,,,,,,,,,,,,,,,,,,,,,,dode,images/br_dode.png,images/cb_dode.png,,dode,,,,,,,,,,,0.582407492,-0.301851838,1,0,0,dode,0,48,48,41,1
,,,,,,51175,2023-07-21_13h00.43.918,vbt_B1_day2,2022.2.4,Win32,59.8372427,51175,,,,,,,,,,,,,,,,,,,,,,,,,,,,,,,,,,,,,,,,,,zwager,images/br_zwager.png,images/cb_zwager.png,,zwager,,,,,,,,,,,0.582407492,-0.301851838,1,0,0,zwager,0,49,49,49,1
,,,,,,51175,2023-07-21_13h00.43.918,vbt_B1_day2,2022.2.4,Win32,59.8372427,51175,,,,,,,,,,,,,,,,,,,,,,,,,,,,,,,,,,,,,,,,,,geld,images/br_geld.png,images/cb_geld.png,,geld,,,,,,,,,,,0.582407492,-0.301851838,1,0,0,geld,0,50,50,3,1
,,,,,,51175,2023-07-21_13h00.43.918,vbt_B1_day2,2022.2.4,Win32,59.8372427,51175,,,,,,,,,,,,,,,,,,,,,,,,,,,,,,,,,,,,,,,,,,jong,images/br_jong.png,images/cb_jong.png,,jong,,,,,,,,,,,0.582407492,-0.301851838,1,0,0,jong,0,51,51,43,1
,,,,,,51175,2023-07-21_13h00.43.918,vbt_B1_day2,2022.2.4,Win32,59.8372427,51175,,,,,,,,,,,,,,,,,,,,,,,,,,,,,,,,,,,,,,,,,,eenhoorn,images/br_eenhoorn.png,images/cb_eenhoorn.png,,eenf,,,,,,,,,,,0.582407492,-0.301851838,1,0,0,eenf,0,52,52,19,1
,,,,,,51175,2023-07-21_13h00.43.918,vbt_B1_day2,2022.2.4,Win32,59.8372427,51175,,,,,,,,,,,,,,,,,,,,,,,,,,,,,,,,,,,,,,,,,,ophuimen,images/br_ophuimen.png,images/cb_ophuimen.png,,ophu,,,,,,,,,,,0.582407492,-0.301851838,1,0,0,ophu,0,53,53,36,1
,,,,,,51175,2023-07-21_13h00.43.918,vbt_B1_day2,2022.2.4,Win32,59.8372427,51175,,,,,,,,,,,,,,,,,,,,,,,,,,,,,,,,,,,,,,,,,,agressie,images/br_agressie.png,images/cb_agressie.png,,agressie,,,,,,,,,,,0.582407492,-0.301851838,1,0,0,agressie,0,54,54,59,1
,,,,,,51175,2023-07-21_13h00.43.918,vbt_B1_day2,2022.2.4,Win32,59.8372427,51175,,,,,,,,,,,,,,,,,,,,,,,,,,,,,,,,,,,,,,,,,,zomers,images/br_zomers.png,images/cb_zomers.png,,zome,,,,,,,,,,,0.582407492,-0.301851838,1,0,0,zome,0,55,55,48,1
,,,,,,51175,2023-07-21_13h00.43.918,vbt_B1_day2,2022.2.4,Win32,59.8372427,51175,,,,,,,,,,,,,,,,,,,,,,,,,,,,,,,,,,,,,,,,,,trots,images/br_trots.png,images/cb_trots.png,,trots,,,,,,,,,,,0.582407492,-0.301851838,1,0,0,trots,0,56,56,44,1
,,,,,,51175,2023-07-21_13h00.43.918,vbt_B1_day2,2022.2.4,Win32,59.8372427,51175,,,,,,,,,,,,,,,,,,,,,,,,,,,,,,,,,,,,,,,,,,ningen,images/br_ningen.png,images/cb_ningen.png,,ning,,,,,,,,,,,0.582407492,-0.301851838,1,0,0,ning,0,57,57,28,1
,,,,,,51175,2023-07-21_13h00.43.918,vbt_B1_day2,2022.2.4,Win32,59.8372427,51175,,,,,,,,,,,,,,,,,,,,,,,,,,,,,,,,,,,,,,,,,,manieren,images/br_manieren.png,images/cb_manieren.png,,.,,,,,,,,,,,0.582407492,-0.301851838,1,0,0,.,0,58,58,56,1
,,,,,,51175,2023-07-21_13h00.43.918,vbt_B1_day2,2022.2.4,Win32,59.8372427,51175,,,,,,,,,,,,,,,,,,,,,,,,,,,,,,,,,,,,,,,,,,woning,images/br_woning.png,images/cb_woning.png,,wo,,,,,,,,,,,0.582407492,-0.301851838,1,0,0,wo,0,59,59,10,1
,,,,,,51175,2023-07-21_13h00.43.918,vbt_B1_day2,2022.2.4,Win32,59.8372427,51175,,,,,,,,,,,,,,,,,,,,,,,,,,,,,,,,,,,,,,,,,,,,,,,,,,,,,,,,,,,,,,,,,,,
