welcome_mouse.x,welcome_mouse.y,welcome_mouse.leftButton,welcome_mouse.midButton,welcome_mouse.rightButton,welcome_mouse.time,"ID",date,expName,psychopyVersion,OS,frameRate,refresh_mouse.x,refresh_mouse.y,refresh_mouse.leftButton,refresh_mouse.midButton,refresh_mouse.rightButton,refresh_mouse.time,braille_mouse.x,braille_mouse.y,braille_mouse.leftButton,braille_mouse.midButton,braille_mouse.rightButton,braille_mouse.time,trials.thisRepN,trials.thisTrialN,trials.thisN,trials.thisIndex,trials.ran,nlLet,brLet,cbLet,trainInstr_mouse.x,trainInstr_mouse.y,trainInstr_mouse.leftButton,trainInstr_mouse.midButton,trainInstr_mouse.rightButton,trainInstr_mouse.time,translation_key.keys,translation_key.corr,translation_key.rt,word_rsp.text,word_mouse.x,word_mouse.y,word_mouse.leftButton,word_mouse.midButton,word_mouse.rightButton,word_mouse.time,train_loop.thisRepN,train_loop.thisTrialN,train_loop.thisN,train_loop.thisIndex,train_loop.ran,nlWrd,brWrd,cbWrd,test,testResp,mouse.x,mouse.y,mouse.leftButton,mouse.midButton,mouse.rightButton,testInstr_mouse.x,testInstr_mouse.y,testInstr_mouse.leftButton,testInstr_mouse.midButton,testInstr_mouse.rightButton,test_mouse.x,test_mouse.y,test_mouse.leftButton,test_mouse.midButton,test_mouse.rightButton,test_response.text,test_loop.thisRepN,test_loop.thisTrialN,test_loop.thisN,test_loop.thisIndex,test_loop.ran
0.021666667,-0.009166667,1,0,0,1.6123,,2023-10-18_17h54.41.341,vbt_B1_day2,2022.2.4,Win32,60.32818533,,,,,,,,,,,,,,,,,,,,,,,,,,,,,,,,,,,,,,,,,,,,,,,,,,,,,,,,,,,,,,,,,,,
,,,,,,,2023-10-18_17h54.41.341,vbt_B1_day2,2022.2.4,Win32,60.32818533,0.021666667,-0.009166667,1,0,0,0.5074,,,,,,,,,,,,,,,,,,,,,,,,,,,,,,,,,,,,,,,,,,,,,,,,,,,,,,,,,,,,,
,,,,,,,2023-10-18_17h54.41.341,vbt_B1_day2,2022.2.4,Win32,60.32818533,,,,,,,0.169166667,-0.005833333,1,0,0,0.4833,0,0,0,0,1,a,images/br_a.png,images/cb_a.png,,,,,,,,,,,,,,,,,,,,,,,,,,,,,,,,,,,,,,,,,,,,,,,
,,,,,,,2023-10-18_17h54.41.341,vbt_B1_day2,2022.2.4,Win32,60.32818533,,,,,,,0.354166667,-0.048333333,1,0,0,0.4997,0,1,1,11,1,l,images/br_l.png,images/cb_l.png,,,,,,,,,,,,,,,,,,,,,,,,,,,,,,,,,,,,,,,,,,,,,,,
,,,,,,,2023-10-18_17h54.41.341,vbt_B1_day2,2022.2.4,Win32,60.32818533,,,,,,,0.354166667,-0.048333333,1,0,0,0.416,0,2,2,20,1,u,images/br_u.png,images/cb_u.png,,,,,,,,,,,,,,,,,,,,,,,,,,,,,,,,,,,,,,,,,,,,,,,
,,,,,,,2023-10-18_17h54.41.341,vbt_B1_day2,2022.2.4,Win32,60.32818533,,,,,,,0.354166667,-0.048333333,1,0,0,0.1665,0,3,3,15,1,p,images/br_p.png,images/cb_p.png,,,,,,,,,,,,,,,,,,,,,,,,,,,,,,,,,,,,,,,,,,,,,,,
,,,,,,,2023-10-18_17h54.41.341,vbt_B1_day2,2022.2.4,Win32,60.32818533,,,,,,,0.354166667,-0.048333333,1,0,0,0.3833,0,4,4,22,1,w,images/br_w.png,images/cb_w.png,,,,,,,,,,,,,,,,,,,,,,,,,,,,,,,,,,,,,,,,,,,,,,,
,,,,,,,2023-10-18_17h54.41.341,vbt_B1_day2,2022.2.4,Win32,60.32818533,,,,,,,0.354166667,-0.048333333,1,0,0,0.4831,0,5,5,4,1,e,images/br_e.png,images/cb_e.png,,,,,,,,,,,,,,,,,,,,,,,,,,,,,,,,,,,,,,,,,,,,,,,
,,,,,,,2023-10-18_17h54.41.341,vbt_B1_day2,2022.2.4,Win32,60.32818533,,,,,,,0.354166667,-0.048333333,1,0,0,0.663,0,6,6,1,1,b,images/br_b.png,images/cb_b.png,,,,,,,,,,,,,,,,,,,,,,,,,,,,,,,,,,,,,,,,,,,,,,,
,,,,,,,2023-10-18_17h54.41.341,vbt_B1_day2,2022.2.4,Win32,60.32818533,,,,,,,0.354166667,-0.048333333,1,0,0,6.0785,0,7,7,14,1,o,images/br_o.png,images/cb_o.png,,,,,,,,,,,,,,,,,,,,,,,,,,,,,,,,,,,,,,,,,,,,,,,
,,,,,,,2023-10-18_17h54.41.341,vbt_B1_day2,2022.2.4,Win32,60.32818533,,,,,,,0.354166667,-0.048333333,1,0,0,1.4508,0,8,8,3,1,d,images/br_d.png,images/cb_d.png,,,,,,,,,,,,,,,,,,,,,,,,,,,,,,,,,,,,,,,,,,,,,,,
,,,,,,,2023-10-18_17h54.41.341,vbt_B1_day2,2022.2.4,Win32,60.32818533,,,,,,,0.354166667,-0.048333333,1,0,0,2.8661,0,9,9,24,1,y,images/br_y.png,images/cb_y.png,,,,,,,,,,,,,,,,,,,,,,,,,,,,,,,,,,,,,,,,,,,,,,,
,,,,,,,2023-10-18_17h54.41.341,vbt_B1_day2,2022.2.4,Win32,60.32818533,,,,,,,0.354166667,-0.048333333,1,0,0,2.8499,0,10,10,17,1,r,images/br_r.png,images/cb_r.png,,,,,,,,,,,,,,,,,,,,,,,,,,,,,,,,,,,,,,,,,,,,,,,
,,,,,,,2023-10-18_17h54.41.341,vbt_B1_day2,2022.2.4,Win32,60.32818533,,,,,,,0.354166667,-0.048333333,1,0,0,0.5662,0,11,11,9,1,j,images/br_j.png,images/cb_j.png,,,,,,,,,,,,,,,,,,,,,,,,,,,,,,,,,,,,,,,,,,,,,,,
,,,,,,,2023-10-18_17h54.41.341,vbt_B1_day2,2022.2.4,Win32,60.32818533,,,,,,,0.354166667,-0.048333333,1,0,0,1.2954,0,12,12,7,1,h,images/br_h.png,images/cb_h.png,,,,,,,,,,,,,,,,,,,,,,,,,,,,,,,,,,,,,,,,,,,,,,,
,,,,,,,2023-10-18_17h54.41.341,vbt_B1_day2,2022.2.4,Win32,60.32818533,,,,,,,0.354166667,-0.048333333,1,0,0,0.7009,0,13,13,18,1,s,images/br_s.png,images/cb_s.png,,,,,,,,,,,,,,,,,,,,,,,,,,,,,,,,,,,,,,,,,,,,,,,
,,,,,,,2023-10-18_17h54.41.341,vbt_B1_day2,2022.2.4,Win32,60.32818533,,,,,,,0.354166667,-0.048333333,1,0,0,1.6003,0,14,14,19,1,t,images/br_t.png,images/cb_t.png,,,,,,,,,,,,,,,,,,,,,,,,,,,,,,,,,,,,,,,,,,,,,,,
,,,,,,,2023-10-18_17h54.41.341,vbt_B1_day2,2022.2.4,Win32,60.32818533,,,,,,,0.354166667,-0.048333333,1,0,0,0.8963,0,15,15,16,1,q,images/br_q.png,images/cb_q.png,,,,,,,,,,,,,,,,,,,,,,,,,,,,,,,,,,,,,,,,,,,,,,,
,,,,,,,2023-10-18_17h54.41.341,vbt_B1_day2,2022.2.4,Win32,60.32818533,,,,,,,0.354166667,-0.048333333,1,0,0,3.2663,0,16,16,10,1,k,images/br_k.png,images/cb_k.png,,,,,,,,,,,,,,,,,,,,,,,,,,,,,,,,,,,,,,,,,,,,,,,
,,,,,,,2023-10-18_17h54.41.341,vbt_B1_day2,2022.2.4,Win32,60.32818533,,,,,,,0.354166667,-0.048333333,1,0,0,1.3663,0,17,17,12,1,m,images/br_m.png,images/cb_m.png,,,,,,,,,,,,,,,,,,,,,,,,,,,,,,,,,,,,,,,,,,,,,,,
,,,,,,,2023-10-18_17h54.41.341,vbt_B1_day2,2022.2.4,Win32,60.32818533,,,,,,,0.354166667,-0.048333333,1,0,0,1.5327,0,18,18,25,1,z,images/br_z.png,images/cb_z.png,,,,,,,,,,,,,,,,,,,,,,,,,,,,,,,,,,,,,,,,,,,,,,,
,,,,,,,2023-10-18_17h54.41.341,vbt_B1_day2,2022.2.4,Win32,60.32818533,,,,,,,0.354166667,-0.048333333,1,0,0,0.6623,0,19,19,8,1,i,images/br_i.png,images/cb_i.png,,,,,,,,,,,,,,,,,,,,,,,,,,,,,,,,,,,,,,,,,,,,,,,
,,,,,,,2023-10-18_17h54.41.341,vbt_B1_day2,2022.2.4,Win32,60.32818533,,,,,,,0.354166667,-0.048333333,1,0,0,0.4831,0,20,20,5,1,f,images/br_f.png,images/cb_f.png,,,,,,,,,,,,,,,,,,,,,,,,,,,,,,,,,,,,,,,,,,,,,,,
,,,,,,,2023-10-18_17h54.41.341,vbt_B1_day2,2022.2.4,Win32,60.32818533,,,,,,,0.354166667,-0.048333333,1,0,0,2.4663,0,21,21,2,1,c,images/br_c.png,images/cb_c.png,,,,,,,,,,,,,,,,,,,,,,,,,,,,,,,,,,,,,,,,,,,,,,,
,,,,,,,2023-10-18_17h54.41.341,vbt_B1_day2,2022.2.4,Win32,60.32818533,,,,,,,0.354166667,-0.048333333,1,0,0,1.7332,0,22,22,23,1,x,images/br_x.png,images/cb_x.png,,,,,,,,,,,,,,,,,,,,,,,,,,,,,,,,,,,,,,,,,,,,,,,
,,,,,,,2023-10-18_17h54.41.341,vbt_B1_day2,2022.2.4,Win32,60.32818533,,,,,,,0.354166667,-0.048333333,1,0,0,0.6169,0,23,23,6,1,g,images/br_g.png,images/cb_g.png,,,,,,,,,,,,,,,,,,,,,,,,,,,,,,,,,,,,,,,,,,,,,,,
,,,,,,,2023-10-18_17h54.41.341,vbt_B1_day2,2022.2.4,Win32,60.32818533,,,,,,,0.354166667,-0.048333333,1,0,0,3.9496,0,24,24,13,1,n,images/br_n.png,images/cb_n.png,,,,,,,,,,,,,,,,,,,,,,,,,,,,,,,,,,,,,,,,,,,,,,,
,,,,,,,2023-10-18_17h54.41.341,vbt_B1_day2,2022.2.4,Win32,60.32818533,,,,,,,0.354166667,-0.048333333,1,0,0,1.7961,0,25,25,21,1,v,images/br_v.png,images/cb_v.png,,,,,,,,,,,,,,,,,,,,,,,,,,,,,,,,,,,,,,,,,,,,,,,
,,,,,,,2023-10-18_17h54.41.341,vbt_B1_day2,2022.2.4,Win32,60.32818533,,,,,,,,,,,,,,,,,,,,,0.490833333,0.1275,1,0,0,14.911,,,,,,,,,,,,,,,,,,,,,,,,,,,,,,,,,,,,,,,,,
,,,,,,,2023-10-18_17h54.41.341,vbt_B1_day2,2022.2.4,Win32,60.32818533,,,,,,,,,,,,,,,,,,,,,,,,,,,down,0,5.3334,,0.604166667,-0.145833333,1,0,0,1.5252,0,0,0,89,1,slapen,images/br_slapen.png,images/cb_slapen.png,0,,,,,,,,,,,,,,,,,,,,,,
,,,,,,,2023-10-18_17h54.41.341,vbt_B1_day2,2022.2.4,Win32,60.32818533,,,,,,,,,,,,,,,,,,,,,,,,,,,down,0,2.8409,,0.604166667,-0.145833333,1,0,0,1.0659,0,1,1,114,1,vullen,images/br_vullen.png,images/cb_vullen.png,0,,,,,,,,,,,,,,,,,,,,,,
,,,,,,,2023-10-18_17h54.41.341,vbt_B1_day2,2022.2.4,Win32,60.32818533,,,,,,,,,,,,,,,,,,,,,,,,,,,down,0,7.0541,,0.610833333,-0.279166667,1,0,0,2.9998,0,2,2,139,1,stiekem,images/br_stiekem.png,images/cb_stiekem.png,1,stiekem,,,,,,,,,,,,,,,,,,,,,
,,,,,,,2023-10-18_17h54.41.341,vbt_B1_day2,2022.2.4,Win32,60.32818533,,,,,,,,,,,,,,,,,,,,,,,,,,,down,0,2.4887,,0.610833333,-0.279166667,1,0,0,1.933,0,3,3,33,1,vlek,images/br_vlek.png,images/cb_vlek.png,0,,,,,,,,,,,,,,,,,,,,,,
,,,,,,,2023-10-18_17h54.41.341,vbt_B1_day2,2022.2.4,Win32,60.32818533,,,,,,,,,,,,,,,,,,,,,,,,,,,down,0,6.1266,,0.610833333,-0.279166667,1,0,0,1.3666,0,4,4,72,1,strak,images/br_strak.png,images/cb_strak.png,0,,,,,,,,,,,,,,,,,,,,,,
,,,,,,,2023-10-18_17h54.41.341,vbt_B1_day2,2022.2.4,Win32,60.32818533,,,,,,,,,,,,,,,,,,,,,,,,,,,down,0,3.1245,,0.610833333,-0.279166667,1,0,0,1.0673,0,5,5,22,1,stof,images/br_stof.png,images/cb_stof.png,0,,,,,,,,,,,,,,,,,,,,,,
,,,,,,,2023-10-18_17h54.41.341,vbt_B1_day2,2022.2.4,Win32,60.32818533,,,,,,,,,,,,,,,,,,,,,,,,,,,down,0,31.6252,,0.610833333,-0.279166667,1,0,0,3.211,0,6,6,145,1,invloed,images/br_invloed.png,images/cb_invloed.png,0,,,,,,,,,,,,,,,,,,,,,,
,,,,,,,2023-10-18_17h54.41.341,vbt_B1_day2,2022.2.4,Win32,60.32818533,,,,,,,,,,,,,,,,,,,,,,,,,,,down,0,29.7046,,0.610833333,-0.279166667,1,0,0,3.222,0,7,7,104,1,zweven,images/br_zweven.png,images/cb_zweven.png,0,,,,,,,,,,,,,,,,,,,,,,
,,,,,,,2023-10-18_17h54.41.341,vbt_B1_day2,2022.2.4,Win32,60.32818533,,,,,,,,,,,,,,,,,,,,,,,,,,,down,0,4.4431,,0.610833333,-0.279166667,1,0,0,0.9004,0,8,8,26,1,leuk,images/br_leuk.png,images/cb_leuk.png,0,,,,,,,,,,,,,,,,,,,,,,
,,,,,,,2023-10-18_17h54.41.341,vbt_B1_day2,2022.2.4,Win32,60.32818533,,,,,,,,,,,,,,,,,,,,,,,,,,,down,0,16.585,,0.610833333,-0.279166667,1,0,0,5.2175,0,9,9,94,1,oceaan,images/br_oceaan.png,images/cb_oceaan.png,0,,,,,,,,,,,,,,,,,,,,,,
,,,,,,,2023-10-18_17h54.41.341,vbt_B1_day2,2022.2.4,Win32,60.32818533,,,,,,,,,,,,,,,,,,,,,,,,,,,down,0,2.3246,,0.609166667,-0.274166667,1,0,0,0.6342,0,10,10,40,1,schep,images/br_schep.png,images/cb_schep.png,0,,,,,,,,,,,,,,,,,,,,,,
,,,,,,,2023-10-18_17h54.41.341,vbt_B1_day2,2022.2.4,Win32,60.32818533,,,,,,,,,,,,,,,,,,,,,,,,,,,down,0,3.7335,,0.609166667,-0.274166667,1,0,0,0.8998,0,11,11,19,1,geit,images/br_geit.png,images/cb_geit.png,1,geit,,,,,,,,,,,,,,,,,,,,,
,,,,,,,2023-10-18_17h54.41.341,vbt_B1_day2,2022.2.4,Win32,60.32818533,,,,,,,,,,,,,,,,,,,,,,,,,,,down,0,7.3526,,0.606666667,-0.283333333,1,0,0,0.6665,0,12,12,176,1,techniek,images/br_techniek.png,images/cb_techniek.png,1,techniek,,,,,,,,,,,,,,,,,,,,,
,,,,,,,2023-10-18_17h54.41.341,vbt_B1_day2,2022.2.4,Win32,60.32818533,,,,,,,,,,,,,,,,,,,,,,,,,,,down,0,7.1545,,0.545833333,-0.133333333,1,0,0,0.7824,0,13,13,73,1,volop,images/br_volop.png,images/cb_volop.png,0,,,,,,,,,,,,,,,,,,,,,,
,,,,,,,2023-10-18_17h54.41.341,vbt_B1_day2,2022.2.4,Win32,60.32818533,,,,,,,,,,,,,,,,,,,,,,,,,,,down,0,16.987,,0.573333333,-0.096666667,1,0,0,0.7162,0,14,14,193,1,weeshuis,images/br_weeshuis.png,images/cb_weeshuis.png,0,,,,,,,,,,,,,,,,,,,,,,
,,,,,,,2023-10-18_17h54.41.341,vbt_B1_day2,2022.2.4,Win32,60.32818533,,,,,,,,,,,,,,,,,,,,,,,,,,,down,0,8.3352,,0.573333333,-0.096666667,1,0,0,0.5827,0,15,15,63,1,flirt,images/br_flirt.png,images/cb_flirt.png,0,,,,,,,,,,,,,,,,,,,,,,
,,,,,,,2023-10-18_17h54.41.341,vbt_B1_day2,2022.2.4,Win32,60.32818533,,,,,,,,,,,,,,,,,,,,,,,,,,,down,0,10.7329,,0.573333333,-0.096666667,1,0,0,0.6494,0,16,16,181,1,toegeven,images/br_toegeven.png,images/cb_toegeven.png,0,,,,,,,,,,,,,,,,,,,,,,
,,,,,,,2023-10-18_17h54.41.341,vbt_B1_day2,2022.2.4,Win32,60.32818533,,,,,,,,,,,,,,,,,,,,,,,,,,,down,0,20.8332,,0.573333333,-0.096666667,1,0,0,0.9163,0,17,17,187,1,opkijken,images/br_opkijken.png,images/cb_opkijken.png,0,,,,,,,,,,,,,,,,,,,,,,
,,,,,,,2023-10-18_17h54.41.341,vbt_B1_day2,2022.2.4,Win32,60.32818533,,,,,,,,,,,,,,,,,,,,,,,,,,,down,0,4.3363,,0.575,-0.0925,1,0,0,0.7161,0,18,18,117,1,kennis,images/br_kennis.png,images/cb_kennis.png,0,,,,,,,,,,,,,,,,,,,,,,
,,,,,,,2023-10-18_17h54.41.341,vbt_B1_day2,2022.2.4,Win32,60.32818533,,,,,,,,,,,,,,,,,,,,,,,,,,,down,0,9.2373,,0.575,-0.0925,1,0,0,1.0994,0,19,19,44,1,flits,images/br_flits.png,images/cb_flits.png,0,,,,,,,,,,,,,,,,,,,,,,
,,,,,,,2023-10-18_17h54.41.341,vbt_B1_day2,2022.2.4,Win32,60.32818533,,,,,,,,,,,,,,,,,,,,,,,,,,,down,0,9.2162,,0.575,-0.0925,1,0,0,0.8332,0,20,20,46,1,jagen,images/br_jagen.png,images/cb_jagen.png,0,,,,,,,,,,,,,,,,,,,,,,
,,,,,,,2023-10-18_17h54.41.341,vbt_B1_day2,2022.2.4,Win32,60.32818533,,,,,,,,,,,,,,,,,,,,,,,,,,,down,0,1.8345,,0.575,-0.0925,1,0,0,0.4674,0,21,21,25,1,plek,images/br_plek.png,images/cb_plek.png,0,,,,,,,,,,,,,,,,,,,,,,
,,,,,,,2023-10-18_17h54.41.341,vbt_B1_day2,2022.2.4,Win32,60.32818533,,,,,,,,,,,,,,,,,,,,,,,,,,,down,0,2.0872,,0.575,-0.0925,1,0,0,0.5499,0,22,22,39,1,laag,images/br_laag.png,images/cb_laag.png,0,,,,,,,,,,,,,,,,,,,,,,
,,,,,,,2023-10-18_17h54.41.341,vbt_B1_day2,2022.2.4,Win32,60.32818533,,,,,,,,,,,,,,,,,,,,,,,,,,,down,0,3.5931,,0.575,-0.0925,1,0,0,0.5836,0,23,23,109,1,totaal,images/br_totaal.png,images/cb_totaal.png,0,,,,,,,,,,,,,,,,,,,,,,
,,,,,,,2023-10-18_17h54.41.341,vbt_B1_day2,2022.2.4,Win32,60.32818533,,,,,,,,,,,,,,,,,,,,,,,,,,,down,0,19.1818,,0.675833333,-0.126666667,1,0,0,0.5002,0,24,24,50,1,stoom,images/br_stoom.png,images/cb_stoom.png,0,,,,,,,,,,,,,,,,,,,,,,
,,,,,,,2023-10-18_17h54.41.341,vbt_B1_day2,2022.2.4,Win32,60.32818533,,,,,,,,,,,,,,,,,,,,,,,,,,,down,0,2.8679,,0.658333333,-0.109166667,1,0,0,0.8667,0,25,25,28,1,stal,images/br_stal.png,images/cb_stal.png,0,,,,,,,,,,,,,,,,,,,,,,
,,,,,,,2023-10-18_17h54.41.341,vbt_B1_day2,2022.2.4,Win32,60.32818533,,,,,,,,,,,,,,,,,,,,,,,,,,,down,0,23.3856,,0.658333333,-0.109166667,1,0,0,0.4834,0,26,26,194,1,driemaal,images/br_driemaal.png,images/cb_driemaal.png,0,,,,,,,,,,,,,,,,,,,,,,
,,,,,,,2023-10-18_17h54.41.341,vbt_B1_day2,2022.2.4,Win32,60.32818533,,,,,,,,,,,,,,,,,,,,,,,,,,,down,0,4.1021,,0.658333333,-0.109166667,1,0,0,0.4492,0,27,27,99,1,koffie,images/br_koffie.png,images/cb_koffie.png,1,koffie,,,,,,,,,,,,,,,,,,,,,
,,,,,,,2023-10-18_17h54.41.341,vbt_B1_day2,2022.2.4,Win32,60.32818533,,,,,,,,,,,,,,,,,,,,,,,,,,,down,0,13.0694,,0.658333333,-0.109166667,1,0,0,2.8835,0,28,28,105,1,wijlen,images/br_wijlen.png,images/cb_wijlen.png,0,,,,,,,,,,,,,,,,,,,,,,
,,,,,,,2023-10-18_17h54.41.341,vbt_B1_day2,2022.2.4,Win32,60.32818533,,,,,,,,,,,,,,,,,,,,,,,,,,,down,0,3.4052,,0.658333333,-0.109166667,1,0,0,0.9824,0,29,29,34,1,vorm,images/br_vorm.png,images/cb_vorm.png,0,,,,,,,,,,,,,,,,,,,,,,
,,,,,,,2023-10-18_17h54.41.341,vbt_B1_day2,2022.2.4,Win32,60.32818533,,,,,,,,,,,,,,,,,,,,,,,,,,,down,0,12.0505,,0.658333333,-0.109166667,1,0,0,1.7328,0,30,30,108,1,excuus,images/br_excuus.png,images/cb_excuus.png,0,,,,,,,,,,,,,,,,,,,,,,
,,,,,,,2023-10-18_17h54.41.341,vbt_B1_day2,2022.2.4,Win32,60.32818533,,,,,,,,,,,,,,,,,,,,,,,,,,,down,0,7.5171,,0.658333333,-0.109166667,1,0,0,0.6336,0,31,31,81,1,dubbel,images/br_dubbel.png,images/cb_dubbel.png,0,,,,,,,,,,,,,,,,,,,,,,
,,,,,,,2023-10-18_17h54.41.341,vbt_B1_day2,2022.2.4,Win32,60.32818533,,,,,,,,,,,,,,,,,,,,,,,,,,,down,0,8.0603,,0.658333333,-0.109166667,1,0,0,0.6338,0,32,32,192,1,schaamte,images/br_schaamte.png,images/cb_schaamte.png,0,,,,,,,,,,,,,,,,,,,,,,
,,,,,,,2023-10-18_17h54.41.341,vbt_B1_day2,2022.2.4,Win32,60.32818533,,,,,,,,,,,,,,,,,,,,,,,,,,,down,0,12.0351,,0.658333333,-0.109166667,1,0,0,1.0504,0,33,33,5,1,blad,images/br_blad.png,images/cb_blad.png,0,,,,,,,,,,,,,,,,,,,,,,
,,,,,,,2023-10-18_17h54.41.341,vbt_B1_day2,2022.2.4,Win32,60.32818533,,,,,,,,,,,,,,,,,,,,,,,,,,,down,0,3.8331,,0.658333333,-0.109166667,1,0,0,0.4667,0,34,34,151,1,aanzoek,images/br_aanzoek.png,images/cb_aanzoek.png,0,,,,,,,,,,,,,,,,,,,,,,
,,,,,,,2023-10-18_17h54.41.341,vbt_B1_day2,2022.2.4,Win32,60.32818533,,,,,,,,,,,,,,,,,,,,,,,,,,,down,0,2.1086,,0.658333333,-0.109166667,1,0,0,0.4996,0,35,35,148,1,smullen,images/br_smullen.png,images/cb_smullen.png,0,,,,,,,,,,,,,,,,,,,,,,
,,,,,,,2023-10-18_17h54.41.341,vbt_B1_day2,2022.2.4,Win32,60.32818533,,,,,,,,,,,,,,,,,,,,,,,,,,,down,0,17.7565,,0.658333333,-0.109166667,1,0,0,0.5502,0,36,36,155,1,gerucht,images/br_gerucht.png,images/cb_gerucht.png,0,,,,,,,,,,,,,,,,,,,,,,
,,,,,,,2023-10-18_17h54.41.341,vbt_B1_day2,2022.2.4,Win32,60.32818533,,,,,,,,,,,,,,,,,,,,,,,,,,,down,0,4.7516,,0.658333333,-0.109166667,1,0,0,0.4834,0,37,37,140,1,blijven,images/br_blijven.png,images/cb_blijven.png,0,,,,,,,,,,,,,,,,,,,,,,
,,,,,,,2023-10-18_17h54.41.341,vbt_B1_day2,2022.2.4,Win32,60.32818533,,,,,,,,,,,,,,,,,,,,,,,,,,,down,0,7.9201,,0.57,-0.165,1,0,0,0.4161,0,38,38,57,1,steek,images/br_steek.png,images/cb_steek.png,1,steek,,,,,,,,,,,,,,,,,,,,,
,,,,,,,2023-10-18_17h54.41.341,vbt_B1_day2,2022.2.4,Win32,60.32818533,,,,,,,,,,,,,,,,,,,,,,,,,,,down,0,5.3781,,0.57,-0.165,1,0,0,0.5711,0,39,39,27,1,dans,images/br_dans.png,images/cb_dans.png,0,,,,,,,,,,,,,,,,,,,,,,
,,,,,,,2023-10-18_17h54.41.341,vbt_B1_day2,2022.2.4,Win32,60.32818533,,,,,,,,,,,,,,,,,,,,,,,,,,,down,0,5.2245,,0.57,-0.165,1,0,0,0.4492,0,40,40,175,1,heengaan,images/br_heengaan.png,images/cb_heengaan.png,0,,,,,,,,,,,,,,,,,,,,,,
,,,,,,,2023-10-18_17h54.41.341,vbt_B1_day2,2022.2.4,Win32,60.32818533,,,,,,,,,,,,,,,,,,,,,,,,,,,down,0,2.5746,,0.57,-0.165,1,0,0,0.4165,0,41,41,20,1,site,images/br_site.png,images/cb_site.png,0,,,,,,,,,,,,,,,,,,,,,,
,,,,,,,2023-10-18_17h54.41.341,vbt_B1_day2,2022.2.4,Win32,60.32818533,,,,,,,,,,,,,,,,,,,,,,,,,,,down,0,5.971,,0.57,-0.165,1,0,0,0.334,0,42,42,118,1,vinger,images/br_vinger.png,images/cb_vinger.png,0,,,,,,,,,,,,,,,,,,,,,,
,,,,,,,2023-10-18_17h54.41.341,vbt_B1_day2,2022.2.4,Win32,60.32818533,,,,,,,,,,,,,,,,,,,,,,,,,,,down,0,6.5521,,0.57,-0.165,1,0,0,0.3156,0,43,43,79,1,nodig,images/br_nodig.png,images/cb_nodig.png,0,,,,,,,,,,,,,,,,,,,,,,
,,,,,,,2023-10-18_17h54.41.341,vbt_B1_day2,2022.2.4,Win32,60.32818533,,,,,,,,,,,,,,,,,,,,,,,,,,,down,0,4.0045,,0.57,-0.165,1,0,0,1.0827,0,44,44,146,1,opkomen,images/br_opkomen.png,images/cb_opkomen.png,0,,,,,,,,,,,,,,,,,,,,,,
,,,,,,,2023-10-18_17h54.41.341,vbt_B1_day2,2022.2.4,Win32,60.32818533,,,,,,,,,,,,,,,,,,,,,,,,,,,down,0,1.6768,,0.57,-0.165,1,0,0,0.4334,0,45,45,112,1,lukken,images/br_lukken.png,images/cb_lukken.png,0,,,,,,,,,,,,,,,,,,,,,,
,,,,,,,2023-10-18_17h54.41.341,vbt_B1_day2,2022.2.4,Win32,60.32818533,,,,,,,,,,,,,,,,,,,,,,,,,,,down,0,12.69,,0.57,-0.165,1,0,0,0.4331,0,46,46,21,1,mist,images/br_mist.png,images/cb_mist.png,0,,,,,,,,,,,,,,,,,,,,,,
,,,,,,,2023-10-18_17h54.41.341,vbt_B1_day2,2022.2.4,Win32,60.32818533,,,,,,,,,,,,,,,,,,,,,,,,,,,down,0,8.3076,,0.57,-0.165,1,0,0,0.5834,0,47,47,134,1,geliefd,images/br_geliefd.png,images/cb_geliefd.png,0,,,,,,,,,,,,,,,,,,,,,,
,,,,,,,2023-10-18_17h54.41.341,vbt_B1_day2,2022.2.4,Win32,60.32818533,,,,,,,,,,,,,,,,,,,,,,,,,,,down,0,15.005,,0.57,-0.165,1,0,0,0.4507,0,48,48,35,1,lust,images/br_lust.png,images/cb_lust.png,0,,,,,,,,,,,,,,,,,,,,,,
,,,,,,,2023-10-18_17h54.41.341,vbt_B1_day2,2022.2.4,Win32,60.32818533,,,,,,,,,,,,,,,,,,,,,,,,,,,down,0,4.3574,,0.57,-0.165,1,0,0,0.6839,0,49,49,137,1,trekker,images/br_trekker.png,images/cb_trekker.png,1,trekker,,,,,,,,,,,,,,,,,,,,,
,,,,,,,2023-10-18_17h54.41.341,vbt_B1_day2,2022.2.4,Win32,60.32818533,,,,,,,,,,,,,,,,,,,,,,,,,,,down,0,6.8763,,0.57,-0.165,1,0,0,0.7499,0,50,50,152,1,afnemen,images/br_afnemen.png,images/cb_afnemen.png,0,,,,,,,,,,,,,,,,,,,,,,
,,,,,,,2023-10-18_17h54.41.341,vbt_B1_day2,2022.2.4,Win32,60.32818533,,,,,,,,,,,,,,,,,,,,,,,,,,,down,0,6.882,,0.57,-0.165,1,0,0,0.4827,0,51,51,195,1,middelen,images/br_middelen.png,images/cb_middelen.png,0,,,,,,,,,,,,,,,,,,,,,,
,,,,,,,2023-10-18_17h54.41.341,vbt_B1_day2,2022.2.4,Win32,60.32818533,,,,,,,,,,,,,,,,,,,,,,,,,,,down,0,7.2854,,0.57,-0.165,1,0,0,0.4329,0,52,52,122,1,waarvan,images/br_waarvan.png,images/cb_waarvan.png,0,,,,,,,,,,,,,,,,,,,,,,
,,,,,,,2023-10-18_17h54.41.341,vbt_B1_day2,2022.2.4,Win32,60.32818533,,,,,,,,,,,,,,,,,,,,,,,,,,,down,0,1.1579,,0.57,-0.165,1,0,0,0.4836,0,53,53,103,1,joggen,images/br_joggen.png,images/cb_joggen.png,0,,,,,,,,,,,,,,,,,,,,,,
,,,,,,,2023-10-18_17h54.41.341,vbt_B1_day2,2022.2.4,Win32,60.32818533,,,,,,,,,,,,,,,,,,,,,,,,,,,down,0,3.8026,,0.57,-0.165,1,0,0,0.3498,0,54,54,188,1,strekken,images/br_strekken.png,images/cb_strekken.png,0,,,,,,,,,,,,,,,,,,,,,,
,,,,,,,2023-10-18_17h54.41.341,vbt_B1_day2,2022.2.4,Win32,60.32818533,,,,,,,,,,,,,,,,,,,,,,,,,,,down,0,1.7778,,0.57,-0.165,1,0,0,0.417,0,55,55,17,1,taal,images/br_taal.png,images/cb_taal.png,1,taal,,,,,,,,,,,,,,,,,,,,,
,,,,,,,2023-10-18_17h54.41.341,vbt_B1_day2,2022.2.4,Win32,60.32818533,,,,,,,,,,,,,,,,,,,,,,,,,,,down,0,0.0675,,0.57,-0.165,1,0,0,0.5552,0,56,56,9,1,hier,images/br_hier.png,images/cb_hier.png,0,,,,,,,,,,,,,,,,,,,,,,
,,,,,,,2023-10-18_17h54.41.341,vbt_B1_day2,2022.2.4,Win32,60.32818533,,,,,,,,,,,,,,,,,,,,,,,,,,,down,0,8.9023,,0.57,-0.165,1,0,0,0.783,0,57,57,116,1,besmet,images/br_besmet.png,images/cb_besmet.png,0,,,,,,,,,,,,,,,,,,,,,,
,,,,,,,2023-10-18_17h54.41.341,vbt_B1_day2,2022.2.4,Win32,60.32818533,,,,,,,,,,,,,,,,,,,,,,,,,,,down,0,5.3534,,0.57,-0.165,1,0,0,0.3834,0,58,58,169,1,oprotten,images/br_oprotten.png,images/cb_oprotten.png,0,,,,,,,,,,,,,,,,,,,,,,
,,,,,,,2023-10-18_17h54.41.341,vbt_B1_day2,2022.2.4,Win32,60.32818533,,,,,,,,,,,,,,,,,,,,,,,,,,,down,0,8.5348,,0.57,-0.165,1,0,0,0.4611,0,59,59,179,1,woestijn,images/br_woestijn.png,images/cb_woestijn.png,1,woestijn,,,,,,,,,,,,,,,,,,,,,
,,,,,,,2023-10-18_17h54.41.341,vbt_B1_day2,2022.2.4,Win32,60.32818533,,,,,,,,,,,,,,,,,,,,,,,,,,,down,0,5.2908,,0.57,-0.165,1,0,0,0.5838,0,60,60,77,1,woede,images/br_woede.png,images/cb_woede.png,0,,,,,,,,,,,,,,,,,,,,,,
,,,,,,,2023-10-18_17h54.41.341,vbt_B1_day2,2022.2.4,Win32,60.32818533,,,,,,,,,,,,,,,,,,,,,,,,,,,down,0,9.1171,,0.57,-0.165,1,0,0,0.3669,0,61,61,157,1,uitlaat,images/br_uitlaat.png,images/cb_uitlaat.png,0,,,,,,,,,,,,,,,,,,,,,,
,,,,,,,2023-10-18_17h54.41.341,vbt_B1_day2,2022.2.4,Win32,60.32818533,,,,,,,,,,,,,,,,,,,,,,,,,,,down,0,4.3315,,0.57,-0.165,1,0,0,0.5003,0,62,62,115,1,kleren,images/br_kleren.png,images/cb_kleren.png,0,,,,,,,,,,,,,,,,,,,,,,
,,,,,,,2023-10-18_17h54.41.341,vbt_B1_day2,2022.2.4,Win32,60.32818533,,,,,,,,,,,,,,,,,,,,,,,,,,,down,0,5.1288,,0.57,-0.165,1,0,0,0.3668,0,63,63,64,1,wegen,images/br_wegen.png,images/cb_wegen.png,0,,,,,,,,,,,,,,,,,,,,,,
,,,,,,,2023-10-18_17h54.41.341,vbt_B1_day2,2022.2.4,Win32,60.32818533,,,,,,,,,,,,,,,,,,,,,,,,,,,down,0,6.5011,,0.57,-0.165,1,0,0,0.3207,0,64,64,149,1,redding,images/br_redding.png,images/cb_redding.png,0,,,,,,,,,,,,,,,,,,,,,,
,,,,,,,2023-10-18_17h54.41.341,vbt_B1_day2,2022.2.4,Win32,60.32818533,,,,,,,,,,,,,,,,,,,,,,,,,,,down,0,1.9528,,0.57,-0.165,1,0,0,0.4003,0,65,65,24,1,jurk,images/br_jurk.png,images/cb_jurk.png,0,,,,,,,,,,,,,,,,,,,,,,
,,,,,,,2023-10-18_17h54.41.341,vbt_B1_day2,2022.2.4,Win32,60.32818533,,,,,,,,,,,,,,,,,,,,,,,,,,,down,0,1.8158,,0.57,-0.165,1,0,0,0.8113,0,66,66,119,1,liefje,images/br_liefje.png,images/cb_liefje.png,0,,,,,,,,,,,,,,,,,,,,,,
,,,,,,,2023-10-18_17h54.41.341,vbt_B1_day2,2022.2.4,Win32,60.32818533,,,,,,,,,,,,,,,,,,,,,,,,,,,down,0,3.0111,,0.57,-0.165,1,0,0,0.4334,0,67,67,98,1,kreeft,images/br_kreeft.png,images/cb_kreeft.png,1,kreeft,,,,,,,,,,,,,,,,,,,,,
,,,,,,,2023-10-18_17h54.41.341,vbt_B1_day2,2022.2.4,Win32,60.32818533,,,,,,,,,,,,,,,,,,,,,,,,,,,down,0,8.741,,0.57,-0.165,1,0,0,0.7162,0,68,68,128,1,prikken,images/br_prikken.png,images/cb_prikken.png,0,,,,,,,,,,,,,,,,,,,,,,
,,,,,,,2023-10-18_17h54.41.341,vbt_B1_day2,2022.2.4,Win32,60.32818533,,,,,,,,,,,,,,,,,,,,,,,,,,,down,0,3.5217,,0.57,-0.165,1,0,0,0.5666,0,69,69,138,1,akkoord,images/br_akkoord.png,images/cb_akkoord.png,1,akkoord,,,,,,,,,,,,,,,,,,,,,
,,,,,,,2023-10-18_17h54.41.341,vbt_B1_day2,2022.2.4,Win32,60.32818533,,,,,,,,,,,,,,,,,,,,,,,,,,,down,0,1.5177,,0.57,-0.165,1,0,0,0.3665,0,70,70,8,1,knie,images/br_knie.png,images/cb_knie.png,0,,,,,,,,,,,,,,,,,,,,,,
,,,,,,,2023-10-18_17h54.41.341,vbt_B1_day2,2022.2.4,Win32,60.32818533,,,,,,,,,,,,,,,,,,,,,,,,,,,down,0,10.8175,,0.57,-0.165,1,0,0,0.3386,0,71,71,153,1,vervoer,images/br_vervoer.png,images/cb_vervoer.png,0,,,,,,,,,,,,,,,,,,,,,,
,,,,,,,2023-10-18_17h54.41.341,vbt_B1_day2,2022.2.4,Win32,60.32818533,,,,,,,,,,,,,,,,,,,,,,,,,,,down,0,7.7401,,0.57,-0.165,1,0,0,0.3659,0,72,72,124,1,bloeien,images/br_bloeien.png,images/cb_bloeien.png,0,,,,,,,,,,,,,,,,,,,,,,
,,,,,,,2023-10-18_17h54.41.341,vbt_B1_day2,2022.2.4,Win32,60.32818533,,,,,,,,,,,,,,,,,,,,,,,,,,,down,0,2.3864,,0.57,-0.165,1,0,0,0.6384,0,73,73,170,1,schatten,images/br_schatten.png,images/cb_schatten.png,0,,,,,,,,,,,,,,,,,,,,,,
,,,,,,,2023-10-18_17h54.41.341,vbt_B1_day2,2022.2.4,Win32,60.32818533,,,,,,,,,,,,,,,,,,,,,,,,,,,down,0,3.8345,,0.57,-0.165,1,0,0,0.3836,0,74,74,90,1,geluid,images/br_geluid.png,images/cb_geluid.png,0,,,,,,,,,,,,,,,,,,,,,,
,,,,,,,2023-10-18_17h54.41.341,vbt_B1_day2,2022.2.4,Win32,60.32818533,,,,,,,,,,,,,,,,,,,,,,,,,,,down,0,17.9673,,0.57,-0.165,1,0,0,1.1716,0,75,75,147,1,komisch,images/br_komisch.png,images/cb_komisch.png,0,,,,,,,,,,,,,,,,,,,,,,
,,,,,,,2023-10-18_17h54.41.341,vbt_B1_day2,2022.2.4,Win32,60.32818533,,,,,,,,,,,,,,,,,,,,,,,,,,,down,0,3.6561,,0.57,-0.165,1,0,0,0.7329,0,76,76,173,1,apparaat,images/br_apparaat.png,images/cb_apparaat.png,0,,,,,,,,,,,,,,,,,,,,,,
,,,,,,,2023-10-18_17h54.41.341,vbt_B1_day2,2022.2.4,Win32,60.32818533,,,,,,,,,,,,,,,,,,,,,,,,,,,down,0,4.599,,0.57,-0.165,1,0,0,0.8218,0,77,77,186,1,voorraad,images/br_voorraad.png,images/cb_voorraad.png,0,,,,,,,,,,,,,,,,,,,,,,
,,,,,,,2023-10-18_17h54.41.341,vbt_B1_day2,2022.2.4,Win32,60.32818533,,,,,,,,,,,,,,,,,,,,,,,,,,,down,0,9.903,,0.57,-0.165,1,0,0,0.5659,0,78,78,168,1,bisschop,images/br_bisschop.png,images/cb_bisschop.png,0,,,,,,,,,,,,,,,,,,,,,,
,,,,,,,2023-10-18_17h54.41.341,vbt_B1_day2,2022.2.4,Win32,60.32818533,,,,,,,,,,,,,,,,,,,,,,,,,,,down,0,6.0669,,0.57,-0.165,1,0,0,1.667,0,79,79,130,1,keihard,images/br_keihard.png,images/cb_keihard.png,0,,,,,,,,,,,,,,,,,,,,,,
,,,,,,,2023-10-18_17h54.41.341,vbt_B1_day2,2022.2.4,Win32,60.32818533,,,,,,,,,,,,,,,,,,,,,,,,,,,down,0,6.7008,,0.57,-0.165,1,0,0,0.4826,0,80,80,177,1,maaltijd,images/br_maaltijd.png,images/cb_maaltijd.png,1,maaltijd,,,,,,,,,,,,,,,,,,,,,
,,,,,,,2023-10-18_17h54.41.341,vbt_B1_day2,2022.2.4,Win32,60.32818533,,,,,,,,,,,,,,,,,,,,,,,,,,,down,0,4.4642,,0.57,-0.165,1,0,0,0.3454,0,81,81,15,1,soda,images/br_soda.png,images/cb_soda.png,0,,,,,,,,,,,,,,,,,,,,,,
,,,,,,,2023-10-18_17h54.41.341,vbt_B1_day2,2022.2.4,Win32,60.32818533,,,,,,,,,,,,,,,,,,,,,,,,,,,down,0,1.2522,,0.57,-0.165,1,0,0,0.9834,0,82,82,166,1,strikken,images/br_strikken.png,images/cb_strikken.png,0,,,,,,,,,,,,,,,,,,,,,,
,,,,,,,2023-10-18_17h54.41.341,vbt_B1_day2,2022.2.4,Win32,60.32818533,,,,,,,,,,,,,,,,,,,,,,,,,,,down,0,2.0527,,0.57,-0.165,1,0,0,1.0215,0,83,83,190,1,goedkoop,images/br_goedkoop.png,images/cb_goedkoop.png,0,,,,,,,,,,,,,,,,,,,,,,
,,,,,,,2023-10-18_17h54.41.341,vbt_B1_day2,2022.2.4,Win32,60.32818533,,,,,,,,,,,,,,,,,,,,,,,,,,,down,0,0.6826,,0.57,-0.165,1,0,0,0.8109,0,84,84,174,1,stemming,images/br_stemming.png,images/cb_stemming.png,0,,,,,,,,,,,,,,,,,,,,,,
,,,,,,,2023-10-18_17h54.41.341,vbt_B1_day2,2022.2.4,Win32,60.32818533,,,,,,,,,,,,,,,,,,,,,,,,,,,down,0,2.3477,,0.57,-0.165,1,0,0,0.7714,0,85,85,45,1,piste,images/br_piste.png,images/cb_piste.png,0,,,,,,,,,,,,,,,,,,,,,,
,,,,,,,2023-10-18_17h54.41.341,vbt_B1_day2,2022.2.4,Win32,60.32818533,,,,,,,,,,,,,,,,,,,,,,,,,,,down,0,2.7322,,0.57,-0.165,1,0,0,0.6672,0,86,86,87,1,toeval,images/br_toeval.png,images/cb_toeval.png,0,,,,,,,,,,,,,,,,,,,,,,
,,,,,,,2023-10-18_17h54.41.341,vbt_B1_day2,2022.2.4,Win32,60.32818533,,,,,,,,,,,,,,,,,,,,,,,,,,,down,0,2.6904,,0.57,-0.165,1,0,0,0.7723,0,87,87,14,1,rijp,images/br_rijp.png,images/cb_rijp.png,0,,,,,,,,,,,,,,,,,,,,,,
,,,,,,,2023-10-18_17h54.41.341,vbt_B1_day2,2022.2.4,Win32,60.32818533,,,,,,,,,,,,,,,,,,,,,,,,,,,down,0,1.1922,,0.57,-0.165,1,0,0,0.7492,0,88,88,82,1,muziek,images/br_muziek.png,images/cb_muziek.png,0,,,,,,,,,,,,,,,,,,,,,,
,,,,,,,2023-10-18_17h54.41.341,vbt_B1_day2,2022.2.4,Win32,60.32818533,,,,,,,,,,,,,,,,,,,,,,,,,,,down,0,3.4656,,0.57,-0.165,1,0,0,0.667,0,89,89,163,1,schuilen,images/br_schuilen.png,images/cb_schuilen.png,0,,,,,,,,,,,,,,,,,,,,,,
,,,,,,,2023-10-18_17h54.41.341,vbt_B1_day2,2022.2.4,Win32,60.32818533,,,,,,,,,,,,,,,,,,,,,,,,,,,down,0,3.5932,,0.57,-0.165,1,0,0,0.6999,0,90,90,91,1,gezond,images/br_gezond.png,images/cb_gezond.png,0,,,,,,,,,,,,,,,,,,,,,,
,,,,,,,2023-10-18_17h54.41.341,vbt_B1_day2,2022.2.4,Win32,60.32818533,,,,,,,,,,,,,,,,,,,,,,,,,,,down,0,1.5383,,0.57,-0.165,1,0,0,0.6168,0,91,91,23,1,zout,images/br_zout.png,images/cb_zout.png,0,,,,,,,,,,,,,,,,,,,,,,
,,,,,,,2023-10-18_17h54.41.341,vbt_B1_day2,2022.2.4,Win32,60.32818533,,,,,,,,,,,,,,,,,,,,,,,,,,,down,0,3.7142,,0.57,-0.165,1,0,0,0.5959,0,92,92,102,1,legaal,images/br_legaal.png,images/cb_legaal.png,0,,,,,,,,,,,,,,,,,,,,,,
,,,,,,,2023-10-18_17h54.41.341,vbt_B1_day2,2022.2.4,Win32,60.32818533,,,,,,,,,,,,,,,,,,,,,,,,,,,down,0,3.5358,,0.57,-0.165,1,0,0,0.7168,0,93,93,4,1,moes,images/br_moes.png,images/cb_moes.png,0,,,,,,,,,,,,,,,,,,,,,,
,,,,,,,2023-10-18_17h54.41.341,vbt_B1_day2,2022.2.4,Win32,60.32818533,,,,,,,,,,,,,,,,,,,,,,,,,,,down,0,6.9079,,0.57,-0.165,1,0,0,0.5335,0,94,94,180,1,openbaar,images/br_openbaar.png,images/cb_openbaar.png,0,,,,,,,,,,,,,,,,,,,,,,
,,,,,,,2023-10-18_17h54.41.341,vbt_B1_day2,2022.2.4,Win32,60.32818533,,,,,,,,,,,,,,,,,,,,,,,,,,,down,0,0.7674,,0.57,-0.165,1,0,0,0.7443,0,95,95,29,1,baas,images/br_baas.png,images/cb_baas.png,0,,,,,,,,,,,,,,,,,,,,,,
,,,,,,,2023-10-18_17h54.41.341,vbt_B1_day2,2022.2.4,Win32,60.32818533,,,,,,,,,,,,,,,,,,,,,,,,,,,down,0,0.8518,,0.57,-0.165,1,0,0,0.6158,0,96,96,62,1,knaap,images/br_knaap.png,images/cb_knaap.png,0,,,,,,,,,,,,,,,,,,,,,,
,,,,,,,2023-10-18_17h54.41.341,vbt_B1_day2,2022.2.4,Win32,60.32818533,,,,,,,,,,,,,,,,,,,,,,,,,,,down,0,1.8115,,0.57,-0.165,1,0,0,0.5617,0,97,97,191,1,opheffen,images/br_opheffen.png,images/cb_opheffen.png,0,,,,,,,,,,,,,,,,,,,,,,
,,,,,,,2023-10-18_17h54.41.341,vbt_B1_day2,2022.2.4,Win32,60.32818533,,,,,,,,,,,,,,,,,,,,,,,,,,,down,0,4.6181,,0.57,-0.165,1,0,0,0.5,0,98,98,31,1,poes,images/br_poes.png,images/cb_poes.png,0,,,,,,,,,,,,,,,,,,,,,,
,,,,,,,2023-10-18_17h54.41.341,vbt_B1_day2,2022.2.4,Win32,60.32818533,,,,,,,,,,,,,,,,,,,,,,,,,,,down,0,0.8535,,0.5825,-0.129166667,1,0,0,0.9171,0,99,99,93,1,waarop,images/br_waarop.png,images/cb_waarop.png,0,,,,,,,,,,,,,,,,,,,,,,
,,,,,,,2023-10-18_17h54.41.341,vbt_B1_day2,2022.2.4,Win32,60.32818533,,,,,,,,,,,,,,,,,,,,,,,,,,,down,0,0.468,,0.5825,-0.129166667,1,0,0,0.5832,0,100,100,53,1,baron,images/br_baron.png,images/cb_baron.png,0,,,,,,,,,,,,,,,,,,,,,,
,,,,,,,2023-10-18_17h54.41.341,vbt_B1_day2,2022.2.4,Win32,60.32818533,,,,,,,,,,,,,,,,,,,,,,,,,,,down,0,1.303,,0.5825,-0.129166667,1,0,0,0.8314,0,101,101,61,1,groen,images/br_groen.png,images/cb_groen.png,0,,,,,,,,,,,,,,,,,,,,,,
,,,,,,,2023-10-18_17h54.41.341,vbt_B1_day2,2022.2.4,Win32,60.32818533,,,,,,,,,,,,,,,,,,,,,,,,,,,down,0,3.1221,,0.5825,-0.129166667,1,0,0,0.5837,0,102,102,41,1,maken,images/br_maken.png,images/cb_maken.png,0,,,,,,,,,,,,,,,,,,,,,,
,,,,,,,2023-10-18_17h54.41.341,vbt_B1_day2,2022.2.4,Win32,60.32818533,,,,,,,,,,,,,,,,,,,,,,,,,,,down,0,8.0225,,0.5825,-0.129166667,1,0,0,0.6198,0,103,103,95,1,vreten,images/br_vreten.png,images/cb_vreten.png,0,,,,,,,,,,,,,,,,,,,,,,
,,,,,,,2023-10-18_17h54.41.341,vbt_B1_day2,2022.2.4,Win32,60.32818533,,,,,,,,,,,,,,,,,,,,,,,,,,,down,0,0.3034,,0.5825,-0.129166667,1,0,0,0.6828,0,104,104,7,1,geld,images/br_geld.png,images/cb_geld.png,0,,,,,,,,,,,,,,,,,,,,,,
,,,,,,,2023-10-18_17h54.41.341,vbt_B1_day2,2022.2.4,Win32,60.32818533,,,,,,,,,,,,,,,,,,,,,,,,,,,down,0,4.9828,,0.5825,-0.129166667,1,0,0,0.4998,0,105,105,107,1,maling,images/br_maling.png,images/cb_maling.png,0,,,,,,,,,,,,,,,,,,,,,,
,,,,,,,2023-10-18_17h54.41.341,vbt_B1_day2,2022.2.4,Win32,60.32818533,,,,,,,,,,,,,,,,,,,,,,,,,,,down,0,1.3705,,0.5825,-0.129166667,1,0,0,0.5163,0,106,106,51,1,samen,images/br_samen.png,images/cb_samen.png,0,,,,,,,,,,,,,,,,,,,,,,
,,,,,,,2023-10-18_17h54.41.341,vbt_B1_day2,2022.2.4,Win32,60.32818533,,,,,,,,,,,,,,,,,,,,,,,,,,,down,0,13.1066,,0.5825,-0.129166667,1,0,0,1.7171,0,107,107,185,1,mijnheer,images/br_mijnheer.png,images/cb_mijnheer.png,0,,,,,,,,,,,,,,,,,,,,,,
,,,,,,,2023-10-18_17h54.41.341,vbt_B1_day2,2022.2.4,Win32,60.32818533,,,,,,,,,,,,,,,,,,,,,,,,,,,down,0,10.8513,,0.5825,-0.129166667,1,0,0,0.6168,0,108,108,88,1,boeien,images/br_boeien.png,images/cb_boeien.png,0,,,,,,,,,,,,,,,,,,,,,,
,,,,,,,2023-10-18_17h54.41.341,vbt_B1_day2,2022.2.4,Win32,60.32818533,,,,,,,,,,,,,,,,,,,,,,,,,,,down,0,3.1194,,0.250833333,-0.015833333,1,0,0,0.633,0,109,109,158,1,innemen,images/br_innemen.png,images/cb_innemen.png,0,,,,,,,,,,,,,,,,,,,,,,
,,,,,,,2023-10-18_17h54.41.341,vbt_B1_day2,2022.2.4,Win32,60.32818533,,,,,,,,,,,,,,,,,,,,,,,,,,,down,0,12.6435,,0.338333333,-0.081666667,1,0,0,0.6163,0,110,110,127,1,doodmoe,images/br_doodmoe.png,images/cb_doodmoe.png,0,,,,,,,,,,,,,,,,,,,,,,
,,,,,,,2023-10-18_17h54.41.341,vbt_B1_day2,2022.2.4,Win32,60.32818533,,,,,,,,,,,,,,,,,,,,,,,,,,,down,0,3.0342,,0.338333333,-0.081666667,1,0,0,0.5327,0,111,111,75,1,snoep,images/br_snoep.png,images/cb_snoep.png,0,,,,,,,,,,,,,,,,,,,,,,
,,,,,,,2023-10-18_17h54.41.341,vbt_B1_day2,2022.2.4,Win32,60.32818533,,,,,,,,,,,,,,,,,,,,,,,,,,,down,0,6.9905,,0.338333333,-0.081666667,1,0,0,0.4171,0,112,112,129,1,verhaal,images/br_verhaal.png,images/cb_verhaal.png,0,,,,,,,,,,,,,,,,,,,,,,
,,,,,,,2023-10-18_17h54.41.341,vbt_B1_day2,2022.2.4,Win32,60.32818533,,,,,,,,,,,,,,,,,,,,,,,,,,,down,0,2.9717,,0.338333333,-0.081666667,1,0,0,0.6333,0,113,113,12,1,kust,images/br_kust.png,images/cb_kust.png,0,,,,,,,,,,,,,,,,,,,,,,
,,,,,,,2023-10-18_17h54.41.341,vbt_B1_day2,2022.2.4,Win32,60.32818533,,,,,,,,,,,,,,,,,,,,,,,,,,,down,0,4.3028,,0.338333333,-0.081666667,1,0,0,0.4338,0,114,114,48,1,steel,images/br_steel.png,images/cb_steel.png,0,,,,,,,,,,,,,,,,,,,,,,
,,,,,,,2023-10-18_17h54.41.341,vbt_B1_day2,2022.2.4,Win32,60.32818533,,,,,,,,,,,,,,,,,,,,,,,,,,,down,0,15.9857,,0.338333333,-0.081666667,1,0,0,0.6046,0,115,115,106,1,zingen,images/br_zingen.png,images/cb_zingen.png,0,,,,,,,,,,,,,,,,,,,,,,
,,,,,,,2023-10-18_17h54.41.341,vbt_B1_day2,2022.2.4,Win32,60.32818533,,,,,,,,,,,,,,,,,,,,,,,,,,,down,0,4.7536,,0.338333333,-0.081666667,1,0,0,0.5164,0,116,116,159,1,sufferd,images/br_sufferd.png,images/cb_sufferd.png,0,,,,,,,,,,,,,,,,,,,,,,
,,,,,,,2023-10-18_17h54.41.341,vbt_B1_day2,2022.2.4,Win32,60.32818533,,,,,,,,,,,,,,,,,,,,,,,,,,,down,0,2.6544,,0.338333333,-0.081666667,1,0,0,0.3835,0,117,117,58,1,tekst,images/br_tekst.png,images/cb_tekst.png,1,tekst,,,,,,,,,,,,,,,,,,,,,
,,,,,,,2023-10-18_17h54.41.341,vbt_B1_day2,2022.2.4,Win32,60.32818533,,,,,,,,,,,,,,,,,,,,,,,,,,,down,0,1.4085,,0.338333333,-0.081666667,1,0,0,0.784,0,118,118,135,1,gedicht,images/br_gedicht.png,images/cb_gedicht.png,0,,,,,,,,,,,,,,,,,,,,,,
,,,,,,,2023-10-18_17h54.41.341,vbt_B1_day2,2022.2.4,Win32,60.32818533,,,,,,,,,,,,,,,,,,,,,,,,,,,down,0,2.9583,,0.338333333,-0.081666667,1,0,0,0.5328,0,119,119,164,1,anarchie,images/br_anarchie.png,images/cb_anarchie.png,0,,,,,,,,,,,,,,,,,,,,,,
,,,,,,,2023-10-18_17h54.41.341,vbt_B1_day2,2022.2.4,Win32,60.32818533,,,,,,,,,,,,,,,,,,,,,,,,,,,down,0,0.3005,,0.338333333,-0.081666667,1,0,0,0.4496,0,120,120,1,1,zaal,images/br_zaal.png,images/cb_zaal.png,0,,,,,,,,,,,,,,,,,,,,,,
,,,,,,,2023-10-18_17h54.41.341,vbt_B1_day2,2022.2.4,Win32,60.32818533,,,,,,,,,,,,,,,,,,,,,,,,,,,down,0,4.8238,,0.338333333,-0.081666667,1,0,0,0.4,0,121,121,126,1,kasteel,images/br_kasteel.png,images/cb_kasteel.png,0,,,,,,,,,,,,,,,,,,,,,,
,,,,,,,2023-10-18_17h54.41.341,vbt_B1_day2,2022.2.4,Win32,60.32818533,,,,,,,,,,,,,,,,,,,,,,,,,,,down,0,15.2675,,0.2125,-0.216666667,1,0,0,3.6948,0,122,122,136,1,waarbij,images/br_waarbij.png,images/cb_waarbij.png,1,waarbid,,,,,,,,,,,,,,,,,,,,,
,,,,,,,2023-10-18_17h54.41.341,vbt_B1_day2,2022.2.4,Win32,60.32818533,,,,,,,,,,,,,,,,,,,,,,,,,,,down,0,2.0059,,0.439166667,-0.123333333,1,0,0,1.2882,0,123,123,101,1,staren,images/br_staren.png,images/cb_staren.png,0,,,,,,,,,,,,,,,,,,,,,,
,,,,,,,2023-10-18_17h54.41.341,vbt_B1_day2,2022.2.4,Win32,60.32818533,,,,,,,,,,,,,,,,,,,,,,,,,,,down,0,3.823,,0.439166667,-0.123333333,1,0,0,0.618,0,124,124,97,1,loyaal,images/br_loyaal.png,images/cb_loyaal.png,1,loyaal,,,,,,,,,,,,,,,,,,,,,
,,,,,,,2023-10-18_17h54.41.341,vbt_B1_day2,2022.2.4,Win32,60.32818533,,,,,,,,,,,,,,,,,,,,,,,,,,,down,0,2.1053,,0.439166667,-0.123333333,1,0,0,0.5501,0,125,125,171,1,aarzelen,images/br_aarzelen.png,images/cb_aarzelen.png,0,,,,,,,,,,,,,,,,,,,,,,
,,,,,,,2023-10-18_17h54.41.341,vbt_B1_day2,2022.2.4,Win32,60.32818533,,,,,,,,,,,,,,,,,,,,,,,,,,,down,0,1.7088,,0.399166667,-0.1225,1,0,0,0.6658,0,126,126,141,1,knielen,images/br_knielen.png,images/cb_knielen.png,0,,,,,,,,,,,,,,,,,,,,,,
,,,,,,,2023-10-18_17h54.41.341,vbt_B1_day2,2022.2.4,Win32,60.32818533,,,,,,,,,,,,,,,,,,,,,,,,,,,down,0,3.0648,,0.399166667,-0.1225,1,0,0,1.6664,0,127,127,96,1,slagen,images/br_slagen.png,images/cb_slagen.png,1,slagen,,,,,,,,,,,,,,,,,,,,,
,,,,,,,2023-10-18_17h54.41.341,vbt_B1_day2,2022.2.4,Win32,60.32818533,,,,,,,,,,,,,,,,,,,,,,,,,,,down,0,0.9484,,0.399166667,-0.1225,1,0,0,0.3961,0,128,128,71,1,bever,images/br_bever.png,images/cb_bever.png,0,,,,,,,,,,,,,,,,,,,,,,
,,,,,,,2023-10-18_17h54.41.341,vbt_B1_day2,2022.2.4,Win32,60.32818533,,,,,,,,,,,,,,,,,,,,,,,,,,,down,0,1.4356,,0.399166667,-0.1225,1,0,0,0.4541,0,129,129,42,1,bleek,images/br_bleek.png,images/cb_bleek.png,0,,,,,,,,,,,,,,,,,,,,,,
,,,,,,,2023-10-18_17h54.41.341,vbt_B1_day2,2022.2.4,Win32,60.32818533,,,,,,,,,,,,,,,,,,,,,,,,,,,down,0,2.4382,,0.399166667,-0.1225,1,0,0,0.683,0,130,130,11,1,mode,images/br_mode.png,images/cb_mode.png,0,,,,,,,,,,,,,,,,,,,,,,
,,,,,,,2023-10-18_17h54.41.341,vbt_B1_day2,2022.2.4,Win32,60.32818533,,,,,,,,,,,,,,,,,,,,,,,,,,,down,0,12.2197,,0.399166667,-0.1225,1,0,0,0.4665,0,131,131,196,1,nakijken,images/br_nakijken.png,images/cb_nakijken.png,0,,,,,,,,,,,,,,,,,,,,,,
,,,,,,,2023-10-18_17h54.41.341,vbt_B1_day2,2022.2.4,Win32,60.32818533,,,,,,,,,,,,,,,,,,,,,,,,,,,down,0,0.4475,,0.399166667,-0.1225,1,0,0,0.6167,0,132,132,113,1,koppen,images/br_koppen.png,images/cb_koppen.png,0,,,,,,,,,,,,,,,,,,,,,,
,,,,,,,2023-10-18_17h54.41.341,vbt_B1_day2,2022.2.4,Win32,60.32818533,,,,,,,,,,,,,,,,,,,,,,,,,,,down,0,18.4647,,0.399166667,-0.1225,1,0,0,1.3223,0,133,133,178,1,huisdier,images/br_huisdier.png,images/cb_huisdier.png,1,huisdeur,,,,,,,,,,,,,,,,,,,,,
,,,,,,,2023-10-18_17h54.41.341,vbt_B1_day2,2022.2.4,Win32,60.32818533,,,,,,,,,,,,,,,,,,,,,,,,,,,down,0,1.0075,,0.399166667,-0.1225,1,0,0,1.0667,0,134,134,182,1,bijkomen,images/br_bijkomen.png,images/cb_bijkomen.png,0,,,,,,,,,,,,,,,,,,,,,,
,,,,,,,2023-10-18_17h54.41.341,vbt_B1_day2,2022.2.4,Win32,60.32818533,,,,,,,,,,,,,,,,,,,,,,,,,,,down,0,3.0873,,0.399166667,-0.1225,1,0,0,0.5825,0,135,135,123,1,hiervan,images/br_hiervan.png,images/cb_hiervan.png,0,,,,,,,,,,,,,,,,,,,,,,
,,,,,,,2023-10-18_17h54.41.341,vbt_B1_day2,2022.2.4,Win32,60.32818533,,,,,,,,,,,,,,,,,,,,,,,,,,,down,0,1.3707,,0.399166667,-0.1225,1,0,0,0.5992,0,136,136,85,1,heilig,images/br_heilig.png,images/cb_heilig.png,0,,,,,,,,,,,,,,,,,,,,,,
,,,,,,,2023-10-18_17h54.41.341,vbt_B1_day2,2022.2.4,Win32,60.32818533,,,,,,,,,,,,,,,,,,,,,,,,,,,down,0,7.1416,,0.399166667,-0.1225,1,0,0,0.7344,0,137,137,80,1,kanjer,images/br_kanjer.png,images/cb_kanjer.png,0,,,,,,,,,,,,,,,,,,,,,,
,,,,,,,2023-10-18_17h54.41.341,vbt_B1_day2,2022.2.4,Win32,60.32818533,,,,,,,,,,,,,,,,,,,,,,,,,,,down,0,0.6384,,0.399166667,-0.1225,1,0,0,0.5891,0,138,138,68,1,schat,images/br_schat.png,images/cb_schat.png,0,,,,,,,,,,,,,,,,,,,,,,
,,,,,,,2023-10-18_17h54.41.341,vbt_B1_day2,2022.2.4,Win32,60.32818533,,,,,,,,,,,,,,,,,,,,,,,,,,,down,0,0.0679,,0.399166667,-0.1225,1,0,0,2.0215,0,139,139,143,1,hechten,images/br_hechten.png,images/cb_hechten.png,0,,,,,,,,,,,,,,,,,,,,,,
,,,,,,,2023-10-18_17h54.41.341,vbt_B1_day2,2022.2.4,Win32,60.32818533,,,,,,,,,,,,,,,,,,,,,,,,,,,down,0,0.4582,,0.399166667,-0.1225,1,0,0,0.5159,0,140,140,13,1,kaal,images/br_kaal.png,images/cb_kaal.png,0,,,,,,,,,,,,,,,,,,,,,,
,,,,,,,2023-10-18_17h54.41.341,vbt_B1_day2,2022.2.4,Win32,60.32818533,,,,,,,,,,,,,,,,,,,,,,,,,,,down,0,0.7089,,0.44,-0.1025,1,0,0,0.8004,0,141,141,162,1,uitdelen,images/br_uitdelen.png,images/cb_uitdelen.png,0,,,,,,,,,,,,,,,,,,,,,,
,,,,,,,2023-10-18_17h54.41.341,vbt_B1_day2,2022.2.4,Win32,60.32818533,,,,,,,,,,,,,,,,,,,,,,,,,,,down,0,2.419,,0.44,-0.1025,1,0,0,0.7324,0,142,142,165,1,feestdag,images/br_feestdag.png,images/cb_feestdag.png,0,,,,,,,,,,,,,,,,,,,,,,
,,,,,,,2023-10-18_17h54.41.341,vbt_B1_day2,2022.2.4,Win32,60.32818533,,,,,,,,,,,,,,,,,,,,,,,,,,,down,0,7.1703,,0.44,-0.1025,1,0,0,0.5337,0,143,143,142,1,snuiven,images/br_snuiven.png,images/cb_snuiven.png,0,,,,,,,,,,,,,,,,,,,,,,
,,,,,,,2023-10-18_17h54.41.341,vbt_B1_day2,2022.2.4,Win32,60.32818533,,,,,,,,,,,,,,,,,,,,,,,,,,,down,0,3.1505,,0.44,-0.1025,1,0,0,0.5216,0,144,144,52,1,wagon,images/br_wagon.png,images/cb_wagon.png,0,,,,,,,,,,,,,,,,,,,,,,
,,,,,,,2023-10-18_17h54.41.341,vbt_B1_day2,2022.2.4,Win32,60.32818533,,,,,,,,,,,,,,,,,,,,,,,,,,,down,0,0.2823,,0.44,-0.1025,1,0,0,0.7997,0,145,145,156,1,rechten,images/br_rechten.png,images/cb_rechten.png,0,,,,,,,,,,,,,,,,,,,,,,
,,,,,,,2023-10-18_17h54.41.341,vbt_B1_day2,2022.2.4,Win32,60.32818533,,,,,,,,,,,,,,,,,,,,,,,,,,,down,0,1.9678,,0.44,-0.1025,1,0,0,0.6675,0,146,146,69,1,waken,images/br_waken.png,images/cb_waken.png,0,,,,,,,,,,,,,,,,,,,,,,
,,,,,,,2023-10-18_17h54.41.341,vbt_B1_day2,2022.2.4,Win32,60.32818533,,,,,,,,,,,,,,,,,,,,,,,,,,,down,0,3.915,,0.44,-0.1025,1,0,0,0.6008,0,147,147,74,1,graaf,images/br_graaf.png,images/cb_graaf.png,0,,,,,,,,,,,,,,,,,,,,,,
,,,,,,,2023-10-18_17h54.41.341,vbt_B1_day2,2022.2.4,Win32,60.32818533,,,,,,,,,,,,,,,,,,,,,,,,,,,down,0,2.368,,0.44,-0.1025,1,0,0,0.7166,0,148,148,76,1,afval,images/br_afval.png,images/cb_afval.png,0,,,,,,,,,,,,,,,,,,,,,,
,,,,,,,2023-10-18_17h54.41.341,vbt_B1_day2,2022.2.4,Win32,60.32818533,,,,,,,,,,,,,,,,,,,,,,,,,,,down,0,0.2194,,0.44,-0.1025,1,0,0,0.767,0,149,149,60,1,jasje,images/br_jasje.png,images/cb_jasje.png,0,,,,,,,,,,,,,,,,,,,,,,
,,,,,,,2023-10-18_17h54.41.341,vbt_B1_day2,2022.2.4,Win32,60.32818533,,,,,,,,,,,,,,,,,,,,,,,,,,,down,0,7.1874,,0.44,-0.1025,1,0,0,7.4112,0,150,150,49,1,laken,images/br_laken.png,images/cb_laken.png,0,,,,,,,,,,,,,,,,,,,,,,
,,,,,,,2023-10-18_17h54.41.341,vbt_B1_day2,2022.2.4,Win32,60.32818533,,,,,,,,,,,,,,,,,,,,,,,,,,,down,0,2.1541,,0.44,-0.1025,1,0,0,0.7665,0,151,151,189,1,aanraden,images/br_aanraden.png,images/cb_aanraden.png,0,,,,,,,,,,,,,,,,,,,,,,
,,,,,,,2023-10-18_17h54.41.341,vbt_B1_day2,2022.2.4,Win32,60.32818533,,,,,,,,,,,,,,,,,,,,,,,,,,,down,0,1.1733,,0.44,-0.1025,1,0,0,0.5001,0,152,152,55,1,praat,images/br_praat.png,images/cb_praat.png,0,,,,,,,,,,,,,,,,,,,,,,
,,,,,,,2023-10-18_17h54.41.341,vbt_B1_day2,2022.2.4,Win32,60.32818533,,,,,,,,,,,,,,,,,,,,,,,,,,,down,0,3.8926,,0.44,-0.1025,1,0,0,0.4999,0,153,153,84,1,lokken,images/br_lokken.png,images/cb_lokken.png,0,,,,,,,,,,,,,,,,,,,,,,
,,,,,,,2023-10-18_17h54.41.341,vbt_B1_day2,2022.2.4,Win32,60.32818533,,,,,,,,,,,,,,,,,,,,,,,,,,,down,0,2.5404,,0.44,-0.1025,1,0,0,0.6499,0,154,154,16,1,ziek,images/br_ziek.png,images/cb_ziek.png,1,ziek,,,,,,,,,,,,,,,,,,,,,
,,,,,,,2023-10-18_17h54.41.341,vbt_B1_day2,2022.2.4,Win32,60.32818533,,,,,,,,,,,,,,,,,,,,,,,,,,,down,0,1.231,,0.513333333,-0.119166667,1,0,0,0.8132,0,155,155,70,1,ijdel,images/br_ijdel.png,images/cb_ijdel.png,0,,,,,,,,,,,,,,,,,,,,,,
,,,,,,,2023-10-18_17h54.41.341,vbt_B1_day2,2022.2.4,Win32,60.32818533,,,,,,,,,,,,,,,,,,,,,,,,,,,down,0,1.6014,,0.513333333,-0.119166667,1,0,0,0.7011,0,156,156,161,1,attentie,images/br_attentie.png,images/cb_attentie.png,0,,,,,,,,,,,,,,,,,,,,,,
,,,,,,,2023-10-18_17h54.41.341,vbt_B1_day2,2022.2.4,Win32,60.32818533,,,,,,,,,,,,,,,,,,,,,,,,,,,down,0,1.1707,,0.513333333,-0.119166667,1,0,0,0.9164,0,157,157,154,1,aflopen,images/br_aflopen.png,images/cb_aflopen.png,0,,,,,,,,,,,,,,,,,,,,,,
,,,,,,,2023-10-18_17h54.41.341,vbt_B1_day2,2022.2.4,Win32,60.32818533,,,,,,,,,,,,,,,,,,,,,,,,,,,down,0,2.5724,,0.513333333,-0.119166667,1,0,0,0.5324,0,158,158,100,1,geduld,images/br_geduld.png,images/cb_geduld.png,0,,,,,,,,,,,,,,,,,,,,,,
,,,,,,,2023-10-18_17h54.41.341,vbt_B1_day2,2022.2.4,Win32,60.32818533,,,,,,,,,,,,,,,,,,,,,,,,,,,down,0,1.5328,,0.513333333,-0.119166667,1,0,0,0.4669,0,159,159,38,1,baai,images/br_baai.png,images/cb_baai.png,0,,,,,,,,,,,,,,,,,,,,,,
,,,,,,,2023-10-18_17h54.41.341,vbt_B1_day2,2022.2.4,Win32,60.32818533,,,,,,,,,,,,,,,,,,,,,,,,,,,down,0,0.4698,,0.513333333,-0.119166667,1,0,0,0.5328,0,160,160,3,1,mand,images/br_mand.png,images/cb_mand.png,0,,,,,,,,,,,,,,,,,,,,,,
,,,,,,,2023-10-18_17h54.41.341,vbt_B1_day2,2022.2.4,Win32,60.32818533,,,,,,,,,,,,,,,,,,,,,,,,,,,down,0,1.5529,,0.513333333,-0.119166667,1,0,0,0.733,0,161,161,160,1,daarheen,images/br_daarheen.png,images/cb_daarheen.png,0,,,,,,,,,,,,,,,,,,,,,,
,,,,,,,2023-10-18_17h54.41.341,vbt_B1_day2,2022.2.4,Win32,60.32818533,,,,,,,,,,,,,,,,,,,,,,,,,,,down,0,0.6237,,0.513333333,-0.119166667,1,0,0,0.4563,0,162,162,10,1,leek,images/br_leek.png,images/cb_leek.png,0,,,,,,,,,,,,,,,,,,,,,,
,,,,,,,2023-10-18_17h54.41.341,vbt_B1_day2,2022.2.4,Win32,60.32818533,,,,,,,,,,,,,,,,,,,,,,,,,,,down,0,0.1169,,0.513333333,-0.119166667,1,0,0,0.666,0,163,163,30,1,uien,images/br_uien.png,images/cb_uien.png,0,,,,,,,,,,,,,,,,,,,,,,
,,,,,,,2023-10-18_17h54.41.341,vbt_B1_day2,2022.2.4,Win32,60.32818533,,,,,,,,,,,,,,,,,,,,,,,,,,,down,0,0.0729,,0.513333333,-0.119166667,1,0,0,0.6006,0,164,164,67,1,zwart,images/br_zwart.png,images/cb_zwart.png,0,,,,,,,,,,,,,,,,,,,,,,
,,,,,,,2023-10-18_17h54.41.341,vbt_B1_day2,2022.2.4,Win32,60.32818533,,,,,,,,,,,,,,,,,,,,,,,,,,,down,0,0.4258,,0.513333333,-0.119166667,1,0,0,0.6325,0,165,165,78,1,leren,images/br_leren.png,images/cb_leren.png,0,,,,,,,,,,,,,,,,,,,,,,
,,,,,,,2023-10-18_17h54.41.341,vbt_B1_day2,2022.2.4,Win32,60.32818533,,,,,,,,,,,,,,,,,,,,,,,,,,,down,0,1.6147,,0.513333333,-0.119166667,1,0,0,0.6951,0,166,166,37,1,mijn,images/br_mijn.png,images/cb_mijn.png,0,,,,,,,,,,,,,,,,,,,,,,
,,,,,,,2023-10-18_17h54.41.341,vbt_B1_day2,2022.2.4,Win32,60.32818533,,,,,,,,,,,,,,,,,,,,,,,,,,,down,0,0.4047,,0.513333333,-0.119166667,1,0,0,0.4666,0,167,167,47,1,kabel,images/br_kabel.png,images/cb_kabel.png,0,,,,,,,,,,,,,,,,,,,,,,
,,,,,,,2023-10-18_17h54.41.341,vbt_B1_day2,2022.2.4,Win32,60.32818533,,,,,,,,,,,,,,,,,,,,,,,,,,,down,0,2.5801,,0.513333333,-0.119166667,1,0,0,0.5999,0,168,168,2,1,jaar,images/br_jaar.png,images/cb_jaar.png,0,,,,,,,,,,,,,,,,,,,,,,
,,,,,,,2023-10-18_17h54.41.341,vbt_B1_day2,2022.2.4,Win32,60.32818533,,,,,,,,,,,,,,,,,,,,,,,,,,,down,0,0.4685,,0.513333333,-0.119166667,1,0,0,0.8495,0,169,169,172,1,weigeren,images/br_weigeren.png,images/cb_weigeren.png,0,,,,,,,,,,,,,,,,,,,,,,
,,,,,,,2023-10-18_17h54.41.341,vbt_B1_day2,2022.2.4,Win32,60.32818533,,,,,,,,,,,,,,,,,,,,,,,,,,,down,0,0.1562,,0.513333333,-0.119166667,1,0,0,0.588,0,170,170,6,1,diep,images/br_diep.png,images/cb_diep.png,0,,,,,,,,,,,,,,,,,,,,,,
,,,,,,,2023-10-18_17h54.41.341,vbt_B1_day2,2022.2.4,Win32,60.32818533,,,,,,,,,,,,,,,,,,,,,,,,,,,down,0,0.1079,,0.513333333,-0.119166667,1,0,0,0.8665,0,171,171,133,1,seizoen,images/br_seizoen.png,images/cb_seizoen.png,0,,,,,,,,,,,,,,,,,,,,,,
,,,,,,,2023-10-18_17h54.41.341,vbt_B1_day2,2022.2.4,Win32,60.32818533,,,,,,,,,,,,,,,,,,,,,,,,,,,down,0,0.9939,,0.513333333,-0.119166667,1,0,0,0.6503,0,172,172,198,1,bedoelen,images/br_bedoelen.png,images/cb_bedoelen.png,0,,,,,,,,,,,,,,,,,,,,,,
,,,,,,,2023-10-18_17h54.41.341,vbt_B1_day2,2022.2.4,Win32,60.32818533,,,,,,,,,,,,,,,,,,,,,,,,,,,down,0,0.856,,0.513333333,-0.119166667,1,0,0,0.7369,0,173,173,65,1,parel,images/br_parel.png,images/cb_parel.png,0,,,,,,,,,,,,,,,,,,,,,,
,,,,,,,2023-10-18_17h54.41.341,vbt_B1_day2,2022.2.4,Win32,60.32818533,,,,,,,,,,,,,,,,,,,,,,,,,,,down,0,2.602,,0.513333333,-0.119166667,1,0,0,0.5168,0,174,174,18,1,blik,images/br_blik.png,images/cb_blik.png,1,blik,,,,,,,,,,,,,,,,,,,,,
,,,,,,,2023-10-18_17h54.41.341,vbt_B1_day2,2022.2.4,Win32,60.32818533,,,,,,,,,,,,,,,,,,,,,,,,,,,down,0,3.7502,,0.513333333,-0.119166667,1,0,0,0.3672,0,175,175,183,1,getuigen,images/br_getuigen.png,images/cb_getuigen.png,0,,,,,,,,,,,,,,,,,,,,,,
,,,,,,,2023-10-18_17h54.41.341,vbt_B1_day2,2022.2.4,Win32,60.32818533,,,,,,,,,,,,,,,,,,,,,,,,,,,down,0,1.5093,,0.513333333,-0.119166667,1,0,0,0.5162,0,176,176,32,1,palm,images/br_palm.png,images/cb_palm.png,0,,,,,,,,,,,,,,,,,,,,,,
,,,,,,,2023-10-18_17h54.41.341,vbt_B1_day2,2022.2.4,Win32,60.32818533,,,,,,,,,,,,,,,,,,,,,,,,,,,down,0,1.9339,,0.513333333,-0.119166667,1,0,0,0.5166,0,177,177,43,1,klauw,images/br_klauw.png,images/cb_klauw.png,0,,,,,,,,,,,,,,,,,,,,,,
,,,,,,,2023-10-18_17h54.41.341,vbt_B1_day2,2022.2.4,Win32,60.32818533,,,,,,,,,,,,,,,,,,,,,,,,,,,down,0,1.6906,,0.513333333,-0.119166667,1,0,0,0.4007,0,178,178,184,1,aandelen,images/br_aandelen.png,images/cb_aandelen.png,0,,,,,,,,,,,,,,,,,,,,,,
,,,,,,,2023-10-18_17h54.41.341,vbt_B1_day2,2022.2.4,Win32,60.32818533,,,,,,,,,,,,,,,,,,,,,,,,,,,down,0,1.0272,,0.513333333,-0.119166667,1,0,0,0.467,0,179,179,92,1,geheim,images/br_geheim.png,images/cb_geheim.png,0,,,,,,,,,,,,,,,,,,,,,,
,,,,,,,2023-10-18_17h54.41.341,vbt_B1_day2,2022.2.4,Win32,60.32818533,,,,,,,,,,,,,,,,,,,,,,,,,,,down,0,1.0836,,0.513333333,-0.119166667,1,0,0,0.4331,0,180,180,36,1,vuur,images/br_vuur.png,images/cb_vuur.png,0,,,,,,,,,,,,,,,,,,,,,,
,,,,,,,2023-10-18_17h54.41.341,vbt_B1_day2,2022.2.4,Win32,60.32818533,,,,,,,,,,,,,,,,,,,,,,,,,,,down,0,0.6179,,0.513333333,-0.119166667,1,0,0,0.6869,0,181,181,0,1,slak,images/br_slak.png,images/cb_slak.png,0,,,,,,,,,,,,,,,,,,,,,,
,,,,,,,2023-10-18_17h54.41.341,vbt_B1_day2,2022.2.4,Win32,60.32818533,,,,,,,,,,,,,,,,,,,,,,,,,,,down,0,0.0534,,0.513333333,-0.119166667,1,0,0,0.5552,0,182,182,54,1,gebit,images/br_gebit.png,images/cb_gebit.png,0,,,,,,,,,,,,,,,,,,,,,,
,,,,,,,2023-10-18_17h54.41.341,vbt_B1_day2,2022.2.4,Win32,60.32818533,,,,,,,,,,,,,,,,,,,,,,,,,,,down,0,1.0984,,0.513333333,-0.119166667,1,0,0,0.4505,0,183,183,121,1,twijfel,images/br_twijfel.png,images/cb_twijfel.png,0,,,,,,,,,,,,,,,,,,,,,,
,,,,,,,2023-10-18_17h54.41.341,vbt_B1_day2,2022.2.4,Win32,60.32818533,,,,,,,,,,,,,,,,,,,,,,,,,,,down,0,0.5353,,0.513333333,-0.119166667,1,0,0,0.6319,0,184,184,110,1,zuster,images/br_zuster.png,images/cb_zuster.png,0,,,,,,,,,,,,,,,,,,,,,,
,,,,,,,2023-10-18_17h54.41.341,vbt_B1_day2,2022.2.4,Win32,60.32818533,,,,,,,,,,,,,,,,,,,,,,,,,,,down,0,0.6162,,0.513333333,-0.119166667,1,0,0,0.8614,0,185,185,132,1,grappen,images/br_grappen.png,images/cb_grappen.png,0,,,,,,,,,,,,,,,,,,,,,,
,,,,,,,2023-10-18_17h54.41.341,vbt_B1_day2,2022.2.4,Win32,60.32818533,,,,,,,,,,,,,,,,,,,,,,,,,,,down,0,4.0678,,0.516666667,-0.115,1,0,0,2.3551,0,186,186,144,1,eetlust,images/br_eetlust.png,images/cb_eetlust.png,0,,,,,,,,,,,,,,,,,,,,,,
,,,,,,,2023-10-18_17h54.41.341,vbt_B1_day2,2022.2.4,Win32,60.32818533,,,,,,,,,,,,,,,,,,,,,,,,,,,down,0,3.764,,0.516666667,-0.115,1,0,0,5.2992,0,187,187,111,1,ticket,images/br_ticket.png,images/cb_ticket.png,0,,,,,,,,,,,,,,,,,,,,,,
,,,,,,,2023-10-18_17h54.41.341,vbt_B1_day2,2022.2.4,Win32,60.32818533,,,,,,,,,,,,,,,,,,,,,,,,,,,down,0,1.4551,,0.516666667,-0.115,1,0,0,1.2157,0,188,188,120,1,klimmen,images/br_klimmen.png,images/cb_klimmen.png,0,,,,,,,,,,,,,,,,,,,,,,
,,,,,,,2023-10-18_17h54.41.341,vbt_B1_day2,2022.2.4,Win32,60.32818533,,,,,,,,,,,,,,,,,,,,,,,,,,,down,0,38.5069,,0.516666667,-0.115,1,0,0,38.9177,0,189,189,199,1,beseffen,images/br_beseffen.png,images/cb_beseffen.png,0,,,,,,,,,,,,,,,,,,,,,,
,,,,,,,2023-10-18_17h54.41.341,vbt_B1_day2,2022.2.4,Win32,60.32818533,,,,,,,,,,,,,,,,,,,,,,,,,,,down,0,1.5368,,0.516666667,-0.115,1,0,0,2.5217,0,190,190,197,1,spanning,images/br_spanning.png,images/cb_spanning.png,0,,,,,,,,,,,,,,,,,,,,,,
,,,,,,,2023-10-18_17h54.41.341,vbt_B1_day2,2022.2.4,Win32,60.32818533,,,,,,,,,,,,,,,,,,,,,,,,,,,down,0,2.172,,0.516666667,-0.115,1,0,0,1.2178,0,191,191,56,1,traag,images/br_traag.png,images/cb_traag.png,1,traag,,,,,,,,,,,,,,,,,,,,,
,,,,,,,2023-10-18_17h54.41.341,vbt_B1_day2,2022.2.4,Win32,60.32818533,,,,,,,,,,,,,,,,,,,,,,,,,,,down,0,3.977,,0.516666667,-0.115,1,0,0,2.3698,0,192,192,167,1,eenhoorn,images/br_eenhoorn.png,images/cb_eenhoorn.png,0,,,,,,,,,,,,,,,,,,,,,,
,,,,,,,2023-10-18_17h54.41.341,vbt_B1_day2,2022.2.4,Win32,60.32818533,,,,,,,,,,,,,,,,,,,,,,,,,,,down,0,0.3659,,0.516666667,-0.115,1,0,0,0.6615,0,193,193,86,1,woning,images/br_woning.png,images/cb_woning.png,0,,,,,,,,,,,,,,,,,,,,,,
,,,,,,,2023-10-18_17h54.41.341,vbt_B1_day2,2022.2.4,Win32,60.32818533,,,,,,,,,,,,,,,,,,,,,,,,,,,down,0,4.3715,,0.516666667,-0.115,1,0,0,0.383,0,194,194,59,1,kring,images/br_kring.png,images/cb_kring.png,1,kreng,,,,,,,,,,,,,,,,,,,,,
,,,,,,,2023-10-18_17h54.41.341,vbt_B1_day2,2022.2.4,Win32,60.32818533,,,,,,,,,,,,,,,,,,,,,,,,,,,down,0,1.9047,,0.516666667,-0.115,1,0,0,1.5497,0,195,195,150,1,gegeven,images/br_gegeven.png,images/cb_gegeven.png,0,,,,,,,,,,,,,,,,,,,,,,
,,,,,,,2023-10-18_17h54.41.341,vbt_B1_day2,2022.2.4,Win32,60.32818533,,,,,,,,,,,,,,,,,,,,,,,,,,,down,0,0.6121,,0.516666667,-0.115,1,0,0,0.7994,0,196,196,125,1,aanzien,images/br_aanzien.png,images/cb_aanzien.png,0,,,,,,,,,,,,,,,,,,,,,,
,,,,,,,2023-10-18_17h54.41.341,vbt_B1_day2,2022.2.4,Win32,60.32818533,,,,,,,,,,,,,,,,,,,,,,,,,,,down,0,0.1845,,0.516666667,-0.115,1,0,0,0.6329,0,197,197,83,1,mening,images/br_mening.png,images/cb_mening.png,0,,,,,,,,,,,,,,,,,,,,,,
,,,,,,,2023-10-18_17h54.41.341,vbt_B1_day2,2022.2.4,Win32,60.32818533,,,,,,,,,,,,,,,,,,,,,,,,,,,down,0,0.3713,,0.516666667,-0.115,1,0,0,0.7171,0,198,198,131,1,opzicht,images/br_opzicht.png,images/cb_opzicht.png,0,,,,,,,,,,,,,,,,,,,,,,
,,,,,,,2023-10-18_17h54.41.341,vbt_B1_day2,2022.2.4,Win32,60.32818533,,,,,,,,,,,,,,,,,,,,,,,,,,,down,0,0.8051,,0.516666667,-0.115,1,0,0,0.65,0,199,199,66,1,lever,images/br_lever.png,images/cb_lever.png,0,,,,,,,,,,,,,,,,,,,,,,
,,,,,,,2023-10-18_17h54.41.341,vbt_B1_day2,2022.2.4,Win32,60.32818533,,,,,,,,,,,,,,,,,,,,,,,,,,,,,,,,,,,,,,,,,,,,,,,0.516666667,-0.115,1,0,0,,,,,,,,,,,,,,,,
,,,,,,,2023-10-18_17h54.41.341,vbt_B1_day2,2022.2.4,Win32,60.32818533,,,,,,,,,,,,,,,,,,,,,,,,,,,,,,,,,,,,,,,,,,,,,,,,,,,,0.516666667,-0.115,1,0,0,,,,,,,,,,,
,,,,,,,2023-10-18_17h54.41.341,vbt_B1_day2,2022.2.4,Win32,60.32818533,,,,,,,,,,,,,,,,,,,,,,,,,,,,,,,,,,,,,,,,,,diep,images/br_diep.png,images/cb_diep.png,,diep,,,,,,,,,,,0.366666667,-0.174166667,1,0,0,diep,0,0,0,2,1
,,,,,,,2023-10-18_17h54.41.341,vbt_B1_day2,2022.2.4,Win32,60.32818533,,,,,,,,,,,,,,,,,,,,,,,,,,,,,,,,,,,,,,,,,,ophuimen,images/br_ophuimen.png,images/cb_ophuimen.png,,opruimen,,,,,,,,,,,0.434166667,-0.175833333,1,0,0,opruimen,0,1,1,36,1
,,,,,,,2023-10-18_17h54.41.341,vbt_B1_day2,2022.2.4,Win32,60.32818533,,,,,,,,,,,,,,,,,,,,,,,,,,,,,,,,,,,,,,,,,,kijlen,images/br_kijlen.png,images/cb_kijlen.png,,keilijk,,,,,,,,,,,0.468333333,-0.160833333,1,0,0,keilijk,0,2,2,31,1
,,,,,,,2023-10-18_17h54.41.341,vbt_B1_day2,2022.2.4,Win32,60.32818533,,,,,,,,,,,,,,,,,,,,,,,,,,,,,,,,,,,,,,,,,,eenhoorn,images/br_eenhoorn.png,images/cb_eenhoorn.png,,eenhoorn,,,,,,,,,,,0.468333333,-0.160833333,1,0,0,eenhoorn,0,3,3,19,1
,,,,,,,2023-10-18_17h54.41.341,vbt_B1_day2,2022.2.4,Win32,60.32818533,,,,,,,,,,,,,,,,,,,,,,,,,,,,,,,,,,,,,,,,,,lokken,images/br_lokken.png,images/cb_lokken.png,,lokken,,,,,,,,,,,0.62,-0.095,1,0,0,lokken,0,4,4,8,1
,,,,,,,2023-10-18_17h54.41.341,vbt_B1_day2,2022.2.4,Win32,60.32818533,,,,,,,,,,,,,,,,,,,,,,,,,,,,,,,,,,,,,,,,,,doodmoe,images/br_doodmoe.png,images/cb_doodmoe.png,,doodmoe,,,,,,,,,,,0.62,-0.095,1,0,0,doodmoe,0,5,5,15,1
,,,,,,,2023-10-18_17h54.41.341,vbt_B1_day2,2022.2.4,Win32,60.32818533,,,,,,,,,,,,,,,,,,,,,,,,,,,,,,,,,,,,,,,,,,zomers,images/br_zomers.png,images/cb_zomers.png,,zomers,,,,,,,,,,,0.62,-0.095,1,0,0,zomers,0,6,6,48,1
,,,,,,,2023-10-18_17h54.41.341,vbt_B1_day2,2022.2.4,Win32,60.32818533,,,,,,,,,,,,,,,,,,,,,,,,,,,,,,,,,,,,,,,,,,tweeling,images/br_tweeling.png,images/cb_tweeling.png,,twaalf,,,,,,,,,,,0.62,-0.095,1,0,0,twaalf,0,7,7,58,1
,,,,,,,2023-10-18_17h54.41.341,vbt_B1_day2,2022.2.4,Win32,60.32818533,,,,,,,,,,,,,,,,,,,,,,,,,,,,,,,,,,,,,,,,,,koorts,images/br_koorts.png,images/cb_koorts.png,,koorts,,,,,,,,,,,0.62,-0.095,1,0,0,koorts,0,8,8,50,1
,,,,,,,2023-10-18_17h54.41.341,vbt_B1_day2,2022.2.4,Win32,60.32818533,,,,,,,,,,,,,,,,,,,,,,,,,,,,,,,,,,,,,,,,,,anarchie,images/br_anarchie.png,images/cb_anarchie.png,,anarchie,,,,,,,,,,,0.62,-0.095,1,0,0,anarchie,0,9,9,16,1
,,,,,,,2023-10-18_17h54.41.341,vbt_B1_day2,2022.2.4,Win32,60.32818533,,,,,,,,,,,,,,,,,,,,,,,,,,,,,,,,,,,,,,,,,,woning,images/br_woning.png,images/cb_woning.png,,woning,,,,,,,,,,,0.62,-0.095,1,0,0,woning,0,10,10,10,1
,,,,,,,2023-10-18_17h54.41.341,vbt_B1_day2,2022.2.4,Win32,60.32818533,,,,,,,,,,,,,,,,,,,,,,,,,,,,,,,,,,,,,,,,,,plannen,images/br_plannen.png,images/cb_plannen.png,,plannen,,,,,,,,,,,0.799166667,0.04,1,0,0,plannen,0,11,11,55,1
,,,,,,,2023-10-18_17h54.41.341,vbt_B1_day2,2022.2.4,Win32,60.32818533,,,,,,,,,,,,,,,,,,,,,,,,,,,,,,,,,,,,,,,,,,sjijfel,images/br_sjijfel.png,images/cb_sjijfel.png,,sjij,,,,,,,,,,,0.593333333,-0.094166667,1,0,0,sjij,0,12,12,33,1
,,,,,,,2023-10-18_17h54.41.341,vbt_B1_day2,2022.2.4,Win32,60.32818533,,,,,,,,,,,,,,,,,,,,,,,,,,,,,,,,,,,,,,,,,,geld,images/br_geld.png,images/cb_geld.png,,geld,,,,,,,,,,,0.593333333,-0.094166667,1,0,0,geld,0,13,13,3,1
,,,,,,,2023-10-18_17h54.41.341,vbt_B1_day2,2022.2.4,Win32,60.32818533,,,,,,,,,,,,,,,,,,,,,,,,,,,,,,,,,,,,,,,,,,moes,images/br_moes.png,images/cb_moes.png,,moes,,,,,,,,,,,0.593333333,-0.094166667,1,0,0,moes,0,14,14,0,1
,,,,,,,2023-10-18_17h54.41.341,vbt_B1_day2,2022.2.4,Win32,60.32818533,,,,,,,,,,,,,,,,,,,,,,,,,,,,,,,,,,,,,,,,,,zwager,images/br_zwager.png,images/cb_zwager.png,,zwager,,,,,,,,,,,0.593333333,-0.094166667,1,0,0,zwager,0,15,15,49,1
,,,,,,,2023-10-18_17h54.41.341,vbt_B1_day2,2022.2.4,Win32,60.32818533,,,,,,,,,,,,,,,,,,,,,,,,,,,,,,,,,,,,,,,,,,lurgen,images/br_lurgen.png,images/cb_lurgen.png,,l,,,,,,,,,,,0.593333333,-0.094166667,1,0,0,l,0,16,16,29,1
,,,,,,,2023-10-18_17h54.41.341,vbt_B1_day2,2022.2.4,Win32,60.32818533,,,,,,,,,,,,,,,,,,,,,,,,,,,,,,,,,,,,,,,,,,kabel,images/br_kabel.png,images/cb_kabel.png,,kabel,,,,,,,,,,,0.593333333,-0.094166667,1,0,0,kabel,0,17,17,7,1
,,,,,,,2023-10-18_17h54.41.341,vbt_B1_day2,2022.2.4,Win32,60.32818533,,,,,,,,,,,,,,,,,,,,,,,,,,,,,,,,,,,,,,,,,,wijve,images/br_wijve.png,images/cb_wijve.png,,wijve,,,,,,,,,,,0.593333333,-0.094166667,1,0,0,wijve,0,18,18,27,1
,,,,,,,2023-10-18_17h54.41.341,vbt_B1_day2,2022.2.4,Win32,60.32818533,,,,,,,,,,,,,,,,,,,,,,,,,,,,,,,,,,,,,,,,,,tand,images/br_tand.png,images/cb_tand.png,,tand,,,,,,,,,,,0.593333333,-0.094166667,1,0,0,tand,0,19,19,42,1
,,,,,,,2023-10-18_17h54.41.341,vbt_B1_day2,2022.2.4,Win32,60.32818533,,,,,,,,,,,,,,,,,,,,,,,,,,,,,,,,,,,,,,,,,,jagen,images/br_jagen.png,images/cb_jagen.png,,jagen,,,,,,,,,,,0.593333333,-0.094166667,1,0,0,jagen,0,20,20,6,1
,,,,,,,2023-10-18_17h54.41.341,vbt_B1_day2,2022.2.4,Win32,60.32818533,,,,,,,,,,,,,,,,,,,,,,,,,,,,,,,,,,,,,,,,,,blad,images/br_blad.png,images/cb_blad.png,,blad,,,,,,,,,,,0.593333333,-0.094166667,1,0,0,blad,0,21,21,1,1
,,,,,,,2023-10-18_17h54.41.341,vbt_B1_day2,2022.2.4,Win32,60.32818533,,,,,,,,,,,,,,,,,,,,,,,,,,,,,,,,,,,,,,,,,,badon,images/br_badon.png,images/cb_badon.png,,badon,,,,,,,,,,,0.593333333,-0.094166667,1,0,0,badon,0,22,22,26,1
,,,,,,,2023-10-18_17h54.41.341,vbt_B1_day2,2022.2.4,Win32,60.32818533,,,,,,,,,,,,,,,,,,,,,,,,,,,,,,,,,,,,,,,,,,clan,images/br_clan.png,images/cb_clan.png,,clan,,,,,,,,,,,0.593333333,-0.094166667,1,0,0,clan,0,23,23,40,1
,,,,,,,2023-10-18_17h54.41.341,vbt_B1_day2,2022.2.4,Win32,60.32818533,,,,,,,,,,,,,,,,,,,,,,,,,,,,,,,,,,,,,,,,,,prekken,images/br_prekken.png,images/cb_prekken.png,,prikken,,,,,,,,,,,0.441666667,-0.061666667,1,0,0,prikken,0,24,24,34,1
,,,,,,,2023-10-18_17h54.41.341,vbt_B1_day2,2022.2.4,Win32,60.32818533,,,,,,,,,,,,,,,,,,,,,,,,,,,,,,,,,,,,,,,,,,welzijn,images/br_welzijn.png,images/cb_welzijn.png,,w,,,,,,,,,,,0.645833333,-0.070833333,1,0,0,w,0,25,25,52,1
,,,,,,,2023-10-18_17h54.41.341,vbt_B1_day2,2022.2.4,Win32,60.32818533,,,,,,,,,,,,,,,,,,,,,,,,,,,,,,,,,,,,,,,,,,dode,images/br_dode.png,images/cb_dode.png,,dode,,,,,,,,,,,0.645833333,-0.070833333,1,0,0,dode,0,26,26,41,1
,,,,,,,2023-10-18_17h54.41.341,vbt_B1_day2,2022.2.4,Win32,60.32818533,,,,,,,,,,,,,,,,,,,,,,,,,,,,,,,,,,,,,,,,,,zegel,images/br_zegel.png,images/cb_zegel.png,,,,,,,,,,,,,0.645833333,-0.070833333,1,0,0,,0,27,27,46,1
,,,,,,,2023-10-18_17h54.41.341,vbt_B1_day2,2022.2.4,Win32,60.32818533,,,,,,,,,,,,,,,,,,,,,,,,,,,,,,,,,,,,,,,,,,flits,images/br_flits.png,images/cb_flits.png,,,,,,,,,,,,,0.645833333,-0.070833333,1,0,0,,0,28,28,4,1
,,,,,,,2023-10-18_17h54.41.341,vbt_B1_day2,2022.2.4,Win32,60.32818533,,,,,,,,,,,,,,,,,,,,,,,,,,,,,,,,,,,,,,,,,,lijnen,images/br_lijnen.png,images/cb_lijnen.png,,lijnen,,,,,,,,,,,0.554166667,-0.153333333,1,0,0,lijnen,0,29,29,51,1
,,,,,,,2023-10-18_17h54.41.341,vbt_B1_day2,2022.2.4,Win32,60.32818533,,,,,,,,,,,,,,,,,,,,,,,,,,,,,,,,,,,,,,,,,,bloeien,images/br_bloeien.png,images/cb_bloeien.png,,bloeien,,,,,,,,,,,0.758333333,-0.018333333,1,0,0,bloeien,0,30,30,12,1
,,,,,,,2023-10-18_17h54.41.341,vbt_B1_day2,2022.2.4,Win32,60.32818533,,,,,,,,,,,,,,,,,,,,,,,,,,,,,,,,,,,,,,,,,,remel,images/br_remel.png,images/cb_remel.png,,remil,,,,,,,,,,,0.758333333,-0.018333333,1,0,0,remil,0,31,31,25,1
,,,,,,,2023-10-18_17h54.41.341,vbt_B1_day2,2022.2.4,Win32,60.32818533,,,,,,,,,,,,,,,,,,,,,,,,,,,,,,,,,,,,,,,,,,agressie,images/br_agressie.png,images/cb_agressie.png,,agkuss,,,,,,,,,,,0.758333333,-0.018333333,1,0,0,agkuss,0,32,32,59,1
,,,,,,,2023-10-18_17h54.41.341,vbt_B1_day2,2022.2.4,Win32,60.32818533,,,,,,,,,,,,,,,,,,,,,,,,,,,,,,,,,,,,,,,,,,kenzis,images/br_kenzis.png,images/cb_kenzis.png,,kenzes,,,,,,,,,,,0.758333333,-0.018333333,1,0,0,kenzes,0,33,33,30,1
,,,,,,,2023-10-18_17h54.41.341,vbt_B1_day2,2022.2.4,Win32,60.32818533,,,,,,,,,,,,,,,,,,,,,,,,,,,,,,,,,,,,,,,,,,manieren,images/br_manieren.png,images/cb_manieren.png,,manieren,,,,,,,,,,,0.758333333,-0.018333333,1,0,0,manieren,0,34,34,56,1
,,,,,,,2023-10-18_17h54.41.341,vbt_B1_day2,2022.2.4,Win32,60.32818533,,,,,,,,,,,,,,,,,,,,,,,,,,,,,,,,,,,,,,,,,,thema,images/br_thema.png,images/cb_thema.png,,thema,,,,,,,,,,,0.758333333,-0.018333333,1,0,0,thema,0,35,35,47,1
,,,,,,,2023-10-18_17h54.41.341,vbt_B1_day2,2022.2.4,Win32,60.32818533,,,,,,,,,,,,,,,,,,,,,,,,,,,,,,,,,,,,,,,,,,strikken,images/br_strikken.png,images/cb_strikken.png,,strekken,,,,,,,,,,,0.758333333,-0.018333333,1,0,0,strekken,0,36,36,18,1
,,,,,,,2023-10-18_17h54.41.341,vbt_B1_day2,2022.2.4,Win32,60.32818533,,,,,,,,,,,,,,,,,,,,,,,,,,,,,,,,,,,,,,,,,,goon,images/br_goon.png,images/cb_goon.png,,goon,,,,,,,,,,,0.758333333,-0.018333333,1,0,0,goon,0,37,37,23,1
,,,,,,,2023-10-18_17h54.41.341,vbt_B1_day2,2022.2.4,Win32,60.32818533,,,,,,,,,,,,,,,,,,,,,,,,,,,,,,,,,,,,,,,,,,trots,images/br_trots.png,images/cb_trots.png,,trots,,,,,,,,,,,0.758333333,-0.018333333,1,0,0,trots,0,38,38,44,1
,,,,,,,2023-10-18_17h54.41.341,vbt_B1_day2,2022.2.4,Win32,60.32818533,,,,,,,,,,,,,,,,,,,,,,,,,,,,,,,,,,,,,,,,,,krimmen,images/br_krimmen.png,images/cb_krimmen.png,,krimmen,,,,,,,,,,,0.758333333,-0.018333333,1,0,0,krimmen,0,39,39,35,1
,,,,,,,2023-10-18_17h54.41.341,vbt_B1_day2,2022.2.4,Win32,60.32818533,,,,,,,,,,,,,,,,,,,,,,,,,,,,,,,,,,,,,,,,,,joes,images/br_joes.png,images/cb_joes.png,,joes,,,,,,,,,,,0.758333333,-0.018333333,1,0,0,joes,0,40,40,20,1
,,,,,,,2023-10-18_17h54.41.341,vbt_B1_day2,2022.2.4,Win32,60.32818533,,,,,,,,,,,,,,,,,,,,,,,,,,,,,,,,,,,,,,,,,,heilig,images/br_heilig.png,images/cb_heilig.png,,heilig,,,,,,,,,,,0.758333333,-0.018333333,1,0,0,heilig,0,41,41,9,1
,,,,,,,2023-10-18_17h54.41.341,vbt_B1_day2,2022.2.4,Win32,60.32818533,,,,,,,,,,,,,,,,,,,,,,,,,,,,,,,,,,,,,,,,,,aanvraag,images/br_aanvraag.png,images/cb_aanvraag.png,,aanvraag,,,,,,,,,,,0.758333333,-0.018333333,1,0,0,aanvraag,0,42,42,57,1
,,,,,,,2023-10-18_17h54.41.341,vbt_B1_day2,2022.2.4,Win32,60.32818533,,,,,,,,,,,,,,,,,,,,,,,,,,,,,,,,,,,,,,,,,,aanzien,images/br_aanzien.png,images/cb_aanzien.png,,aanzien,,,,,,,,,,,0.758333333,-0.018333333,1,0,0,aanzien,0,43,43,13,1
,,,,,,,2023-10-18_17h54.41.341,vbt_B1_day2,2022.2.4,Win32,60.32818533,,,,,,,,,,,,,,,,,,,,,,,,,,,,,,,,,,,,,,,,,,jong,images/br_jong.png,images/cb_jong.png,,jong,,,,,,,,,,,0.758333333,-0.018333333,1,0,0,jong,0,44,44,43,1
,,,,,,,2023-10-18_17h54.41.341,vbt_B1_day2,2022.2.4,Win32,60.32818533,,,,,,,,,,,,,,,,,,,,,,,,,,,,,,,,,,,,,,,,,,systeem,images/br_systeem.png,images/cb_systeem.png,,systeem,,,,,,,,,,,0.758333333,-0.018333333,1,0,0,systeem,0,45,45,54,1
,,,,,,,2023-10-18_17h54.41.341,vbt_B1_day2,2022.2.4,Win32,60.32818533,,,,,,,,,,,,,,,,,,,,,,,,,,,,,,,,,,,,,,,,,,sifferd,images/br_sifferd.png,images/cb_sifferd.png,,sifferd,,,,,,,,,,,0.758333333,-0.018333333,1,0,0,sifferd,0,46,46,32,1
,,,,,,,2023-10-18_17h54.41.341,vbt_B1_day2,2022.2.4,Win32,60.32818533,,,,,,,,,,,,,,,,,,,,,,,,,,,,,,,,,,,,,,,,,,sora,images/br_sora.png,images/cb_sora.png,,sora,,,,,,,,,,,0.758333333,-0.018333333,1,0,0,sora,0,47,47,22,1
,,,,,,,2023-10-18_17h54.41.341,vbt_B1_day2,2022.2.4,Win32,60.32818533,,,,,,,,,,,,,,,,,,,,,,,,,,,,,,,,,,,,,,,,,,toeval,images/br_toeval.png,images/cb_toeval.png,,toeval,,,,,,,,,,,0.799166667,0.193333333,1,0,0,toeval,0,48,48,11,1
,,,,,,,2023-10-18_17h54.41.341,vbt_B1_day2,2022.2.4,Win32,60.32818533,,,,,,,,,,,,,,,,,,,,,,,,,,,,,,,,,,,,,,,,,,ningen,images/br_ningen.png,images/cb_ningen.png,,ning.,,,,,,,,,,,0.799166667,0.193333333,1,0,0,ning.,0,49,49,28,1
,,,,,,,2023-10-18_17h54.41.341,vbt_B1_day2,2022.2.4,Win32,60.32818533,,,,,,,,,,,,,,,,,,,,,,,,,,,,,,,,,,,,,,,,,,feestdag,images/br_feestdag.png,images/cb_feestdag.png,,feestdag,,,,,,,,,,,0.799166667,0.193333333,1,0,0,feestdag,0,50,50,17,1
,,,,,,,2023-10-18_17h54.41.341,vbt_B1_day2,2022.2.4,Win32,60.32818533,,,,,,,,,,,,,,,,,,,,,,,,,,,,,,,,,,,,,,,,,,breuk,images/br_breuk.png,images/cb_breuk.png,,breuk,,,,,,,,,,,0.799166667,0.193333333,1,0,0,breuk,0,51,51,45,1
,,,,,,,2023-10-18_17h54.41.341,vbt_B1_day2,2022.2.4,Win32,60.32818533,,,,,,,,,,,,,,,,,,,,,,,,,,,,,,,,,,,,,,,,,,heengeen,images/br_heengeen.png,images/cb_heengeen.png,,heengaan,,,,,,,,,,,0.799166667,0.193333333,1,0,0,heengaan,0,52,52,38,1
,,,,,,,2023-10-18_17h54.41.341,vbt_B1_day2,2022.2.4,Win32,60.32818533,,,,,,,,,,,,,,,,,,,,,,,,,,,,,,,,,,,,,,,,,,opdatten,images/br_opdatten.png,images/cb_opdatten.png,,opdatt,,,,,,,,,,,0.653333333,0.165,1,0,0,opdatt,0,53,53,37,1
,,,,,,,2023-10-18_17h54.41.341,vbt_B1_day2,2022.2.4,Win32,60.32818533,,,,,,,,,,,,,,,,,,,,,,,,,,,,,,,,,,,,,,,,,,inzicht,images/br_inzicht.png,images/cb_inzicht.png,,inzicht,,,,,,,,,,,0.653333333,0.165,1,0,0,inzicht,0,54,54,53,1
,,,,,,,2023-10-18_17h54.41.341,vbt_B1_day2,2022.2.4,Win32,60.32818533,,,,,,,,,,,,,,,,,,,,,,,,,,,,,,,,,,,,,,,,,,negel,images/br_negel.png,images/cb_negel.png,,zegel,,,,,,,,,,,0.653333333,0.165,1,0,0,zegel,0,55,55,24,1
,,,,,,,2023-10-18_17h54.41.341,vbt_B1_day2,2022.2.4,Win32,60.32818533,,,,,,,,,,,,,,,,,,,,,,,,,,,,,,,,,,,,,,,,,,stes,images/br_stes.png,images/cb_stes.png,,stes,,,,,,,,,,,0.653333333,0.165,1,0,0,stes,0,56,56,21,1
,,,,,,,2023-10-18_17h54.41.341,vbt_B1_day2,2022.2.4,Win32,60.32818533,,,,,,,,,,,,,,,,,,,,,,,,,,,,,,,,,,,,,,,,,,bereuwen,images/br_bereuwen.png,images/cb_bereuwen.png,,bereuw..,,,,,,,,,,,0.6525,0.165,1,0,0,bereuw..,0,57,57,39,1
,,,,,,,2023-10-18_17h54.41.341,vbt_B1_day2,2022.2.4,Win32,60.32818533,,,,,,,,,,,,,,,,,,,,,,,,,,,,,,,,,,,,,,,,,,piste,images/br_piste.png,images/cb_piste.png,,piste,,,,,,,,,,,0.6525,0.165,1,0,0,piste,0,58,58,5,1
,,,,,,,2023-10-18_17h54.41.341,vbt_B1_day2,2022.2.4,Win32,60.32818533,,,,,,,,,,,,,,,,,,,,,,,,,,,,,,,,,,,,,,,,,,kasteel,images/br_kasteel.png,images/cb_kasteel.png,,kasteel,,,,,,,,,,,0.6525,0.165,1,0,0,kasteel,0,59,59,14,1
,,,,,,,2023-10-18_17h54.41.341,vbt_B1_day2,2022.2.4,Win32,60.32818533,,,,,,,,,,,,,,,,,,,,,,,,,,,,,,,,,,,,,,,,,,,,,,,,,,,,,,,,,,,,,,,,,,,
