welcome_mouse.x,welcome_mouse.y,welcome_mouse.leftButton,welcome_mouse.midButton,welcome_mouse.rightButton,welcome_mouse.time,"ID",date,expName,psychopyVersion,OS,frameRate,refresh_mouse.x,refresh_mouse.y,refresh_mouse.leftButton,refresh_mouse.midButton,refresh_mouse.rightButton,refresh_mouse.time,braille_mouse.x,braille_mouse.y,braille_mouse.leftButton,braille_mouse.midButton,braille_mouse.rightButton,braille_mouse.time,trials.thisRepN,trials.thisTrialN,trials.thisN,trials.thisIndex,trials.ran,nlLet,brLet,cbLet,trainInstr_mouse.x,trainInstr_mouse.y,trainInstr_mouse.leftButton,trainInstr_mouse.midButton,trainInstr_mouse.rightButton,trainInstr_mouse.time,translation_key.keys,translation_key.corr,translation_key.rt,testResp,word_rsp.text,word_mouse.x,word_mouse.y,word_mouse.leftButton,word_mouse.midButton,word_mouse.rightButton,word_mouse.time,train_loop.thisRepN,train_loop.thisTrialN,train_loop.thisN,train_loop.thisIndex,train_loop.ran,nlWrd,brWrd,cbWrd,test,mouse.x,mouse.y,mouse.leftButton,mouse.midButton,mouse.rightButton,testInstr_mouse.x,testInstr_mouse.y,testInstr_mouse.leftButton,testInstr_mouse.midButton,testInstr_mouse.rightButton,test_mouse.x,test_mouse.y,test_mouse.leftButton,test_mouse.midButton,test_mouse.rightButton,test_response.text,test_loop.thisRepN,test_loop.thisTrialN,test_loop.thisN,test_loop.thisIndex,test_loop.ran
-0.192592578,-0.288888889,1,0,0,15.573,00019,2023-08-22_23h26.38.607,vbt_B1_day2,2022.2.4,Win32,60.16485169,,,,,,,,,,,,,,,,,,,,,,,,,,,,,,,,,,,,,,,,,,,,,,,,,,,,,,,,,,,,,,,,,,,
,,,,,,00019,2023-08-22_23h26.38.607,vbt_B1_day2,2022.2.4,Win32,60.16485169,-0.192592578,-0.288888889,1,0,0,10.8836,,,,,,,,,,,,,,,,,,,,,,,,,,,,,,,,,,,,,,,,,,,,,,,,,,,,,,,,,,,,,
,,,,,,00019,2023-08-22_23h26.38.607,vbt_B1_day2,2022.2.4,Win32,60.16485169,,,,,,,-0.192592578,-0.288888889,1,0,0,1.1168,0,0,0,23,1,x,images/br_x.png,images/cb_x.png,,,,,,,,,,,,,,,,,,,,,,,,,,,,,,,,,,,,,,,,,,,,,,,
,,,,,,00019,2023-08-22_23h26.38.607,vbt_B1_day2,2022.2.4,Win32,60.16485169,,,,,,,-0.192592578,-0.288888889,1,0,0,11.2408,0,1,1,22,1,w,images/br_w.png,images/cb_w.png,,,,,,,,,,,,,,,,,,,,,,,,,,,,,,,,,,,,,,,,,,,,,,,
,,,,,,00019,2023-08-22_23h26.38.607,vbt_B1_day2,2022.2.4,Win32,60.16485169,,,,,,,-0.192592578,-0.288888889,1,0,0,0.3331,0,2,2,0,1,a,images/br_a.png,images/cb_a.png,,,,,,,,,,,,,,,,,,,,,,,,,,,,,,,,,,,,,,,,,,,,,,,
,,,,,,00019,2023-08-22_23h26.38.607,vbt_B1_day2,2022.2.4,Win32,60.16485169,,,,,,,-0.192592578,-0.288888889,1,0,0,0.5149,0,3,3,25,1,z,images/br_z.png,images/cb_z.png,,,,,,,,,,,,,,,,,,,,,,,,,,,,,,,,,,,,,,,,,,,,,,,
,,,,,,00019,2023-08-22_23h26.38.607,vbt_B1_day2,2022.2.4,Win32,60.16485169,,,,,,,-0.192592578,-0.288888889,1,0,0,0.3497,0,4,4,15,1,p,images/br_p.png,images/cb_p.png,,,,,,,,,,,,,,,,,,,,,,,,,,,,,,,,,,,,,,,,,,,,,,,
,,,,,,00019,2023-08-22_23h26.38.607,vbt_B1_day2,2022.2.4,Win32,60.16485169,,,,,,,-0.192592578,-0.288888889,1,0,0,2.0993,0,5,5,20,1,u,images/br_u.png,images/cb_u.png,,,,,,,,,,,,,,,,,,,,,,,,,,,,,,,,,,,,,,,,,,,,,,,
,,,,,,00019,2023-08-22_23h26.38.607,vbt_B1_day2,2022.2.4,Win32,60.16485169,,,,,,,-0.192592578,-0.288888889,1,0,0,2.2341,0,6,6,11,1,l,images/br_l.png,images/cb_l.png,,,,,,,,,,,,,,,,,,,,,,,,,,,,,,,,,,,,,,,,,,,,,,,
,,,,,,00019,2023-08-22_23h26.38.607,vbt_B1_day2,2022.2.4,Win32,60.16485169,,,,,,,-0.192592578,-0.288888889,1,0,0,3.6335,0,7,7,10,1,k,images/br_k.png,images/cb_k.png,,,,,,,,,,,,,,,,,,,,,,,,,,,,,,,,,,,,,,,,,,,,,,,
,,,,,,00019,2023-08-22_23h26.38.607,vbt_B1_day2,2022.2.4,Win32,60.16485169,,,,,,,-0.192592578,-0.288888889,1,0,0,3.5331,0,8,8,16,1,q,images/br_q.png,images/cb_q.png,,,,,,,,,,,,,,,,,,,,,,,,,,,,,,,,,,,,,,,,,,,,,,,
,,,,,,00019,2023-08-22_23h26.38.607,vbt_B1_day2,2022.2.4,Win32,60.16485169,,,,,,,-0.192592578,-0.288888889,1,0,0,1.8151,0,9,9,14,1,o,images/br_o.png,images/cb_o.png,,,,,,,,,,,,,,,,,,,,,,,,,,,,,,,,,,,,,,,,,,,,,,,
,,,,,,00019,2023-08-22_23h26.38.607,vbt_B1_day2,2022.2.4,Win32,60.16485169,,,,,,,-0.192592578,-0.288888889,1,0,0,8.3264,0,10,10,3,1,d,images/br_d.png,images/cb_d.png,,,,,,,,,,,,,,,,,,,,,,,,,,,,,,,,,,,,,,,,,,,,,,,
,,,,,,00019,2023-08-22_23h26.38.607,vbt_B1_day2,2022.2.4,Win32,60.16485169,,,,,,,-0.192592578,-0.288888889,1,0,0,1.7659,0,11,11,4,1,e,images/br_e.png,images/cb_e.png,,,,,,,,,,,,,,,,,,,,,,,,,,,,,,,,,,,,,,,,,,,,,,,
,,,,,,00019,2023-08-22_23h26.38.607,vbt_B1_day2,2022.2.4,Win32,60.16485169,,,,,,,-0.192592578,-0.288888889,1,0,0,8.6764,0,12,12,24,1,y,images/br_y.png,images/cb_y.png,,,,,,,,,,,,,,,,,,,,,,,,,,,,,,,,,,,,,,,,,,,,,,,
,,,,,,00019,2023-08-22_23h26.38.607,vbt_B1_day2,2022.2.4,Win32,60.16485169,,,,,,,-0.192592578,-0.288888889,1,0,0,4.1798,0,13,13,9,1,j,images/br_j.png,images/cb_j.png,,,,,,,,,,,,,,,,,,,,,,,,,,,,,,,,,,,,,,,,,,,,,,,
,,,,,,00019,2023-08-22_23h26.38.607,vbt_B1_day2,2022.2.4,Win32,60.16485169,,,,,,,-0.192592578,-0.288888889,1,0,0,4.7489,0,14,14,2,1,c,images/br_c.png,images/cb_c.png,,,,,,,,,,,,,,,,,,,,,,,,,,,,,,,,,,,,,,,,,,,,,,,
,,,,,,00019,2023-08-22_23h26.38.607,vbt_B1_day2,2022.2.4,Win32,60.16485169,,,,,,,-0.192592578,-0.288888889,1,0,0,4.0467,0,15,15,12,1,m,images/br_m.png,images/cb_m.png,,,,,,,,,,,,,,,,,,,,,,,,,,,,,,,,,,,,,,,,,,,,,,,
,,,,,,00019,2023-08-22_23h26.38.607,vbt_B1_day2,2022.2.4,Win32,60.16485169,,,,,,,-0.192592578,-0.288888889,1,0,0,0.1834,0,16,16,17,1,r,images/br_r.png,images/cb_r.png,,,,,,,,,,,,,,,,,,,,,,,,,,,,,,,,,,,,,,,,,,,,,,,
,,,,,,00019,2023-08-22_23h26.38.607,vbt_B1_day2,2022.2.4,Win32,60.16485169,,,,,,,-0.192592578,-0.288888889,1,0,0,0.4997,0,17,17,21,1,v,images/br_v.png,images/cb_v.png,,,,,,,,,,,,,,,,,,,,,,,,,,,,,,,,,,,,,,,,,,,,,,,
,,,,,,00019,2023-08-22_23h26.38.607,vbt_B1_day2,2022.2.4,Win32,60.16485169,,,,,,,-0.192592578,-0.288888889,1,0,0,0.6351,0,18,18,8,1,i,images/br_i.png,images/cb_i.png,,,,,,,,,,,,,,,,,,,,,,,,,,,,,,,,,,,,,,,,,,,,,,,
,,,,,,00019,2023-08-22_23h26.38.607,vbt_B1_day2,2022.2.4,Win32,60.16485169,,,,,,,-0.192592578,-0.288888889,1,0,0,11.457,0,19,19,13,1,n,images/br_n.png,images/cb_n.png,,,,,,,,,,,,,,,,,,,,,,,,,,,,,,,,,,,,,,,,,,,,,,,
,,,,,,00019,2023-08-22_23h26.38.607,vbt_B1_day2,2022.2.4,Win32,60.16485169,,,,,,,-0.192592578,-0.288888889,1,0,0,1.5478,0,20,20,19,1,t,images/br_t.png,images/cb_t.png,,,,,,,,,,,,,,,,,,,,,,,,,,,,,,,,,,,,,,,,,,,,,,,
,,,,,,00019,2023-08-22_23h26.38.607,vbt_B1_day2,2022.2.4,Win32,60.16485169,,,,,,,-0.192592578,-0.288888889,1,0,0,3.25,0,21,21,5,1,f,images/br_f.png,images/cb_f.png,,,,,,,,,,,,,,,,,,,,,,,,,,,,,,,,,,,,,,,,,,,,,,,
,,,,,,00019,2023-08-22_23h26.38.607,vbt_B1_day2,2022.2.4,Win32,60.16485169,,,,,,,-0.192592578,-0.288888889,1,0,0,1.6002,0,22,22,6,1,g,images/br_g.png,images/cb_g.png,,,,,,,,,,,,,,,,,,,,,,,,,,,,,,,,,,,,,,,,,,,,,,,
,,,,,,00019,2023-08-22_23h26.38.607,vbt_B1_day2,2022.2.4,Win32,60.16485169,,,,,,,-0.192592578,-0.288888889,1,0,0,0.4497,0,23,23,1,1,b,images/br_b.png,images/cb_b.png,,,,,,,,,,,,,,,,,,,,,,,,,,,,,,,,,,,,,,,,,,,,,,,
,,,,,,00019,2023-08-22_23h26.38.607,vbt_B1_day2,2022.2.4,Win32,60.16485169,,,,,,,-0.192592578,-0.288888889,1,0,0,2.8629,0,24,24,7,1,h,images/br_h.png,images/cb_h.png,,,,,,,,,,,,,,,,,,,,,,,,,,,,,,,,,,,,,,,,,,,,,,,
,,,,,,00019,2023-08-22_23h26.38.607,vbt_B1_day2,2022.2.4,Win32,60.16485169,,,,,,,-0.192592578,-0.288888889,1,0,0,8.0128,0,25,25,18,1,s,images/br_s.png,images/cb_s.png,,,,,,,,,,,,,,,,,,,,,,,,,,,,,,,,,,,,,,,,,,,,,,,
,,,,,,00019,2023-08-22_23h26.38.607,vbt_B1_day2,2022.2.4,Win32,60.16485169,,,,,,,,,,,,,,,,,,,,,-0.192592578,-0.288888889,1,0,0,28.1553,,,,,,,,,,,,,,,,,,,,,,,,,,,,,,,,,,,,,,,,,
,,,,,,00019,2023-08-22_23h26.38.607,vbt_B1_day2,2022.2.4,Win32,60.16485169,,,,,,,,,,,,,,,,,,,,,,,,,,,down,0,54.8909,techniek,,-0.419444444,-0.203703732,1,0,0,3.0143,0,0,0,176,1,techniek,images/br_techniek.png,images/cb_techniek.png,1,,,,,,,,,,,,,,,,,,,,,
,,,,,,00019,2023-08-22_23h26.38.607,vbt_B1_day2,2022.2.4,Win32,60.16485169,,,,,,,,,,,,,,,,,,,,,,,,,,,down,0,34.8583,.teek,,-0.419444444,-0.203703732,1,0,0,4.8319,0,1,1,57,1,steek,images/br_steek.png,images/cb_steek.png,1,,,,,,,,,,,,,,,,,,,,,
,,,,,,00019,2023-08-22_23h26.38.607,vbt_B1_day2,2022.2.4,Win32,60.16485169,,,,,,,,,,,,,,,,,,,,,,,,,,,down,0,16.2851,,,-0.419444444,-0.203703732,1,0,0,2.4307,0,2,2,45,1,piste,images/br_piste.png,images/cb_piste.png,0,,,,,,,,,,,,,,,,,,,,,
,,,,,,00019,2023-08-22_23h26.38.607,vbt_B1_day2,2022.2.4,Win32,60.16485169,,,,,,,,,,,,,,,,,,,,,,,,,,,down,0,7.7429,,,-0.419444444,-0.203703732,1,0,0,0.8973,0,3,3,173,1,apparaat,images/br_apparaat.png,images/cb_apparaat.png,0,,,,,,,,,,,,,,,,,,,,,
,,,,,,00019,2023-08-22_23h26.38.607,vbt_B1_day2,2022.2.4,Win32,60.16485169,,,,,,,,,,,,,,,,,,,,,,,,,,,down,0,17.7335,,,-0.419444444,-0.203703732,1,0,0,0.8329,0,4,4,79,1,nodig,images/br_nodig.png,images/cb_nodig.png,0,,,,,,,,,,,,,,,,,,,,,
,,,,,,00019,2023-08-22_23h26.38.607,vbt_B1_day2,2022.2.4,Win32,60.16485169,,,,,,,,,,,,,,,,,,,,,,,,,,,down,0,6.8038,,,-0.419444444,-0.203703732,1,0,0,0.5658,0,5,5,78,1,leren,images/br_leren.png,images/cb_leren.png,0,,,,,,,,,,,,,,,,,,,,,
,,,,,,00019,2023-08-22_23h26.38.607,vbt_B1_day2,2022.2.4,Win32,60.16485169,,,,,,,,,,,,,,,,,,,,,,,,,,,down,0,4.5377,,,-0.419444444,-0.203703732,1,0,0,0.8681,0,6,6,36,1,vuur,images/br_vuur.png,images/cb_vuur.png,0,,,,,,,,,,,,,,,,,,,,,
,,,,,,00019,2023-08-22_23h26.38.607,vbt_B1_day2,2022.2.4,Win32,60.16485169,,,,,,,,,,,,,,,,,,,,,,,,,,,down,0,30.1248,,,-0.419444444,-0.203703732,1,0,0,3.495,0,7,7,116,1,besmet,images/br_besmet.png,images/cb_besmet.png,0,,,,,,,,,,,,,,,,,,,,,
,,,,,,00019,2023-08-22_23h26.38.607,vbt_B1_day2,2022.2.4,Win32,60.16485169,,,,,,,,,,,,,,,,,,,,,,,,,,,down,0,21.3993,,,-0.419444444,-0.203703732,1,0,0,2.1127,0,8,8,63,1,flirt,images/br_flirt.png,images/cb_flirt.png,0,,,,,,,,,,,,,,,,,,,,,
,,,,,,00019,2023-08-22_23h26.38.607,vbt_B1_day2,2022.2.4,Win32,60.16485169,,,,,,,,,,,,,,,,,,,,,,,,,,,down,0,8.464,,,-0.419444444,-0.203703732,1,0,0,0.5848,0,9,9,30,1,uien,images/br_uien.png,images/cb_uien.png,0,,,,,,,,,,,,,,,,,,,,,
,,,,,,00019,2023-08-22_23h26.38.607,vbt_B1_day2,2022.2.4,Win32,60.16485169,,,,,,,,,,,,,,,,,,,,,,,,,,,down,0,12.4129,,,-0.419444444,-0.203703732,1,0,0,0.6694,0,10,10,68,1,schat,images/br_schat.png,images/cb_schat.png,0,,,,,,,,,,,,,,,,,,,,,
,,,,,,00019,2023-08-22_23h26.38.607,vbt_B1_day2,2022.2.4,Win32,60.16485169,,,,,,,,,,,,,,,,,,,,,,,,,,,down,0,8.4595,,,-0.419444444,-0.203703732,1,0,0,0.7494,0,11,11,164,1,anarchie,images/br_anarchie.png,images/cb_anarchie.png,0,,,,,,,,,,,,,,,,,,,,,
,,,,,,00019,2023-08-22_23h26.38.607,vbt_B1_day2,2022.2.4,Win32,60.16485169,,,,,,,,,,,,,,,,,,,,,,,,,,,down,0,16.5912,huisdier,,-0.419444444,-0.203703732,1,0,0,0.5995,0,12,12,178,1,huisdier,images/br_huisdier.png,images/cb_huisdier.png,1,,,,,,,,,,,,,,,,,,,,,
,,,,,,00019,2023-08-22_23h26.38.607,vbt_B1_day2,2022.2.4,Win32,60.16485169,,,,,,,,,,,,,,,,,,,,,,,,,,,down,0,16.2871,,,-0.419444444,-0.203703732,1,0,0,1.0016,0,13,13,153,1,vervoer,images/br_vervoer.png,images/cb_vervoer.png,0,,,,,,,,,,,,,,,,,,,,,
,,,,,,00019,2023-08-22_23h26.38.607,vbt_B1_day2,2022.2.4,Win32,60.16485169,,,,,,,,,,,,,,,,,,,,,,,,,,,down,0,9.4076,,,-0.419444444,-0.203703732,1,0,0,0.8995,0,14,14,65,1,parel,images/br_parel.png,images/cb_parel.png,0,,,,,,,,,,,,,,,,,,,,,
,,,,,,00019,2023-08-22_23h26.38.607,vbt_B1_day2,2022.2.4,Win32,60.16485169,,,,,,,,,,,,,,,,,,,,,,,,,,,down,0,18.4153,,,-0.419444444,-0.203703732,1,0,0,2.9806,0,15,15,14,1,rijp,images/br_rijp.png,images/cb_rijp.png,0,,,,,,,,,,,,,,,,,,,,,
,,,,,,00019,2023-08-22_23h26.38.607,vbt_B1_day2,2022.2.4,Win32,60.16485169,,,,,,,,,,,,,,,,,,,,,,,,,,,down,0,18.4194,,,-0.419444444,-0.203703732,1,0,0,0.4631,0,16,16,86,1,woning,images/br_woning.png,images/cb_woning.png,0,,,,,,,,,,,,,,,,,,,,,
,,,,,,00019,2023-08-22_23h26.38.607,vbt_B1_day2,2022.2.4,Win32,60.16485169,,,,,,,,,,,,,,,,,,,,,,,,,,,down,0,22.2439,,,-0.419444444,-0.203703732,1,0,0,6.4944,0,17,17,119,1,liefje,images/br_liefje.png,images/cb_liefje.png,0,,,,,,,,,,,,,,,,,,,,,
,,,,,,00019,2023-08-22_23h26.38.607,vbt_B1_day2,2022.2.4,Win32,60.16485169,,,,,,,,,,,,,,,,,,,,,,,,,,,down,0,9.6262,,,-0.419444444,-0.203703732,1,0,0,0.6183,0,18,18,122,1,waarvan,images/br_waarvan.png,images/cb_waarvan.png,0,,,,,,,,,,,,,,,,,,,,,
,,,,,,00019,2023-08-22_23h26.38.607,vbt_B1_day2,2022.2.4,Win32,60.16485169,,,,,,,,,,,,,,,,,,,,,,,,,,,down,0,12.4567,trekker,,-0.419444444,-0.203703732,1,0,0,0.8471,0,19,19,137,1,trekker,images/br_trekker.png,images/cb_trekker.png,1,,,,,,,,,,,,,,,,,,,,,
,,,,,,00019,2023-08-22_23h26.38.607,vbt_B1_day2,2022.2.4,Win32,60.16485169,,,,,,,,,,,,,,,,,,,,,,,,,,,down,0,10.1585,,,-0.419444444,-0.203703732,1,0,0,0.697,0,20,20,89,1,slapen,images/br_slapen.png,images/cb_slapen.png,0,,,,,,,,,,,,,,,,,,,,,
,,,,,,00019,2023-08-22_23h26.38.607,vbt_B1_day2,2022.2.4,Win32,60.16485169,,,,,,,,,,,,,,,,,,,,,,,,,,,down,0,5.8894,,,-0.419444444,-0.203703732,1,0,0,0.5184,0,21,21,166,1,strikken,images/br_strikken.png,images/cb_strikken.png,0,,,,,,,,,,,,,,,,,,,,,
,,,,,,00019,2023-08-22_23h26.38.607,vbt_B1_day2,2022.2.4,Win32,60.16485169,,,,,,,,,,,,,,,,,,,,,,,,,,,down,0,15.2925,,,-0.419444444,-0.203703732,1,0,0,4.1483,0,22,22,3,1,mand,images/br_mand.png,images/cb_mand.png,0,,,,,,,,,,,,,,,,,,,,,
,,,,,,00019,2023-08-22_23h26.38.607,vbt_B1_day2,2022.2.4,Win32,60.16485169,,,,,,,,,,,,,,,,,,,,,,,,,,,down,0,14.3905,,,-0.419444444,-0.203703732,1,0,0,0.552,0,23,23,140,1,blijven,images/br_blijven.png,images/cb_blijven.png,0,,,,,,,,,,,,,,,,,,,,,
,,,,,,00019,2023-08-22_23h26.38.607,vbt_B1_day2,2022.2.4,Win32,60.16485169,,,,,,,,,,,,,,,,,,,,,,,,,,,down,0,17.6138,,,-0.419444444,-0.203703732,1,0,0,0.8019,0,24,24,24,1,jurk,images/br_jurk.png,images/cb_jurk.png,0,,,,,,,,,,,,,,,,,,,,,
,,,,,,00019,2023-08-22_23h26.38.607,vbt_B1_day2,2022.2.4,Win32,60.16485169,,,,,,,,,,,,,,,,,,,,,,,,,,,down,0,10.768,,,-0.419444444,-0.203703732,1,0,0,0.5495,0,25,25,50,1,stoom,images/br_stoom.png,images/cb_stoom.png,0,,,,,,,,,,,,,,,,,,,,,
,,,,,,00019,2023-08-22_23h26.38.607,vbt_B1_day2,2022.2.4,Win32,60.16485169,,,,,,,,,,,,,,,,,,,,,,,,,,,down,0,14.2166,,,-0.419444444,-0.203703732,1,0,0,4.0494,0,26,26,22,1,stof,images/br_stof.png,images/cb_stof.png,0,,,,,,,,,,,,,,,,,,,,,
,,,,,,00019,2023-08-22_23h26.38.607,vbt_B1_day2,2022.2.4,Win32,60.16485169,,,,,,,,,,,,,,,,,,,,,,,,,,,down,0,24.3972,,,-0.419444444,-0.203703732,1,0,0,4.4626,0,27,27,163,1,schuilen,images/br_schuilen.png,images/cb_schuilen.png,0,,,,,,,,,,,,,,,,,,,,,
,,,,,,00019,2023-08-22_23h26.38.607,vbt_B1_day2,2022.2.4,Win32,60.16485169,,,,,,,,,,,,,,,,,,,,,,,,,,,down,0,7.4945,,,-0.419444444,-0.203703732,1,0,0,0.6659,0,28,28,95,1,vreten,images/br_vreten.png,images/cb_vreten.png,0,,,,,,,,,,,,,,,,,,,,,
,,,,,,00019,2023-08-22_23h26.38.607,vbt_B1_day2,2022.2.4,Win32,60.16485169,,,,,,,,,,,,,,,,,,,,,,,,,,,down,0,40.6013,,,-0.419444444,-0.203703732,1,0,0,2.2981,0,29,29,34,1,vorm,images/br_vorm.png,images/cb_vorm.png,0,,,,,,,,,,,,,,,,,,,,,
,,,,,,00019,2023-08-22_23h26.38.607,vbt_B1_day2,2022.2.4,Win32,60.16485169,,,,,,,,,,,,,,,,,,,,,,,,,,,down,0,8.4768,,,-0.390740712,-0.229629686,1,0,0,2.5144,0,30,30,40,1,schep,images/br_schep.png,images/cb_schep.png,0,,,,,,,,,,,,,,,,,,,,,
,,,,,,00019,2023-08-22_23h26.38.607,vbt_B1_day2,2022.2.4,Win32,60.16485169,,,,,,,,,,,,,,,,,,,,,,,,,,,down,0,7.6852,,,-0.390740712,-0.229629686,1,0,0,0.5995,0,31,31,4,1,moes,images/br_moes.png,images/cb_moes.png,0,,,,,,,,,,,,,,,,,,,,,
,,,,,,00019,2023-08-22_23h26.38.607,vbt_B1_day2,2022.2.4,Win32,60.16485169,,,,,,,,,,,,,,,,,,,,,,,,,,,down,0,23.8188,,,-0.390740712,-0.229629686,1,0,0,3.647,0,32,32,107,1,maling,images/br_maling.png,images/cb_maling.png,0,,,,,,,,,,,,,,,,,,,,,
,,,,,,00019,2023-08-22_23h26.38.607,vbt_B1_day2,2022.2.4,Win32,60.16485169,,,,,,,,,,,,,,,,,,,,,,,,,,,down,0,4.3137,,,-0.390740712,-0.229629686,1,0,0,0.6165,0,33,33,52,1,wagon,images/br_wagon.png,images/cb_wagon.png,0,,,,,,,,,,,,,,,,,,,,,
,,,,,,00019,2023-08-22_23h26.38.607,vbt_B1_day2,2022.2.4,Win32,60.16485169,,,,,,,,,,,,,,,,,,,,,,,,,,,down,0,6.6621,,,-0.390740712,-0.229629686,1,0,0,0.8326,0,34,34,106,1,zingen,images/br_zingen.png,images/cb_zingen.png,0,,,,,,,,,,,,,,,,,,,,,
,,,,,,00019,2023-08-22_23h26.38.607,vbt_B1_day2,2022.2.4,Win32,60.16485169,,,,,,,,,,,,,,,,,,,,,,,,,,,down,0,5.6394,,,-0.390740712,-0.229629686,1,0,0,0.7327,0,35,35,118,1,vinger,images/br_vinger.png,images/cb_vinger.png,0,,,,,,,,,,,,,,,,,,,,,
,,,,,,00019,2023-08-22_23h26.38.607,vbt_B1_day2,2022.2.4,Win32,60.16485169,,,,,,,,,,,,,,,,,,,,,,,,,,,down,0,6.6156,,,-0.390740712,-0.229629686,1,0,0,0.8159,0,36,36,76,1,afval,images/br_afval.png,images/cb_afval.png,0,,,,,,,,,,,,,,,,,,,,,
,,,,,,00019,2023-08-22_23h26.38.607,vbt_B1_day2,2022.2.4,Win32,60.16485169,,,,,,,,,,,,,,,,,,,,,,,,,,,down,0,4.9245,,,-0.390740712,-0.229629686,1,0,0,0.5161,0,37,37,199,1,beseffen,images/br_beseffen.png,images/cb_beseffen.png,0,,,,,,,,,,,,,,,,,,,,,
,,,,,,00019,2023-08-22_23h26.38.607,vbt_B1_day2,2022.2.4,Win32,60.16485169,,,,,,,,,,,,,,,,,,,,,,,,,,,down,0,16.378,,,-0.390740712,-0.229629686,1,0,0,0.5995,0,38,38,165,1,feestdag,images/br_feestdag.png,images/cb_feestdag.png,0,,,,,,,,,,,,,,,,,,,,,
,,,,,,00019,2023-08-22_23h26.38.607,vbt_B1_day2,2022.2.4,Win32,60.16485169,,,,,,,,,,,,,,,,,,,,,,,,,,,down,0,1.7488,,,-0.390740712,-0.229629686,1,0,0,0.4831,0,39,39,33,1,vlek,images/br_vlek.png,images/cb_vlek.png,0,,,,,,,,,,,,,,,,,,,,,
,,,,,,00019,2023-08-22_23h26.38.607,vbt_B1_day2,2022.2.4,Win32,60.16485169,,,,,,,,,,,,,,,,,,,,,,,,,,,down,0,4.6801,,,-0.390740712,-0.229629686,1,0,0,0.5661,0,40,40,27,1,dans,images/br_dans.png,images/cb_dans.png,0,,,,,,,,,,,,,,,,,,,,,
,,,,,,00019,2023-08-22_23h26.38.607,vbt_B1_day2,2022.2.4,Win32,60.16485169,,,,,,,,,,,,,,,,,,,,,,,,,,,down,0,10.0985,,,-0.390740712,-0.229629686,1,0,0,0.6493,0,41,41,9,1,hier,images/br_hier.png,images/cb_hier.png,0,,,,,,,,,,,,,,,,,,,,,
,,,,,,00019,2023-08-22_23h26.38.607,vbt_B1_day2,2022.2.4,Win32,60.16485169,,,,,,,,,,,,,,,,,,,,,,,,,,,down,0,5.0925,,,-0.390740712,-0.229629686,1,0,0,0.7993,0,42,42,81,1,dubbel,images/br_dubbel.png,images/cb_dubbel.png,0,,,,,,,,,,,,,,,,,,,,,
,,,,,,00019,2023-08-22_23h26.38.607,vbt_B1_day2,2022.2.4,Win32,60.16485169,,,,,,,,,,,,,,,,,,,,,,,,,,,down,0,19.2409,,,-0.390740712,-0.229629686,1,0,0,5.6452,0,43,43,146,1,opkomen,images/br_opkomen.png,images/cb_opkomen.png,0,,,,,,,,,,,,,,,,,,,,,
,,,,,,00019,2023-08-22_23h26.38.607,vbt_B1_day2,2022.2.4,Win32,60.16485169,,,,,,,,,,,,,,,,,,,,,,,,,,,down,0,3.2827,ziek,,-0.390740712,-0.229629686,1,0,0,1.0159,0,44,44,16,1,ziek,images/br_ziek.png,images/cb_ziek.png,1,,,,,,,,,,,,,,,,,,,,,
,,,,,,00019,2023-08-22_23h26.38.607,vbt_B1_day2,2022.2.4,Win32,60.16485169,,,,,,,,,,,,,,,,,,,,,,,,,,,down,0,1.6994,,,-0.390740712,-0.229629686,1,0,0,0.4996,0,45,45,42,1,bleek,images/br_bleek.png,images/cb_bleek.png,0,,,,,,,,,,,,,,,,,,,,,
,,,,,,00019,2023-08-22_23h26.38.607,vbt_B1_day2,2022.2.4,Win32,60.16485169,,,,,,,,,,,,,,,,,,,,,,,,,,,down,0,17.9043,,,-0.390740712,-0.229629686,1,0,0,0.7325,0,46,46,105,1,wijlen,images/br_wijlen.png,images/cb_wijlen.png,0,,,,,,,,,,,,,,,,,,,,,
,,,,,,00019,2023-08-22_23h26.38.607,vbt_B1_day2,2022.2.4,Win32,60.16485169,,,,,,,,,,,,,,,,,,,,,,,,,,,down,0,2.3731,,,-0.390740712,-0.229629686,1,0,0,0.4494,0,47,47,67,1,zwart,images/br_zwart.png,images/cb_zwart.png,0,,,,,,,,,,,,,,,,,,,,,
,,,,,,00019,2023-08-22_23h26.38.607,vbt_B1_day2,2022.2.4,Win32,60.16485169,,,,,,,,,,,,,,,,,,,,,,,,,,,down,0,8.596,,,-0.390740712,-0.229629686,1,0,0,0.4662,0,48,48,156,1,rechten,images/br_rechten.png,images/cb_rechten.png,0,,,,,,,,,,,,,,,,,,,,,
,,,,,,00019,2023-08-22_23h26.38.607,vbt_B1_day2,2022.2.4,Win32,60.16485169,,,,,,,,,,,,,,,,,,,,,,,,,,,down,0,6.2621,,,-0.390740712,-0.229629686,1,0,0,0.5327,0,49,49,184,1,aandelen,images/br_aandelen.png,images/cb_aandelen.png,0,,,,,,,,,,,,,,,,,,,,,
,,,,,,00019,2023-08-22_23h26.38.607,vbt_B1_day2,2022.2.4,Win32,60.16485169,,,,,,,,,,,,,,,,,,,,,,,,,,,down,0,6.0462,,,-0.390740712,-0.229629686,1,0,0,0.3663,0,50,50,21,1,mist,images/br_mist.png,images/cb_mist.png,0,,,,,,,,,,,,,,,,,,,,,
,,,,,,00019,2023-08-22_23h26.38.607,vbt_B1_day2,2022.2.4,Win32,60.16485169,,,,,,,,,,,,,,,,,,,,,,,,,,,down,0,3.6833,,,-0.390740712,-0.229629686,1,0,0,0.366,0,51,51,0,1,slak,images/br_slak.png,images/cb_slak.png,0,,,,,,,,,,,,,,,,,,,,,
,,,,,,00019,2023-08-22_23h26.38.607,vbt_B1_day2,2022.2.4,Win32,60.16485169,,,,,,,,,,,,,,,,,,,,,,,,,,,down,0,10.2469,,,-0.390740712,-0.229629686,1,0,0,0.6163,0,52,52,191,1,opheffen,images/br_opheffen.png,images/cb_opheffen.png,0,,,,,,,,,,,,,,,,,,,,,
,,,,,,00019,2023-08-22_23h26.38.607,vbt_B1_day2,2022.2.4,Win32,60.16485169,,,,,,,,,,,,,,,,,,,,,,,,,,,down,0,4.7624,,,-0.390740712,-0.229629686,1,0,0,0.783,0,53,53,126,1,kasteel,images/br_kasteel.png,images/cb_kasteel.png,0,,,,,,,,,,,,,,,,,,,,,
,,,,,,00019,2023-08-22_23h26.38.607,vbt_B1_day2,2022.2.4,Win32,60.16485169,,,,,,,,,,,,,,,,,,,,,,,,,,,down,0,12.8752,,,-0.390740712,-0.229629686,1,0,0,0.4828,0,54,54,154,1,aflopen,images/br_aflopen.png,images/cb_aflopen.png,0,,,,,,,,,,,,,,,,,,,,,
,,,,,,00019,2023-08-22_23h26.38.607,vbt_B1_day2,2022.2.4,Win32,60.16485169,,,,,,,,,,,,,,,,,,,,,,,,,,,down,0,2.5483,,,-0.390740712,-0.229629686,1,0,0,0.3996,0,55,55,69,1,waken,images/br_waken.png,images/cb_waken.png,0,,,,,,,,,,,,,,,,,,,,,
,,,,,,00019,2023-08-22_23h26.38.607,vbt_B1_day2,2022.2.4,Win32,60.16485169,,,,,,,,,,,,,,,,,,,,,,,,,,,down,0,12.0794,,,-0.390740712,-0.229629686,1,0,0,6.2113,0,56,56,90,1,geluid,images/br_geluid.png,images/cb_geluid.png,0,,,,,,,,,,,,,,,,,,,,,
,,,,,,00019,2023-08-22_23h26.38.607,vbt_B1_day2,2022.2.4,Win32,60.16485169,,,,,,,,,,,,,,,,,,,,,,,,,,,down,0,7.8335,,,-0.390740712,-0.229629686,1,0,0,1.0656,0,57,57,190,1,goedkoop,images/br_goedkoop.png,images/cb_goedkoop.png,0,,,,,,,,,,,,,,,,,,,,,
,,,,,,00019,2023-08-22_23h26.38.607,vbt_B1_day2,2022.2.4,Win32,60.16485169,,,,,,,,,,,,,,,,,,,,,,,,,,,down,0,4.4641,,,-0.390740712,-0.229629686,1,0,0,0.6325,0,58,58,87,1,toeval,images/br_toeval.png,images/cb_toeval.png,0,,,,,,,,,,,,,,,,,,,,,
,,,,,,00019,2023-08-22_23h26.38.607,vbt_B1_day2,2022.2.4,Win32,60.16485169,,,,,,,,,,,,,,,,,,,,,,,,,,,down,0,5.3492,akkoord,,-0.390740712,-0.229629686,1,0,0,0.4499,0,59,59,138,1,akkoord,images/br_akkoord.png,images/cb_akkoord.png,1,,,,,,,,,,,,,,,,,,,,,
,,,,,,00019,2023-08-22_23h26.38.607,vbt_B1_day2,2022.2.4,Win32,60.16485169,,,,,,,,,,,,,,,,,,,,,,,,,,,down,0,5.0799,,,-0.390740712,-0.229629686,1,0,0,0.4494,0,60,60,93,1,waarop,images/br_waarop.png,images/cb_waarop.png,0,,,,,,,,,,,,,,,,,,,,,
,,,,,,00019,2023-08-22_23h26.38.607,vbt_B1_day2,2022.2.4,Win32,60.16485169,,,,,,,,,,,,,,,,,,,,,,,,,,,down,0,9.7757,,,-0.390740712,-0.229629686,1,0,0,0.4329,0,61,61,168,1,bisschop,images/br_bisschop.png,images/cb_bisschop.png,0,,,,,,,,,,,,,,,,,,,,,
,,,,,,00019,2023-08-22_23h26.38.607,vbt_B1_day2,2022.2.4,Win32,60.16485169,,,,,,,,,,,,,,,,,,,,,,,,,,,down,0,4.6323,,,-0.390740712,-0.229629686,1,0,0,0.4162,0,62,62,71,1,bever,images/br_bever.png,images/cb_bever.png,0,,,,,,,,,,,,,,,,,,,,,
,,,,,,00019,2023-08-22_23h26.38.607,vbt_B1_day2,2022.2.4,Win32,60.16485169,,,,,,,,,,,,,,,,,,,,,,,,,,,down,0,1.1338,,,-0.390740712,-0.229629686,1,0,0,0.3501,0,63,63,28,1,stal,images/br_stal.png,images/cb_stal.png,0,,,,,,,,,,,,,,,,,,,,,
,,,,,,00019,2023-08-22_23h26.38.607,vbt_B1_day2,2022.2.4,Win32,60.16485169,,,,,,,,,,,,,,,,,,,,,,,,,,,down,0,13.9862,maaltijd,,-0.390740712,-0.229629686,1,0,0,0.4322,0,64,64,177,1,maaltijd,images/br_maaltijd.png,images/cb_maaltijd.png,1,,,,,,,,,,,,,,,,,,,,,
,,,,,,00019,2023-08-22_23h26.38.607,vbt_B1_day2,2022.2.4,Win32,60.16485169,,,,,,,,,,,,,,,,,,,,,,,,,,,down,0,15.1391,,,-0.390740712,-0.229629686,1,0,0,0.433,0,65,65,100,1,geduld,images/br_geduld.png,images/cb_geduld.png,0,,,,,,,,,,,,,,,,,,,,,
,,,,,,00019,2023-08-22_23h26.38.607,vbt_B1_day2,2022.2.4,Win32,60.16485169,,,,,,,,,,,,,,,,,,,,,,,,,,,down,0,18.2023,,,-0.390740712,-0.229629686,1,0,0,0.4329,0,66,66,129,1,verhaal,images/br_verhaal.png,images/cb_verhaal.png,0,,,,,,,,,,,,,,,,,,,,,
,,,,,,00019,2023-08-22_23h26.38.607,vbt_B1_day2,2022.2.4,Win32,60.16485169,,,,,,,,,,,,,,,,,,,,,,,,,,,down,0,4.7306,,,-0.390740712,-0.229629686,1,0,0,0.4162,0,67,67,88,1,boeien,images/br_boeien.png,images/cb_boeien.png,0,,,,,,,,,,,,,,,,,,,,,
,,,,,,00019,2023-08-22_23h26.38.607,vbt_B1_day2,2022.2.4,Win32,60.16485169,,,,,,,,,,,,,,,,,,,,,,,,,,,down,0,4.1093,,,-0.390740712,-0.229629686,1,0,0,0.6994,0,68,68,77,1,woede,images/br_woede.png,images/cb_woede.png,0,,,,,,,,,,,,,,,,,,,,,
,,,,,,00019,2023-08-22_23h26.38.607,vbt_B1_day2,2022.2.4,Win32,60.16485169,,,,,,,,,,,,,,,,,,,,,,,,,,,down,0,10.2593,,,-0.390740712,-0.229629686,1,0,0,0.6994,0,69,69,70,1,ijdel,images/br_ijdel.png,images/cb_ijdel.png,0,,,,,,,,,,,,,,,,,,,,,
,,,,,,00019,2023-08-22_23h26.38.607,vbt_B1_day2,2022.2.4,Win32,60.16485169,,,,,,,,,,,,,,,,,,,,,,,,,,,down,0,6.1985,waarbij,,-0.390740712,-0.229629686,1,0,0,1.0493,0,70,70,136,1,waarbij,images/br_waarbij.png,images/cb_waarbij.png,1,,,,,,,,,,,,,,,,,,,,,
,,,,,,00019,2023-08-22_23h26.38.607,vbt_B1_day2,2022.2.4,Win32,60.16485169,,,,,,,,,,,,,,,,,,,,,,,,,,,down,0,8.1786,,,-0.390740712,-0.229629686,1,0,0,0.4163,0,71,71,171,1,aarzelen,images/br_aarzelen.png,images/cb_aarzelen.png,0,,,,,,,,,,,,,,,,,,,,,
,,,,,,00019,2023-08-22_23h26.38.607,vbt_B1_day2,2022.2.4,Win32,60.16485169,,,,,,,,,,,,,,,,,,,,,,,,,,,down,0,0.7553,,,-0.390740712,-0.229629686,1,0,0,0.3166,0,72,72,7,1,geld,images/br_geld.png,images/cb_geld.png,0,,,,,,,,,,,,,,,,,,,,,
,,,,,,00019,2023-08-22_23h26.38.607,vbt_B1_day2,2022.2.4,Win32,60.16485169,,,,,,,,,,,,,,,,,,,,,,,,,,,down,0,2.1123,blik,,-0.390740712,-0.229629686,1,0,0,0.3658,0,73,73,18,1,blik,images/br_blik.png,images/cb_blik.png,1,,,,,,,,,,,,,,,,,,,,,
,,,,,,00019,2023-08-22_23h26.38.607,vbt_B1_day2,2022.2.4,Win32,60.16485169,,,,,,,,,,,,,,,,,,,,,,,,,,,down,0,5.2737,,,-0.390740712,-0.229629686,1,0,0,0.4159,0,74,74,124,1,bloeien,images/br_bloeien.png,images/cb_bloeien.png,0,,,,,,,,,,,,,,,,,,,,,
,,,,,,00019,2023-08-22_23h26.38.607,vbt_B1_day2,2022.2.4,Win32,60.16485169,,,,,,,,,,,,,,,,,,,,,,,,,,,down,0,5.3476,,,-0.390740712,-0.229629686,1,0,0,0.4495,0,75,75,170,1,schatten,images/br_schatten.png,images/cb_schatten.png,0,,,,,,,,,,,,,,,,,,,,,
,,,,,,00019,2023-08-22_23h26.38.607,vbt_B1_day2,2022.2.4,Win32,60.16485169,,,,,,,,,,,,,,,,,,,,,,,,,,,down,0,8.3348,,,-0.390740712,-0.229629686,1,0,0,0.5659,0,76,76,143,1,hechten,images/br_hechten.png,images/cb_hechten.png,0,,,,,,,,,,,,,,,,,,,,,
,,,,,,00019,2023-08-22_23h26.38.607,vbt_B1_day2,2022.2.4,Win32,60.16485169,,,,,,,,,,,,,,,,,,,,,,,,,,,down,0,0.3952,,,-0.390740712,-0.229629686,1,0,0,0.4496,0,77,77,5,1,blad,images/br_blad.png,images/cb_blad.png,0,,,,,,,,,,,,,,,,,,,,,
,,,,,,00019,2023-08-22_23h26.38.607,vbt_B1_day2,2022.2.4,Win32,60.16485169,,,,,,,,,,,,,,,,,,,,,,,,,,,down,0,3.4192,,,-0.390740712,-0.229629686,1,0,0,0.5162,0,78,78,74,1,graaf,images/br_graaf.png,images/cb_graaf.png,0,,,,,,,,,,,,,,,,,,,,,
,,,,,,00019,2023-08-22_23h26.38.607,vbt_B1_day2,2022.2.4,Win32,60.16485169,,,,,,,,,,,,,,,,,,,,,,,,,,,down,0,8.2851,,,-0.390740712,-0.229629686,1,0,0,0.4823,0,79,79,80,1,kanjer,images/br_kanjer.png,images/cb_kanjer.png,0,,,,,,,,,,,,,,,,,,,,,
,,,,,,00019,2023-08-22_23h26.38.607,vbt_B1_day2,2022.2.4,Win32,60.16485169,,,,,,,,,,,,,,,,,,,,,,,,,,,down,0,8.1381,,,-0.390740712,-0.229629686,1,0,0,0.483,0,80,80,180,1,openbaar,images/br_openbaar.png,images/cb_openbaar.png,0,,,,,,,,,,,,,,,,,,,,,
,,,,,,00019,2023-08-22_23h26.38.607,vbt_B1_day2,2022.2.4,Win32,60.16485169,,,,,,,,,,,,,,,,,,,,,,,,,,,down,0,11.3819,,,-0.390740712,-0.229629686,1,0,0,0.4994,0,81,81,160,1,daarheen,images/br_daarheen.png,images/cb_daarheen.png,0,,,,,,,,,,,,,,,,,,,,,
,,,,,,00019,2023-08-22_23h26.38.607,vbt_B1_day2,2022.2.4,Win32,60.16485169,,,,,,,,,,,,,,,,,,,,,,,,,,,down,0,15.3268,,,-0.390740712,-0.229629686,1,0,0,5.5953,0,82,82,158,1,innemen,images/br_innemen.png,images/cb_innemen.png,0,,,,,,,,,,,,,,,,,,,,,
,,,,,,00019,2023-08-22_23h26.38.607,vbt_B1_day2,2022.2.4,Win32,60.16485169,,,,,,,,,,,,,,,,,,,,,,,,,,,down,0,4.565,,,-0.390740712,-0.229629686,1,0,0,0.4994,0,83,83,117,1,kennis,images/br_kennis.png,images/cb_kennis.png,0,,,,,,,,,,,,,,,,,,,,,
,,,,,,00019,2023-08-22_23h26.38.607,vbt_B1_day2,2022.2.4,Win32,60.16485169,,,,,,,,,,,,,,,,,,,,,,,,,,,down,0,16.2082,,,-0.390740712,-0.229629686,1,0,0,0.483,0,84,84,174,1,stemming,images/br_stemming.png,images/cb_stemming.png,0,,,,,,,,,,,,,,,,,,,,,
,,,,,,00019,2023-08-22_23h26.38.607,vbt_B1_day2,2022.2.4,Win32,60.16485169,,,,,,,,,,,,,,,,,,,,,,,,,,,down,0,5.7926,,,-0.390740712,-0.229629686,1,0,0,0.5825,0,85,85,85,1,heilig,images/br_heilig.png,images/cb_heilig.png,0,,,,,,,,,,,,,,,,,,,,,
,,,,,,00019,2023-08-22_23h26.38.607,vbt_B1_day2,2022.2.4,Win32,60.16485169,,,,,,,,,,,,,,,,,,,,,,,,,,,down,0,9.1598,stiekem,,-0.390740712,-0.229629686,1,0,0,0.5495,0,86,86,139,1,stiekem,images/br_stiekem.png,images/cb_stiekem.png,1,,,,,,,,,,,,,,,,,,,,,
,,,,,,00019,2023-08-22_23h26.38.607,vbt_B1_day2,2022.2.4,Win32,60.16485169,,,,,,,,,,,,,,,,,,,,,,,,,,,down,0,17.8406,,,-0.390740712,-0.229629686,1,0,0,0.6991,0,87,87,114,1,vullen,images/br_vullen.png,images/cb_vullen.png,0,,,,,,,,,,,,,,,,,,,,,
,,,,,,00019,2023-08-22_23h26.38.607,vbt_B1_day2,2022.2.4,Win32,60.16485169,,,,,,,,,,,,,,,,,,,,,,,,,,,down,0,6.298,,,-0.390740712,-0.229629686,1,0,0,0.9659,0,88,88,120,1,klimmen,images/br_klimmen.png,images/cb_klimmen.png,0,,,,,,,,,,,,,,,,,,,,,
,,,,,,00019,2023-08-22_23h26.38.607,vbt_B1_day2,2022.2.4,Win32,60.16485169,,,,,,,,,,,,,,,,,,,,,,,,,,,down,0,10.4446,,,-0.390740712,-0.229629686,1,0,0,0.5991,0,89,89,144,1,eetlust,images/br_eetlust.png,images/cb_eetlust.png,0,,,,,,,,,,,,,,,,,,,,,
,,,,,,00019,2023-08-22_23h26.38.607,vbt_B1_day2,2022.2.4,Win32,60.16485169,,,,,,,,,,,,,,,,,,,,,,,,,,,down,0,8.7763,,,-0.390740712,-0.229629686,1,0,0,0.6659,0,90,90,147,1,komisch,images/br_komisch.png,images/cb_komisch.png,0,,,,,,,,,,,,,,,,,,,,,
,,,,,,00019,2023-08-22_23h26.38.607,vbt_B1_day2,2022.2.4,Win32,60.16485169,,,,,,,,,,,,,,,,,,,,,,,,,,,down,0,1.0793,,,-0.390740712,-0.229629686,1,0,0,0.4994,0,91,91,53,1,baron,images/br_baron.png,images/cb_baron.png,0,,,,,,,,,,,,,,,,,,,,,
,,,,,,00019,2023-08-22_23h26.38.607,vbt_B1_day2,2022.2.4,Win32,60.16485169,,,,,,,,,,,,,,,,,,,,,,,,,,,down,0,9.0506,,,-0.390740712,-0.229629686,1,0,0,0.5661,0,92,92,83,1,mening,images/br_mening.png,images/cb_mening.png,0,,,,,,,,,,,,,,,,,,,,,
,,,,,,00019,2023-08-22_23h26.38.607,vbt_B1_day2,2022.2.4,Win32,60.16485169,,,,,,,,,,,,,,,,,,,,,,,,,,,down,0,15.196,,,-0.390740712,-0.229629686,1,0,0,2.4645,0,93,93,103,1,joggen,images/br_joggen.png,images/cb_joggen.png,0,,,,,,,,,,,,,,,,,,,,,
,,,,,,00019,2023-08-22_23h26.38.607,vbt_B1_day2,2022.2.4,Win32,60.16485169,,,,,,,,,,,,,,,,,,,,,,,,,,,down,0,5.0535,taal,,-0.390740712,-0.229629686,1,0,0,0.3494,0,94,94,17,1,taal,images/br_taal.png,images/cb_taal.png,1,,,,,,,,,,,,,,,,,,,,,
,,,,,,00019,2023-08-22_23h26.38.607,vbt_B1_day2,2022.2.4,Win32,60.16485169,,,,,,,,,,,,,,,,,,,,,,,,,,,down,0,35.954,,,-0.390740712,-0.229629686,1,0,0,9.4089,0,95,95,193,1,weeshuis,images/br_weeshuis.png,images/cb_weeshuis.png,0,,,,,,,,,,,,,,,,,,,,,
,,,,,,00019,2023-08-22_23h26.38.607,vbt_B1_day2,2022.2.4,Win32,60.16485169,,,,,,,,,,,,,,,,,,,,,,,,,,,down,0,6.5403,koffie,,-0.390740712,-0.229629686,1,0,0,0.9661,0,96,96,99,1,koffie,images/br_koffie.png,images/cb_koffie.png,1,,,,,,,,,,,,,,,,,,,,,
,,,,,,00019,2023-08-22_23h26.38.607,vbt_B1_day2,2022.2.4,Win32,60.16485169,,,,,,,,,,,,,,,,,,,,,,,,,,,down,0,6.4167,,,-0.390740712,-0.229629686,1,0,0,0.3497,0,97,97,32,1,palm,images/br_palm.png,images/cb_palm.png,0,,,,,,,,,,,,,,,,,,,,,
,,,,,,00019,2023-08-22_23h26.38.607,vbt_B1_day2,2022.2.4,Win32,60.16485169,,,,,,,,,,,,,,,,,,,,,,,,,,,down,0,18.6757,,,-0.390740712,-0.229629686,1,0,0,0.3165,0,98,98,181,1,toegeven,images/br_toegeven.png,images/cb_toegeven.png,0,,,,,,,,,,,,,,,,,,,,,
,,,,,,00019,2023-08-22_23h26.38.607,vbt_B1_day2,2022.2.4,Win32,60.16485169,,,,,,,,,,,,,,,,,,,,,,,,,,,down,0,6.6454,,,-0.390740712,-0.229629686,1,0,0,0.3497,0,99,99,185,1,mijnheer,images/br_mijnheer.png,images/cb_mijnheer.png,0,,,,,,,,,,,,,,,,,,,,,
,,,,,,00019,2023-08-22_23h26.38.607,vbt_B1_day2,2022.2.4,Win32,60.16485169,,,,,,,,,,,,,,,,,,,,,,,,,,,down,0,4.8479,tekst,,-0.390740712,-0.229629686,1,0,0,0.3163,0,100,100,58,1,tekst,images/br_tekst.png,images/cb_tekst.png,1,,,,,,,,,,,,,,,,,,,,,
,,,,,,00019,2023-08-22_23h26.38.607,vbt_B1_day2,2022.2.4,Win32,60.16485169,,,,,,,,,,,,,,,,,,,,,,,,,,,down,0,16.5263,,,-0.390740712,-0.229629686,1,0,0,0.3663,0,101,101,194,1,driemaal,images/br_driemaal.png,images/cb_driemaal.png,0,,,,,,,,,,,,,,,,,,,,,
,,,,,,00019,2023-08-22_23h26.38.607,vbt_B1_day2,2022.2.4,Win32,60.16485169,,,,,,,,,,,,,,,,,,,,,,,,,,,down,0,6.4778,,,-0.390740712,-0.229629686,1,0,0,0.3495,0,102,102,162,1,uitdelen,images/br_uitdelen.png,images/cb_uitdelen.png,0,,,,,,,,,,,,,,,,,,,,,
,,,,,,00019,2023-08-22_23h26.38.607,vbt_B1_day2,2022.2.4,Win32,60.16485169,,,,,,,,,,,,,,,,,,,,,,,,,,,down,0,1.1188,,,-0.390740712,-0.229629686,1,0,0,0.3328,0,103,103,25,1,plek,images/br_plek.png,images/cb_plek.png,0,,,,,,,,,,,,,,,,,,,,,
,,,,,,00019,2023-08-22_23h26.38.607,vbt_B1_day2,2022.2.4,Win32,60.16485169,,,,,,,,,,,,,,,,,,,,,,,,,,,down,0,7.632,,,-0.390740712,-0.229629686,1,0,0,0.7827,0,104,104,172,1,weigeren,images/br_weigeren.png,images/cb_weigeren.png,0,,,,,,,,,,,,,,,,,,,,,
,,,,,,00019,2023-08-22_23h26.38.607,vbt_B1_day2,2022.2.4,Win32,60.16485169,,,,,,,,,,,,,,,,,,,,,,,,,,,down,0,2.8071,,,-0.390740712,-0.229629686,1,0,0,0.5496,0,105,105,8,1,knie,images/br_knie.png,images/cb_knie.png,0,,,,,,,,,,,,,,,,,,,,,
,,,,,,00019,2023-08-22_23h26.38.607,vbt_B1_day2,2022.2.4,Win32,60.16485169,,,,,,,,,,,,,,,,,,,,,,,,,,,down,0,6.8119,,,-0.390740712,-0.229629686,1,0,0,1.4987,0,106,106,60,1,jasje,images/br_jasje.png,images/cb_jasje.png,0,,,,,,,,,,,,,,,,,,,,,
,,,,,,00019,2023-08-22_23h26.38.607,vbt_B1_day2,2022.2.4,Win32,60.16485169,,,,,,,,,,,,,,,,,,,,,,,,,,,down,0,4.6615,,,-0.390740712,-0.229629686,1,0,0,0.349,0,107,107,149,1,redding,images/br_redding.png,images/cb_redding.png,0,,,,,,,,,,,,,,,,,,,,,
,,,,,,00019,2023-08-22_23h26.38.607,vbt_B1_day2,2022.2.4,Win32,60.16485169,,,,,,,,,,,,,,,,,,,,,,,,,,,down,0,1.6848,,,-0.390740712,-0.229629686,1,0,0,0.4327,0,108,108,66,1,lever,images/br_lever.png,images/cb_lever.png,0,,,,,,,,,,,,,,,,,,,,,
,,,,,,00019,2023-08-22_23h26.38.607,vbt_B1_day2,2022.2.4,Win32,60.16485169,,,,,,,,,,,,,,,,,,,,,,,,,,,down,0,3.8217,,,-0.390740712,-0.229629686,1,0,0,0.8327,0,109,109,15,1,soda,images/br_soda.png,images/cb_soda.png,0,,,,,,,,,,,,,,,,,,,,,
,,,,,,00019,2023-08-22_23h26.38.607,vbt_B1_day2,2022.2.4,Win32,60.16485169,,,,,,,,,,,,,,,,,,,,,,,,,,,down,0,8.0707,,,-0.390740712,-0.229629686,1,0,0,0.3829,0,110,110,151,1,aanzoek,images/br_aanzoek.png,images/cb_aanzoek.png,0,,,,,,,,,,,,,,,,,,,,,
,,,,,,00019,2023-08-22_23h26.38.607,vbt_B1_day2,2022.2.4,Win32,60.16485169,,,,,,,,,,,,,,,,,,,,,,,,,,,down,0,3.8969,slagen,,-0.390740712,-0.229629686,1,0,0,0.5496,0,111,111,96,1,slagen,images/br_slagen.png,images/cb_slagen.png,1,,,,,,,,,,,,,,,,,,,,,
,,,,,,00019,2023-08-22_23h26.38.607,vbt_B1_day2,2022.2.4,Win32,60.16485169,,,,,,,,,,,,,,,,,,,,,,,,,,,down,0,7.8028,,,-0.390740712,-0.229629686,1,0,0,0.4662,0,112,112,12,1,kust,images/br_kust.png,images/cb_kust.png,0,,,,,,,,,,,,,,,,,,,,,
,,,,,,00019,2023-08-22_23h26.38.607,vbt_B1_day2,2022.2.4,Win32,60.16485169,,,,,,,,,,,,,,,,,,,,,,,,,,,down,0,1.4124,,,-0.390740712,-0.229629686,1,0,0,0.3829,0,113,113,64,1,wegen,images/br_wegen.png,images/cb_wegen.png,0,,,,,,,,,,,,,,,,,,,,,
,,,,,,00019,2023-08-22_23h26.38.607,vbt_B1_day2,2022.2.4,Win32,60.16485169,,,,,,,,,,,,,,,,,,,,,,,,,,,down,0,14.4381,,,-0.390740712,-0.229629686,1,0,0,0.6496,0,114,114,44,1,flits,images/br_flits.png,images/cb_flits.png,0,,,,,,,,,,,,,,,,,,,,,
,,,,,,00019,2023-08-22_23h26.38.607,vbt_B1_day2,2022.2.4,Win32,60.16485169,,,,,,,,,,,,,,,,,,,,,,,,,,,down,0,2.1546,,,-0.390740712,-0.229629686,1,0,0,0.3326,0,115,115,102,1,legaal,images/br_legaal.png,images/cb_legaal.png,0,,,,,,,,,,,,,,,,,,,,,
,,,,,,00019,2023-08-22_23h26.38.607,vbt_B1_day2,2022.2.4,Win32,60.16485169,,,,,,,,,,,,,,,,,,,,,,,,,,,down,0,21.5858,,,-0.390740712,-0.229629686,1,0,0,0.4495,0,116,116,92,1,geheim,images/br_geheim.png,images/cb_geheim.png,0,,,,,,,,,,,,,,,,,,,,,
,,,,,,00019,2023-08-22_23h26.38.607,vbt_B1_day2,2022.2.4,Win32,60.16485169,,,,,,,,,,,,,,,,,,,,,,,,,,,down,0,3.3481,,,-0.530555556,-0.085185199,1,0,0,0.433,0,117,117,11,1,mode,images/br_mode.png,images/cb_mode.png,0,,,,,,,,,,,,,,,,,,,,,
,,,,,,00019,2023-08-22_23h26.38.607,vbt_B1_day2,2022.2.4,Win32,60.16485169,,,,,,,,,,,,,,,,,,,,,,,,,,,down,0,13.5054,,,-0.530555556,-0.085185199,1,0,0,0.2828,0,118,118,183,1,getuigen,images/br_getuigen.png,images/cb_getuigen.png,0,,,,,,,,,,,,,,,,,,,,,
,,,,,,00019,2023-08-22_23h26.38.607,vbt_B1_day2,2022.2.4,Win32,60.16485169,,,,,,,,,,,,,,,,,,,,,,,,,,,down,0,4.1472,,,-0.530555556,-0.085185199,1,0,0,0.433,0,119,119,189,1,aanraden,images/br_aanraden.png,images/cb_aanraden.png,0,,,,,,,,,,,,,,,,,,,,,
,,,,,,00019,2023-08-22_23h26.38.607,vbt_B1_day2,2022.2.4,Win32,60.16485169,,,,,,,,,,,,,,,,,,,,,,,,,,,down,0,1.1998,,,-0.530555556,-0.085185199,1,0,0,0.6995,0,120,120,26,1,leuk,images/br_leuk.png,images/cb_leuk.png,0,,,,,,,,,,,,,,,,,,,,,
,,,,,,00019,2023-08-22_23h26.38.607,vbt_B1_day2,2022.2.4,Win32,60.16485169,,,,,,,,,,,,,,,,,,,,,,,,,,,down,0,1.6736,,,-0.530555556,-0.085185199,1,0,0,0.4328,0,121,121,55,1,praat,images/br_praat.png,images/cb_praat.png,0,,,,,,,,,,,,,,,,,,,,,
,,,,,,00019,2023-08-22_23h26.38.607,vbt_B1_day2,2022.2.4,Win32,60.16485169,,,,,,,,,,,,,,,,,,,,,,,,,,,down,0,2.9105,loyaal,,-0.530555556,-0.085185199,1,0,0,0.5496,0,122,122,97,1,loyaal,images/br_loyaal.png,images/cb_loyaal.png,1,,,,,,,,,,,,,,,,,,,,,
,,,,,,00019,2023-08-22_23h26.38.607,vbt_B1_day2,2022.2.4,Win32,60.16485169,,,,,,,,,,,,,,,,,,,,,,,,,,,down,0,2.8266,,,-0.530555556,-0.085185199,1,0,0,0.9991,0,123,123,39,1,laag,images/br_laag.png,images/cb_laag.png,0,,,,,,,,,,,,,,,,,,,,,
,,,,,,00019,2023-08-22_23h26.38.607,vbt_B1_day2,2022.2.4,Win32,60.16485169,,,,,,,,,,,,,,,,,,,,,,,,,,,down,0,2.4079,geit,,-0.530555556,-0.085185199,1,0,0,0.4829,0,124,124,19,1,geit,images/br_geit.png,images/cb_geit.png,1,,,,,,,,,,,,,,,,,,,,,
,,,,,,00019,2023-08-22_23h26.38.607,vbt_B1_day2,2022.2.4,Win32,60.16485169,,,,,,,,,,,,,,,,,,,,,,,,,,,down,0,12.8849,,,-0.530555556,-0.085185199,1,0,0,0.4828,0,125,125,94,1,oceaan,images/br_oceaan.png,images/cb_oceaan.png,0,,,,,,,,,,,,,,,,,,,,,
,,,,,,00019,2023-08-22_23h26.38.607,vbt_B1_day2,2022.2.4,Win32,60.16485169,,,,,,,,,,,,,,,,,,,,,,,,,,,down,0,25.8574,,,-0.530555556,-0.085185199,1,0,0,2.864,0,126,126,142,1,snuiven,images/br_snuiven.png,images/cb_snuiven.png,0,,,,,,,,,,,,,,,,,,,,,
,,,,,,00019,2023-08-22_23h26.38.607,vbt_B1_day2,2022.2.4,Win32,60.16485169,,,,,,,,,,,,,,,,,,,,,,,,,,,down,0,0.3377,,,-0.530555556,-0.085185199,1,0,0,0.4828,0,127,127,6,1,diep,images/br_diep.png,images/cb_diep.png,0,,,,,,,,,,,,,,,,,,,,,
,,,,,,00019,2023-08-22_23h26.38.607,vbt_B1_day2,2022.2.4,Win32,60.16485169,,,,,,,,,,,,,,,,,,,,,,,,,,,down,0,1.8499,,,-0.530555556,-0.085185199,1,0,0,0.4662,0,128,128,75,1,snoep,images/br_snoep.png,images/cb_snoep.png,0,,,,,,,,,,,,,,,,,,,,,
,,,,,,00019,2023-08-22_23h26.38.607,vbt_B1_day2,2022.2.4,Win32,60.16485169,,,,,,,,,,,,,,,,,,,,,,,,,,,down,0,9.2927,,,-0.530555556,-0.085185199,1,0,0,0.3996,0,129,129,123,1,hiervan,images/br_hiervan.png,images/cb_hiervan.png,0,,,,,,,,,,,,,,,,,,,,,
,,,,,,00019,2023-08-22_23h26.38.607,vbt_B1_day2,2022.2.4,Win32,60.16485169,,,,,,,,,,,,,,,,,,,,,,,,,,,down,0,5.5181,traag,,-0.530555556,-0.085185199,1,0,0,0.5661,0,130,130,56,1,traag,images/br_traag.png,images/cb_traag.png,1,,,,,,,,,,,,,,,,,,,,,
,,,,,,00019,2023-08-22_23h26.38.607,vbt_B1_day2,2022.2.4,Win32,60.16485169,,,,,,,,,,,,,,,,,,,,,,,,,,,down,0,2.7486,,,-0.530555556,-0.085185199,1,0,0,0.4827,0,131,131,141,1,knielen,images/br_knielen.png,images/cb_knielen.png,0,,,,,,,,,,,,,,,,,,,,,
,,,,,,00019,2023-08-22_23h26.38.607,vbt_B1_day2,2022.2.4,Win32,60.16485169,,,,,,,,,,,,,,,,,,,,,,,,,,,down,0,5.1131,,,-0.530555556,-0.085185199,1,0,0,0.4828,0,132,132,113,1,koppen,images/br_koppen.png,images/cb_koppen.png,0,,,,,,,,,,,,,,,,,,,,,
,,,,,,00019,2023-08-22_23h26.38.607,vbt_B1_day2,2022.2.4,Win32,60.16485169,,,,,,,,,,,,,,,,,,,,,,,,,,,down,0,5.2101,,,-0.530555556,-0.085185199,1,0,0,0.5658,0,133,133,35,1,lust,images/br_lust.png,images/cb_lust.png,0,,,,,,,,,,,,,,,,,,,,,
,,,,,,00019,2023-08-22_23h26.38.607,vbt_B1_day2,2022.2.4,Win32,60.16485169,,,,,,,,,,,,,,,,,,,,,,,,,,,down,0,5.9406,,,-0.530555556,-0.085185199,1,0,0,0.3999,0,134,134,61,1,groen,images/br_groen.png,images/cb_groen.png,0,,,,,,,,,,,,,,,,,,,,,
,,,,,,00019,2023-08-22_23h26.38.607,vbt_B1_day2,2022.2.4,Win32,60.16485169,,,,,,,,,,,,,,,,,,,,,,,,,,,down,0,9.5362,,,-0.530555556,-0.085185199,1,0,0,0.4998,0,135,135,104,1,zweven,images/br_zweven.png,images/cb_zweven.png,0,,,,,,,,,,,,,,,,,,,,,
,,,,,,00019,2023-08-22_23h26.38.607,vbt_B1_day2,2022.2.4,Win32,60.16485169,,,,,,,,,,,,,,,,,,,,,,,,,,,down,0,1.6877,,,-0.530555556,-0.085185199,1,0,0,0.4496,0,136,136,128,1,prikken,images/br_prikken.png,images/cb_prikken.png,0,,,,,,,,,,,,,,,,,,,,,
,,,,,,00019,2023-08-22_23h26.38.607,vbt_B1_day2,2022.2.4,Win32,60.16485169,,,,,,,,,,,,,,,,,,,,,,,,,,,down,0,0.1536,,,-0.530555556,-0.085185199,1,0,0,0.3495,0,137,137,13,1,kaal,images/br_kaal.png,images/cb_kaal.png,0,,,,,,,,,,,,,,,,,,,,,
,,,,,,00019,2023-08-22_23h26.38.607,vbt_B1_day2,2022.2.4,Win32,60.16485169,,,,,,,,,,,,,,,,,,,,,,,,,,,down,0,1.4285,,,-0.530555556,-0.085185199,1,0,0,0.4165,0,138,138,48,1,steel,images/br_steel.png,images/cb_steel.png,0,,,,,,,,,,,,,,,,,,,,,
,,,,,,00019,2023-08-22_23h26.38.607,vbt_B1_day2,2022.2.4,Win32,60.16485169,,,,,,,,,,,,,,,,,,,,,,,,,,,down,0,2.0206,,,-0.530555556,-0.085185199,1,0,0,0.4662,0,139,139,20,1,site,images/br_site.png,images/cb_site.png,0,,,,,,,,,,,,,,,,,,,,,
,,,,,,00019,2023-08-22_23h26.38.607,vbt_B1_day2,2022.2.4,Win32,60.16485169,,,,,,,,,,,,,,,,,,,,,,,,,,,down,0,35.8101,woestijn,,-0.530555556,-0.085185199,1,0,0,0.6161,0,140,140,179,1,woestijn,images/br_woestijn.png,images/cb_woestijn.png,1,,,,,,,,,,,,,,,,,,,,,
,,,,,,00019,2023-08-22_23h26.38.607,vbt_B1_day2,2022.2.4,Win32,60.16485169,,,,,,,,,,,,,,,,,,,,,,,,,,,down,0,10.592,,,-0.530555556,-0.085185199,1,0,0,0.4166,0,141,141,127,1,doodmoe,images/br_doodmoe.png,images/cb_doodmoe.png,0,,,,,,,,,,,,,,,,,,,,,
,,,,,,00019,2023-08-22_23h26.38.607,vbt_B1_day2,2022.2.4,Win32,60.16485169,,,,,,,,,,,,,,,,,,,,,,,,,,,down,0,7.2331,,,-0.530555556,-0.085185199,1,0,0,0.516,0,142,142,131,1,opzicht,images/br_opzicht.png,images/cb_opzicht.png,0,,,,,,,,,,,,,,,,,,,,,
,,,,,,00019,2023-08-22_23h26.38.607,vbt_B1_day2,2022.2.4,Win32,60.16485169,,,,,,,,,,,,,,,,,,,,,,,,,,,down,0,2.9197,,,-0.530555556,-0.085185199,1,0,0,0.433,0,143,143,161,1,attentie,images/br_attentie.png,images/cb_attentie.png,0,,,,,,,,,,,,,,,,,,,,,
,,,,,,00019,2023-08-22_23h26.38.607,vbt_B1_day2,2022.2.4,Win32,60.16485169,,,,,,,,,,,,,,,,,,,,,,,,,,,down,0,8.3541,,,-0.530555556,-0.085185199,1,0,0,0.4995,0,144,144,51,1,samen,images/br_samen.png,images/cb_samen.png,0,,,,,,,,,,,,,,,,,,,,,
,,,,,,00019,2023-08-22_23h26.38.607,vbt_B1_day2,2022.2.4,Win32,60.16485169,,,,,,,,,,,,,,,,,,,,,,,,,,,down,0,6.236,,,-0.530555556,-0.085185199,1,0,0,3.4473,0,145,145,72,1,strak,images/br_strak.png,images/cb_strak.png,0,,,,,,,,,,,,,,,,,,,,,
,,,,,,00019,2023-08-22_23h26.38.607,vbt_B1_day2,2022.2.4,Win32,60.16485169,,,,,,,,,,,,,,,,,,,,,,,,,,,down,0,8.8994,,,-0.530555556,-0.085185199,1,0,0,0.7993,0,146,146,197,1,spanning,images/br_spanning.png,images/cb_spanning.png,0,,,,,,,,,,,,,,,,,,,,,
,,,,,,00019,2023-08-22_23h26.38.607,vbt_B1_day2,2022.2.4,Win32,60.16485169,,,,,,,,,,,,,,,,,,,,,,,,,,,down,0,2.4932,,,-0.530555556,-0.085185199,1,0,0,0.5495,0,147,147,112,1,lukken,images/br_lukken.png,images/cb_lukken.png,0,,,,,,,,,,,,,,,,,,,,,
,,,,,,00019,2023-08-22_23h26.38.607,vbt_B1_day2,2022.2.4,Win32,60.16485169,,,,,,,,,,,,,,,,,,,,,,,,,,,down,0,24.7226,,,-0.530555556,-0.085185199,1,0,0,5.4286,0,148,148,152,1,afnemen,images/br_afnemen.png,images/cb_afnemen.png,0,,,,,,,,,,,,,,,,,,,,,
,,,,,,00019,2023-08-22_23h26.38.607,vbt_B1_day2,2022.2.4,Win32,60.16485169,,,,,,,,,,,,,,,,,,,,,,,,,,,down,0,0.7966,,,-0.530555556,-0.085185199,1,0,0,0.4485,0,149,149,29,1,baas,images/br_baas.png,images/cb_baas.png,0,,,,,,,,,,,,,,,,,,,,,
,,,,,,00019,2023-08-22_23h26.38.607,vbt_B1_day2,2022.2.4,Win32,60.16485169,,,,,,,,,,,,,,,,,,,,,,,,,,,down,0,2.918,,,-0.530555556,-0.085185199,1,0,0,0.3832,0,150,150,47,1,kabel,images/br_kabel.png,images/cb_kabel.png,0,,,,,,,,,,,,,,,,,,,,,
,,,,,,00019,2023-08-22_23h26.38.607,vbt_B1_day2,2022.2.4,Win32,60.16485169,,,,,,,,,,,,,,,,,,,,,,,,,,,down,0,1.0723,,,-0.530555556,-0.085185199,1,0,0,0.35,0,151,151,62,1,knaap,images/br_knaap.png,images/cb_knaap.png,0,,,,,,,,,,,,,,,,,,,,,
,,,,,,00019,2023-08-22_23h26.38.607,vbt_B1_day2,2022.2.4,Win32,60.16485169,,,,,,,,,,,,,,,,,,,,,,,,,,,down,0,11.0266,kreeft,,-0.530555556,-0.085185199,1,0,0,0.3345,0,152,152,98,1,kreeft,images/br_kreeft.png,images/cb_kreeft.png,1,,,,,,,,,,,,,,,,,,,,,
,,,,,,00019,2023-08-22_23h26.38.607,vbt_B1_day2,2022.2.4,Win32,60.16485169,,,,,,,,,,,,,,,,,,,,,,,,,,,down,0,11.626,,,-0.530555556,-0.085185199,1,0,0,0.5828,0,153,153,135,1,gedicht,images/br_gedicht.png,images/cb_gedicht.png,0,,,,,,,,,,,,,,,,,,,,,
,,,,,,00019,2023-08-22_23h26.38.607,vbt_B1_day2,2022.2.4,Win32,60.16485169,,,,,,,,,,,,,,,,,,,,,,,,,,,down,0,8.2602,,,-0.530555556,-0.085185199,1,0,0,0.5326,0,154,154,91,1,gezond,images/br_gezond.png,images/cb_gezond.png,0,,,,,,,,,,,,,,,,,,,,,
,,,,,,00019,2023-08-22_23h26.38.607,vbt_B1_day2,2022.2.4,Win32,60.16485169,,,,,,,,,,,,,,,,,,,,,,,,,,,down,0,6.8641,,,-0.530555556,-0.085185199,1,0,0,0.5328,0,155,155,182,1,bijkomen,images/br_bijkomen.png,images/cb_bijkomen.png,0,,,,,,,,,,,,,,,,,,,,,
,,,,,,00019,2023-08-22_23h26.38.607,vbt_B1_day2,2022.2.4,Win32,60.16485169,,,,,,,,,,,,,,,,,,,,,,,,,,,down,0,1.957,,,-0.530555556,-0.085185199,1,0,0,0.5313,0,156,156,101,1,staren,images/br_staren.png,images/cb_staren.png,0,,,,,,,,,,,,,,,,,,,,,
,,,,,,00019,2023-08-22_23h26.38.607,vbt_B1_day2,2022.2.4,Win32,60.16485169,,,,,,,,,,,,,,,,,,,,,,,,,,,down,0,6.2986,kring,,-0.530555556,-0.085185199,1,0,0,1.0661,0,157,157,59,1,kring,images/br_kring.png,images/cb_kring.png,1,,,,,,,,,,,,,,,,,,,,,
,,,,,,00019,2023-08-22_23h26.38.607,vbt_B1_day2,2022.2.4,Win32,60.16485169,,,,,,,,,,,,,,,,,,,,,,,,,,,down,0,5.7868,,,-0.530555556,-0.085185199,1,0,0,0.3496,0,158,158,37,1,mijn,images/br_mijn.png,images/cb_mijn.png,0,,,,,,,,,,,,,,,,,,,,,
,,,,,,00019,2023-08-22_23h26.38.607,vbt_B1_day2,2022.2.4,Win32,60.16485169,,,,,,,,,,,,,,,,,,,,,,,,,,,down,0,9.5767,,,-0.530555556,-0.085185199,1,0,0,0.3657,0,159,159,125,1,aanzien,images/br_aanzien.png,images/cb_aanzien.png,0,,,,,,,,,,,,,,,,,,,,,
,,,,,,00019,2023-08-22_23h26.38.607,vbt_B1_day2,2022.2.4,Win32,60.16485169,,,,,,,,,,,,,,,,,,,,,,,,,,,down,0,1.2658,,,-0.530555556,-0.085185199,1,0,0,0.2332,0,160,160,115,1,kleren,images/br_kleren.png,images/cb_kleren.png,0,,,,,,,,,,,,,,,,,,,,,
,,,,,,00019,2023-08-22_23h26.38.607,vbt_B1_day2,2022.2.4,Win32,60.16485169,,,,,,,,,,,,,,,,,,,,,,,,,,,down,0,10.8297,,,-0.530555556,-0.085185199,1,0,0,1.6484,0,161,161,157,1,uitlaat,images/br_uitlaat.png,images/cb_uitlaat.png,0,,,,,,,,,,,,,,,,,,,,,
,,,,,,00019,2023-08-22_23h26.38.607,vbt_B1_day2,2022.2.4,Win32,60.16485169,,,,,,,,,,,,,,,,,,,,,,,,,,,down,0,2.2831,,,-0.530555556,-0.085185199,1,0,0,0.416,0,162,162,109,1,totaal,images/br_totaal.png,images/cb_totaal.png,0,,,,,,,,,,,,,,,,,,,,,
,,,,,,00019,2023-08-22_23h26.38.607,vbt_B1_day2,2022.2.4,Win32,60.16485169,,,,,,,,,,,,,,,,,,,,,,,,,,,down,0,2.5563,,,-0.530555556,-0.085185199,1,0,0,0.3991,0,163,163,169,1,oprotten,images/br_oprotten.png,images/cb_oprotten.png,0,,,,,,,,,,,,,,,,,,,,,
,,,,,,00019,2023-08-22_23h26.38.607,vbt_B1_day2,2022.2.4,Win32,60.16485169,,,,,,,,,,,,,,,,,,,,,,,,,,,down,0,2.2187,,,-0.530555556,-0.085185199,1,0,0,0.4162,0,164,164,73,1,volop,images/br_volop.png,images/cb_volop.png,0,,,,,,,,,,,,,,,,,,,,,
,,,,,,00019,2023-08-22_23h26.38.607,vbt_B1_day2,2022.2.4,Win32,60.16485169,,,,,,,,,,,,,,,,,,,,,,,,,,,down,0,10.95,,,-0.530555556,-0.085185199,1,0,0,0.4994,0,165,165,82,1,muziek,images/br_muziek.png,images/cb_muziek.png,0,,,,,,,,,,,,,,,,,,,,,
,,,,,,00019,2023-08-22_23h26.38.607,vbt_B1_day2,2022.2.4,Win32,60.16485169,,,,,,,,,,,,,,,,,,,,,,,,,,,down,0,8.2789,,,-0.530555556,-0.085185199,1,0,0,0.3995,0,166,166,195,1,middelen,images/br_middelen.png,images/cb_middelen.png,0,,,,,,,,,,,,,,,,,,,,,
,,,,,,00019,2023-08-22_23h26.38.607,vbt_B1_day2,2022.2.4,Win32,60.16485169,,,,,,,,,,,,,,,,,,,,,,,,,,,down,0,6.0828,,,-0.530555556,-0.085185199,1,0,0,0.6493,0,167,167,134,1,geliefd,images/br_geliefd.png,images/cb_geliefd.png,0,,,,,,,,,,,,,,,,,,,,,
,,,,,,00019,2023-08-22_23h26.38.607,vbt_B1_day2,2022.2.4,Win32,60.16485169,,,,,,,,,,,,,,,,,,,,,,,,,,,down,0,12.3022,,,-0.530555556,-0.085185199,1,0,0,2.6145,0,168,168,108,1,excuus,images/br_excuus.png,images/cb_excuus.png,0,,,,,,,,,,,,,,,,,,,,,
,,,,,,00019,2023-08-22_23h26.38.607,vbt_B1_day2,2022.2.4,Win32,60.16485169,,,,,,,,,,,,,,,,,,,,,,,,,,,down,0,1.8375,,,-0.530555556,-0.085185199,1,0,0,0.3667,0,169,169,41,1,maken,images/br_maken.png,images/cb_maken.png,0,,,,,,,,,,,,,,,,,,,,,
,,,,,,00019,2023-08-22_23h26.38.607,vbt_B1_day2,2022.2.4,Win32,60.16485169,,,,,,,,,,,,,,,,,,,,,,,,,,,down,0,0.9498,,,-0.530555556,-0.085185199,1,0,0,0.4994,0,170,170,132,1,grappen,images/br_grappen.png,images/cb_grappen.png,0,,,,,,,,,,,,,,,,,,,,,
,,,,,,00019,2023-08-22_23h26.38.607,vbt_B1_day2,2022.2.4,Win32,60.16485169,,,,,,,,,,,,,,,,,,,,,,,,,,,down,0,2.7144,,,-0.530555556,-0.085185199,1,0,0,0.2995,0,171,171,198,1,bedoelen,images/br_bedoelen.png,images/cb_bedoelen.png,0,,,,,,,,,,,,,,,,,,,,,
,,,,,,00019,2023-08-22_23h26.38.607,vbt_B1_day2,2022.2.4,Win32,60.16485169,,,,,,,,,,,,,,,,,,,,,,,,,,,down,0,0.9873,,,-0.530555556,-0.085185199,1,0,0,0.283,0,172,172,1,1,zaal,images/br_zaal.png,images/cb_zaal.png,0,,,,,,,,,,,,,,,,,,,,,
,,,,,,00019,2023-08-22_23h26.38.607,vbt_B1_day2,2022.2.4,Win32,60.16485169,,,,,,,,,,,,,,,,,,,,,,,,,,,down,0,11.9788,,,-0.530555556,-0.085185199,1,0,0,0.5826,0,173,173,187,1,opkijken,images/br_opkijken.png,images/cb_opkijken.png,0,,,,,,,,,,,,,,,,,,,,,
,,,,,,00019,2023-08-22_23h26.38.607,vbt_B1_day2,2022.2.4,Win32,60.16485169,,,,,,,,,,,,,,,,,,,,,,,,,,,down,0,3.0759,,,-0.530555556,-0.085185199,1,0,0,0.4155,0,174,174,121,1,twijfel,images/br_twijfel.png,images/cb_twijfel.png,0,,,,,,,,,,,,,,,,,,,,,
,,,,,,00019,2023-08-22_23h26.38.607,vbt_B1_day2,2022.2.4,Win32,60.16485169,,,,,,,,,,,,,,,,,,,,,,,,,,,down,0,3.8981,,,-0.530555556,-0.085185199,1,0,0,0.5328,0,175,175,188,1,strekken,images/br_strekken.png,images/cb_strekken.png,0,,,,,,,,,,,,,,,,,,,,,
,,,,,,00019,2023-08-22_23h26.38.607,vbt_B1_day2,2022.2.4,Win32,60.16485169,,,,,,,,,,,,,,,,,,,,,,,,,,,down,0,8.2641,,,-0.530555556,-0.085185199,1,0,0,0.6829,0,176,176,148,1,smullen,images/br_smullen.png,images/cb_smullen.png,0,,,,,,,,,,,,,,,,,,,,,
,,,,,,00019,2023-08-22_23h26.38.607,vbt_B1_day2,2022.2.4,Win32,60.16485169,,,,,,,,,,,,,,,,,,,,,,,,,,,down,0,1.3429,,,-0.530555556,-0.085185199,1,0,0,0.4328,0,177,177,49,1,laken,images/br_laken.png,images/cb_laken.png,0,,,,,,,,,,,,,,,,,,,,,
,,,,,,00019,2023-08-22_23h26.38.607,vbt_B1_day2,2022.2.4,Win32,60.16485169,,,,,,,,,,,,,,,,,,,,,,,,,,,down,0,2.0271,,,-0.530555556,-0.085185199,1,0,0,0.4996,0,178,178,31,1,poes,images/br_poes.png,images/cb_poes.png,0,,,,,,,,,,,,,,,,,,,,,
,,,,,,00019,2023-08-22_23h26.38.607,vbt_B1_day2,2022.2.4,Win32,60.16485169,,,,,,,,,,,,,,,,,,,,,,,,,,,down,0,2.1196,,,-0.530555556,-0.085185199,1,0,0,0.4995,0,179,179,23,1,zout,images/br_zout.png,images/cb_zout.png,0,,,,,,,,,,,,,,,,,,,,,
,,,,,,00019,2023-08-22_23h26.38.607,vbt_B1_day2,2022.2.4,Win32,60.16485169,,,,,,,,,,,,,,,,,,,,,,,,,,,down,0,1.0997,,,-0.530555556,-0.085185199,1,0,0,0.3995,0,180,180,2,1,jaar,images/br_jaar.png,images/cb_jaar.png,0,,,,,,,,,,,,,,,,,,,,,
,,,,,,00019,2023-08-22_23h26.38.607,vbt_B1_day2,2022.2.4,Win32,60.16485169,,,,,,,,,,,,,,,,,,,,,,,,,,,down,0,12.1567,,,-0.530555556,-0.085185199,1,0,0,1.482,0,181,181,159,1,sufferd,images/br_sufferd.png,images/cb_sufferd.png,0,,,,,,,,,,,,,,,,,,,,,
,,,,,,00019,2023-08-22_23h26.38.607,vbt_B1_day2,2022.2.4,Win32,60.16485169,,,,,,,,,,,,,,,,,,,,,,,,,,,down,0,13.7143,,,-0.529629601,0.050925912,1,0,0,0.4997,0,182,182,175,1,heengaan,images/br_heengaan.png,images/cb_heengaan.png,0,,,,,,,,,,,,,,,,,,,,,
,,,,,,00019,2023-08-22_23h26.38.607,vbt_B1_day2,2022.2.4,Win32,60.16485169,,,,,,,,,,,,,,,,,,,,,,,,,,,down,0,9.7483,,,-0.529629601,0.050925912,1,0,0,0.4495,0,183,183,130,1,keihard,images/br_keihard.png,images/cb_keihard.png,0,,,,,,,,,,,,,,,,,,,,,
,,,,,,00019,2023-08-22_23h26.38.607,vbt_B1_day2,2022.2.4,Win32,60.16485169,,,,,,,,,,,,,,,,,,,,,,,,,,,down,0,8.0375,,,-0.529629601,0.050925912,1,0,0,2.4146,0,184,184,111,1,ticket,images/br_ticket.png,images/cb_ticket.png,0,,,,,,,,,,,,,,,,,,,,,
,,,,,,00019,2023-08-22_23h26.38.607,vbt_B1_day2,2022.2.4,Win32,60.16485169,,,,,,,,,,,,,,,,,,,,,,,,,,,down,0,1.9661,,,-0.529629601,0.050925912,1,0,0,1.2154,0,185,185,38,1,baai,images/br_baai.png,images/cb_baai.png,0,,,,,,,,,,,,,,,,,,,,,
,,,,,,00019,2023-08-22_23h26.38.607,vbt_B1_day2,2022.2.4,Win32,60.16485169,,,,,,,,,,,,,,,,,,,,,,,,,,,down,0,2.6933,,,-0.529629601,0.050925912,1,0,0,0.4494,0,186,186,110,1,zuster,images/br_zuster.png,images/cb_zuster.png,0,,,,,,,,,,,,,,,,,,,,,
,,,,,,00019,2023-08-22_23h26.38.607,vbt_B1_day2,2022.2.4,Win32,60.16485169,,,,,,,,,,,,,,,,,,,,,,,,,,,down,0,0.9556,,,-0.529629601,0.050925912,1,0,0,0.4827,0,187,187,46,1,jagen,images/br_jagen.png,images/cb_jagen.png,0,,,,,,,,,,,,,,,,,,,,,
,,,,,,00019,2023-08-22_23h26.38.607,vbt_B1_day2,2022.2.4,Win32,60.16485169,,,,,,,,,,,,,,,,,,,,,,,,,,,down,0,7.7345,,,-0.529629601,0.050925912,1,0,0,0.383,0,188,188,196,1,nakijken,images/br_nakijken.png,images/cb_nakijken.png,0,,,,,,,,,,,,,,,,,,,,,
,,,,,,00019,2023-08-22_23h26.38.607,vbt_B1_day2,2022.2.4,Win32,60.16485169,,,,,,,,,,,,,,,,,,,,,,,,,,,down,0,1.2444,,,-0.529629601,0.050925912,1,0,0,0.4497,0,189,189,10,1,leek,images/br_leek.png,images/cb_leek.png,0,,,,,,,,,,,,,,,,,,,,,
,,,,,,00019,2023-08-22_23h26.38.607,vbt_B1_day2,2022.2.4,Win32,60.16485169,,,,,,,,,,,,,,,,,,,,,,,,,,,down,0,3.7272,,,-0.529629601,0.050925912,1,0,0,0.4322,0,190,190,167,1,eenhoorn,images/br_eenhoorn.png,images/cb_eenhoorn.png,0,,,,,,,,,,,,,,,,,,,,,
,,,,,,00019,2023-08-22_23h26.38.607,vbt_B1_day2,2022.2.4,Win32,60.16485169,,,,,,,,,,,,,,,,,,,,,,,,,,,down,0,3.9689,,,-0.529629601,0.050925912,1,0,0,0.4495,0,191,191,133,1,seizoen,images/br_seizoen.png,images/cb_seizoen.png,0,,,,,,,,,,,,,,,,,,,,,
,,,,,,00019,2023-08-22_23h26.38.607,vbt_B1_day2,2022.2.4,Win32,60.16485169,,,,,,,,,,,,,,,,,,,,,,,,,,,down,0,5.1578,,,-0.529629601,0.050925912,1,0,0,0.483,0,192,192,155,1,gerucht,images/br_gerucht.png,images/cb_gerucht.png,0,,,,,,,,,,,,,,,,,,,,,
,,,,,,00019,2023-08-22_23h26.38.607,vbt_B1_day2,2022.2.4,Win32,60.16485169,,,,,,,,,,,,,,,,,,,,,,,,,,,down,0,0.8832,,,-0.529629601,0.050925912,1,0,0,0.4329,0,193,193,84,1,lokken,images/br_lokken.png,images/cb_lokken.png,0,,,,,,,,,,,,,,,,,,,,,
,,,,,,00019,2023-08-22_23h26.38.607,vbt_B1_day2,2022.2.4,Win32,60.16485169,,,,,,,,,,,,,,,,,,,,,,,,,,,down,0,21.9276,,,-0.529629601,0.050925912,1,0,0,0.3997,0,194,194,186,1,voorraad,images/br_voorraad.png,images/cb_voorraad.png,0,,,,,,,,,,,,,,,,,,,,,
,,,,,,00019,2023-08-22_23h26.38.607,vbt_B1_day2,2022.2.4,Win32,60.16485169,,,,,,,,,,,,,,,,,,,,,,,,,,,down,0,18.8627,,,-0.529629601,0.050925912,1,0,0,0.4828,0,195,195,192,1,schaamte,images/br_schaamte.png,images/cb_schaamte.png,0,,,,,,,,,,,,,,,,,,,,,
,,,,,,00019,2023-08-22_23h26.38.607,vbt_B1_day2,2022.2.4,Win32,60.16485169,,,,,,,,,,,,,,,,,,,,,,,,,,,down,0,2.498,,,-0.529629601,0.050925912,1,0,0,0.4162,0,196,196,150,1,gegeven,images/br_gegeven.png,images/cb_gegeven.png,0,,,,,,,,,,,,,,,,,,,,,
,,,,,,00019,2023-08-22_23h26.38.607,vbt_B1_day2,2022.2.4,Win32,60.16485169,,,,,,,,,,,,,,,,,,,,,,,,,,,down,0,1.5607,,,-0.529629601,0.050925912,1,0,0,0.4328,0,197,197,54,1,gebit,images/br_gebit.png,images/cb_gebit.png,0,,,,,,,,,,,,,,,,,,,,,
,,,,,,00019,2023-08-22_23h26.38.607,vbt_B1_day2,2022.2.4,Win32,60.16485169,,,,,,,,,,,,,,,,,,,,,,,,,,,down,0,7.7585,,,-0.549074067,0.05370369,1,0,0,0.4817,0,198,198,145,1,invloed,images/br_invloed.png,images/cb_invloed.png,0,,,,,,,,,,,,,,,,,,,,,
,,,,,,00019,2023-08-22_23h26.38.607,vbt_B1_day2,2022.2.4,Win32,60.16485169,,,,,,,,,,,,,,,,,,,,,,,,,,,down,0,11.1842,,,-0.549074067,0.055555556,1,0,0,2.8304,0,199,199,43,1,klauw,images/br_klauw.png,images/cb_klauw.png,0,,,,,,,,,,,,,,,,,,,,,
,,,,,,00019,2023-08-22_23h26.38.607,vbt_B1_day2,2022.2.4,Win32,60.16485169,,,,,,,,,,,,,,,,,,,,,,,,,,,,,,,,,,,,,,,,,,,,,,,-0.517592578,0.199074067,1,0,0,,,,,,,,,,,,,,,,
,,,,,,00019,2023-08-22_23h26.38.607,vbt_B1_day2,2022.2.4,Win32,60.16485169,,,,,,,,,,,,,,,,,,,,,,,,,,,,,,,,,,,,,,,,,,,,,,,,,,,,-0.517592578,0.199074067,1,0,0,,,,,,,,,,,
,,,,,,00019,2023-08-22_23h26.38.607,vbt_B1_day2,2022.2.4,Win32,60.16485169,,,,,,,,,,,,,,,,,,,,,,,,,,,,,,sytten,,,,,,,,,,,,,systeem,images/br_systeem.png,images/cb_systeem.png,,,,,,,,,,,,-0.517592578,0.199074067,1,0,0,sytten,0,0,0,54,1
,,,,,,00019,2023-08-22_23h26.38.607,vbt_B1_day2,2022.2.4,Win32,60.16485169,,,,,,,,,,,,,,,,,,,,,,,,,,,,,,tand,,,,,,,,,,,,,tand,images/br_tand.png,images/cb_tand.png,,,,,,,,,,,,-0.517592578,0.199074067,1,0,0,tand,0,1,1,42,1
,,,,,,00019,2023-08-22_23h26.38.607,vbt_B1_day2,2022.2.4,Win32,60.16485169,,,,,,,,,,,,,,,,,,,,,,,,,,,,,,eenhoorn,,,,,,,,,,,,,eenhoorn,images/br_eenhoorn.png,images/cb_eenhoorn.png,,,,,,,,,,,,-0.430555556,-0.05648151,1,0,0,eenhoorn,0,2,2,19,1
,,,,,,00019,2023-08-22_23h26.38.607,vbt_B1_day2,2022.2.4,Win32,60.16485169,,,,,,,,,,,,,,,,,,,,,,,,,,,,,,heengaan,,,,,,,,,,,,,heengeen,images/br_heengeen.png,images/cb_heengeen.png,,,,,,,,,,,,-0.430555556,-0.05648151,1,0,0,heengaan,0,3,3,38,1
,,,,,,00019,2023-08-22_23h26.38.607,vbt_B1_day2,2022.2.4,Win32,60.16485169,,,,,,,,,,,,,,,,,,,,,,,,,,,,,,negel,,,,,,,,,,,,,negel,images/br_negel.png,images/cb_negel.png,,,,,,,,,,,,-0.430555556,-0.05648151,1,0,0,negel,0,4,4,24,1
,,,,,,00019,2023-08-22_23h26.38.607,vbt_B1_day2,2022.2.4,Win32,60.16485169,,,,,,,,,,,,,,,,,,,,,,,,,,,,,,aanzoen,,,,,,,,,,,,,aanzien,images/br_aanzien.png,images/cb_aanzien.png,,,,,,,,,,,,-0.430555556,-0.05648151,1,0,0,aanzoen,0,5,5,13,1
,,,,,,00019,2023-08-22_23h26.38.607,vbt_B1_day2,2022.2.4,Win32,60.16485169,,,,,,,,,,,,,,,,,,,,,,,,,,,,,,br..k,,,,,,,,,,,,,breuk,images/br_breuk.png,images/cb_breuk.png,,,,,,,,,,,,-0.430555556,-0.05648151,1,0,0,br..k,0,6,6,45,1
,,,,,,00019,2023-08-22_23h26.38.607,vbt_B1_day2,2022.2.4,Win32,60.16485169,,,,,,,,,,,,,,,,,,,,,,,,,,,,,,opm....,,,,,,,,,,,,,ophuimen,images/br_ophuimen.png,images/cb_ophuimen.png,,,,,,,,,,,,-0.430555556,-0.05648151,1,0,0,opm....,0,7,7,36,1
,,,,,,00019,2023-08-22_23h26.38.607,vbt_B1_day2,2022.2.4,Win32,60.16485169,,,,,,,,,,,,,,,,,,,,,,,,,,,,,,plannen,,,,,,,,,,,,,plannen,images/br_plannen.png,images/cb_plannen.png,,,,,,,,,,,,-0.430555556,-0.05648151,1,0,0,plannen,0,8,8,55,1
,,,,,,00019,2023-08-22_23h26.38.607,vbt_B1_day2,2022.2.4,Win32,60.16485169,,,,,,,,,,,,,,,,,,,,,,,,,,,,,,l..ren,,,,,,,,,,,,,lurgen,images/br_lurgen.png,images/cb_lurgen.png,,,,,,,,,,,,-0.430555556,-0.05648151,1,0,0,l..ren,0,9,9,29,1
,,,,,,00019,2023-08-22_23h26.38.607,vbt_B1_day2,2022.2.4,Win32,60.16485169,,,,,,,,,,,,,,,,,,,,,,,,,,,,,,trots,,,,,,,,,,,,,trots,images/br_trots.png,images/cb_trots.png,,,,,,,,,,,,-0.430555556,-0.05648151,1,0,0,trots,0,10,10,44,1
,,,,,,00019,2023-08-22_23h26.38.607,vbt_B1_day2,2022.2.4,Win32,60.16485169,,,,,,,,,,,,,,,,,,,,,,,,,,,,,,bere....,,,,,,,,,,,,,bereuwen,images/br_bereuwen.png,images/cb_bereuwen.png,,,,,,,,,,,,-0.430555556,-0.05648151,1,0,0,bere....,0,11,11,39,1
,,,,,,00019,2023-08-22_23h26.38.607,vbt_B1_day2,2022.2.4,Win32,60.16485169,,,,,,,,,,,,,,,,,,,,,,,,,,,,,,re.el,,,,,,,,,,,,,remel,images/br_remel.png,images/cb_remel.png,,,,,,,,,,,,-0.525,-0.032407422,1,0,0,re.el,0,12,12,25,1
,,,,,,00019,2023-08-22_23h26.38.607,vbt_B1_day2,2022.2.4,Win32,60.16485169,,,,,,,,,,,,,,,,,,,,,,,,,,,,,,woning,,,,,,,,,,,,,woning,images/br_woning.png,images/cb_woning.png,,,,,,,,,,,,-0.525,-0.032407422,1,0,0,woning,0,13,13,10,1
,,,,,,00019,2023-08-22_23h26.38.607,vbt_B1_day2,2022.2.4,Win32,60.16485169,,,,,,,,,,,,,,,,,,,,,,,,,,,,,,siff...,,,,,,,,,,,,,sifferd,images/br_sifferd.png,images/cb_sifferd.png,,,,,,,,,,,,-0.525,-0.032407422,1,0,0,siff...,0,14,14,32,1
,,,,,,00019,2023-08-22_23h26.38.607,vbt_B1_day2,2022.2.4,Win32,60.16485169,,,,,,,,,,,,,,,,,,,,,,,,,,,,,,blad,,,,,,,,,,,,,blad,images/br_blad.png,images/cb_blad.png,,,,,,,,,,,,-0.525,-0.032407422,1,0,0,blad,0,15,15,1,1
,,,,,,00019,2023-08-22_23h26.38.607,vbt_B1_day2,2022.2.4,Win32,60.16485169,,,,,,,,,,,,,,,,,,,,,,,,,,,,,,tweeling,,,,,,,,,,,,,tweeling,images/br_tweeling.png,images/cb_tweeling.png,,,,,,,,,,,,-0.525,-0.032407422,1,0,0,tweeling,0,16,16,58,1
,,,,,,00019,2023-08-22_23h26.38.607,vbt_B1_day2,2022.2.4,Win32,60.16485169,,,,,,,,,,,,,,,,,,,,,,,,,,,,,,jong,,,,,,,,,,,,,jong,images/br_jong.png,images/cb_jong.png,,,,,,,,,,,,-0.525,-0.032407422,1,0,0,jong,0,17,17,43,1
,,,,,,00019,2023-08-22_23h26.38.607,vbt_B1_day2,2022.2.4,Win32,60.16485169,,,,,,,,,,,,,,,,,,,,,,,,,,,,,,koorts,,,,,,,,,,,,,koorts,images/br_koorts.png,images/cb_koorts.png,,,,,,,,,,,,-0.525,-0.032407422,1,0,0,koorts,0,18,18,50,1
,,,,,,00019,2023-08-22_23h26.38.607,vbt_B1_day2,2022.2.4,Win32,60.16485169,,,,,,,,,,,,,,,,,,,,,,,,,,,,,,flits,,,,,,,,,,,,,flits,images/br_flits.png,images/cb_flits.png,,,,,,,,,,,,-0.525,-0.032407422,1,0,0,flits,0,19,19,4,1
,,,,,,00019,2023-08-22_23h26.38.607,vbt_B1_day2,2022.2.4,Win32,60.16485169,,,,,,,,,,,,,,,,,,,,,,,,,,,,,,wijv.,,,,,,,,,,,,,wijve,images/br_wijve.png,images/cb_wijve.png,,,,,,,,,,,,-0.525,-0.032407422,1,0,0,wijv.,0,20,20,27,1
,,,,,,00019,2023-08-22_23h26.38.607,vbt_B1_day2,2022.2.4,Win32,60.16485169,,,,,,,,,,,,,,,,,,,,,,,,,,,,,,zingen,,,,,,,,,,,,,ningen,images/br_ningen.png,images/cb_ningen.png,,,,,,,,,,,,-0.525,-0.032407422,1,0,0,zingen,0,21,21,28,1
,,,,,,00019,2023-08-22_23h26.38.607,vbt_B1_day2,2022.2.4,Win32,60.16485169,,,,,,,,,,,,,,,,,,,,,,,,,,,,,,lijnen,,,,,,,,,,,,,lijnen,images/br_lijnen.png,images/cb_lijnen.png,,,,,,,,,,,,-0.525,-0.032407422,1,0,0,lijnen,0,22,22,51,1
,,,,,,00019,2023-08-22_23h26.38.607,vbt_B1_day2,2022.2.4,Win32,60.16485169,,,,,,,,,,,,,,,,,,,,,,,,,,,,,,t....,,,,,,,,,,,,,thema,images/br_thema.png,images/cb_thema.png,,,,,,,,,,,,-0.525,-0.032407422,1,0,0,t....,0,23,23,47,1
,,,,,,00019,2023-08-22_23h26.38.607,vbt_B1_day2,2022.2.4,Win32,60.16485169,,,,,,,,,,,,,,,,,,,,,,,,,,,,,,dode,,,,,,,,,,,,,dode,images/br_dode.png,images/cb_dode.png,,,,,,,,,,,,-0.525,-0.032407422,1,0,0,dode,0,24,24,41,1
,,,,,,00019,2023-08-22_23h26.38.607,vbt_B1_day2,2022.2.4,Win32,60.16485169,,,,,,,,,,,,,,,,,,,,,,,,,,,,,,welzijn,,,,,,,,,,,,,welzijn,images/br_welzijn.png,images/cb_welzijn.png,,,,,,,,,,,,-0.525,-0.032407422,1,0,0,welzijn,0,25,25,52,1
,,,,,,00019,2023-08-22_23h26.38.607,vbt_B1_day2,2022.2.4,Win32,60.16485169,,,,,,,,,,,,,,,,,,,,,,,,,,,,,,bloeien,,,,,,,,,,,,,bloeien,images/br_bloeien.png,images/cb_bloeien.png,,,,,,,,,,,,-0.525,-0.032407422,1,0,0,bloeien,0,26,26,12,1
,,,,,,00019,2023-08-22_23h26.38.607,vbt_B1_day2,2022.2.4,Win32,60.16485169,,,,,,,,,,,,,,,,,,,,,,,,,,,,,,kabel,,,,,,,,,,,,,kabel,images/br_kabel.png,images/cb_kabel.png,,,,,,,,,,,,-0.525,-0.032407422,1,0,0,kabel,0,27,27,7,1
,,,,,,00019,2023-08-22_23h26.38.607,vbt_B1_day2,2022.2.4,Win32,60.16485169,,,,,,,,,,,,,,,,,,,,,,,,,,,,,,geld,,,,,,,,,,,,,geld,images/br_geld.png,images/cb_geld.png,,,,,,,,,,,,-0.525,-0.032407422,1,0,0,geld,0,28,28,3,1
,,,,,,00019,2023-08-22_23h26.38.607,vbt_B1_day2,2022.2.4,Win32,60.16485169,,,,,,,,,,,,,,,,,,,,,,,,,,,,,,toeval,,,,,,,,,,,,,toeval,images/br_toeval.png,images/cb_toeval.png,,,,,,,,,,,,-0.525,-0.032407422,1,0,0,toeval,0,29,29,11,1
,,,,,,00019,2023-08-22_23h26.38.607,vbt_B1_day2,2022.2.4,Win32,60.16485169,,,,,,,,,,,,,,,,,,,,,,,,,,,,,,goon,,,,,,,,,,,,,goon,images/br_goon.png,images/cb_goon.png,,,,,,,,,,,,-0.525,-0.032407422,1,0,0,goon,0,30,30,23,1
,,,,,,00019,2023-08-22_23h26.38.607,vbt_B1_day2,2022.2.4,Win32,60.16485169,,,,,,,,,,,,,,,,,,,,,,,,,,,,,,sjij...,,,,,,,,,,,,,sjijfel,images/br_sjijfel.png,images/cb_sjijfel.png,,,,,,,,,,,,-0.525,-0.032407422,1,0,0,sjij...,0,31,31,33,1
,,,,,,00019,2023-08-22_23h26.38.607,vbt_B1_day2,2022.2.4,Win32,60.16485169,,,,,,,,,,,,,,,,,,,,,,,,,,,,,,diep,,,,,,,,,,,,,diep,images/br_diep.png,images/cb_diep.png,,,,,,,,,,,,-0.525,-0.032407422,1,0,0,diep,0,32,32,2,1
,,,,,,00019,2023-08-22_23h26.38.607,vbt_B1_day2,2022.2.4,Win32,60.16485169,,,,,,,,,,,,,,,,,,,,,,,,,,,,,,piste,,,,,,,,,,,,,piste,images/br_piste.png,images/cb_piste.png,,,,,,,,,,,,-0.525,-0.032407422,1,0,0,piste,0,33,33,5,1
,,,,,,00019,2023-08-22_23h26.38.607,vbt_B1_day2,2022.2.4,Win32,60.16485169,,,,,,,,,,,,,,,,,,,,,,,,,,,,,,strikken,,,,,,,,,,,,,strikken,images/br_strikken.png,images/cb_strikken.png,,,,,,,,,,,,-0.525,-0.032407422,1,0,0,strikken,0,34,34,18,1
,,,,,,00019,2023-08-22_23h26.38.607,vbt_B1_day2,2022.2.4,Win32,60.16485169,,,,,,,,,,,,,,,,,,,,,,,,,,,,,,zegel,,,,,,,,,,,,,zegel,images/br_zegel.png,images/cb_zegel.png,,,,,,,,,,,,-0.525,-0.032407422,1,0,0,zegel,0,35,35,46,1
,,,,,,00019,2023-08-22_23h26.38.607,vbt_B1_day2,2022.2.4,Win32,60.16485169,,,,,,,,,,,,,,,,,,,,,,,,,,,,,,clan,,,,,,,,,,,,,clan,images/br_clan.png,images/cb_clan.png,,,,,,,,,,,,-0.525,-0.032407422,1,0,0,clan,0,36,36,40,1
,,,,,,00019,2023-08-22_23h26.38.607,vbt_B1_day2,2022.2.4,Win32,60.16485169,,,,,,,,,,,,,,,,,,,,,,,,,,,,,,stes,,,,,,,,,,,,,stes,images/br_stes.png,images/cb_stes.png,,,,,,,,,,,,-0.525,-0.032407422,1,0,0,stes,0,37,37,21,1
,,,,,,00019,2023-08-22_23h26.38.607,vbt_B1_day2,2022.2.4,Win32,60.16485169,,,,,,,,,,,,,,,,,,,,,,,,,,,,,,.......,,,,,,,,,,,,,feestdag,images/br_feestdag.png,images/cb_feestdag.png,,,,,,,,,,,,-0.525,-0.032407422,1,0,0,.......,0,38,38,17,1
,,,,,,00019,2023-08-22_23h26.38.607,vbt_B1_day2,2022.2.4,Win32,60.16485169,,,,,,,,,,,,,,,,,,,,,,,,,,,,,,agressie,,,,,,,,,,,,,agressie,images/br_agressie.png,images/cb_agressie.png,,,,,,,,,,,,-0.525,-0.032407422,1,0,0,agressie,0,39,39,59,1
,,,,,,00019,2023-08-22_23h26.38.607,vbt_B1_day2,2022.2.4,Win32,60.16485169,,,,,,,,,,,,,,,,,,,,,,,,,,,,,,sora,,,,,,,,,,,,,sora,images/br_sora.png,images/cb_sora.png,,,,,,,,,,,,-0.525,-0.032407422,1,0,0,sora,0,40,40,22,1
,,,,,,00019,2023-08-22_23h26.38.607,vbt_B1_day2,2022.2.4,Win32,60.16485169,,,,,,,,,,,,,,,,,,,,,,,,,,,,,,jagen,,,,,,,,,,,,,jagen,images/br_jagen.png,images/cb_jagen.png,,,,,,,,,,,,-0.525,-0.032407422,1,0,0,jagen,0,41,41,6,1
,,,,,,00019,2023-08-22_23h26.38.607,vbt_B1_day2,2022.2.4,Win32,60.16485169,,,,,,,,,,,,,,,,,,,,,,,,,,,,,,kenzist,,,,,,,,,,,,,kenzis,images/br_kenzis.png,images/cb_kenzis.png,,,,,,,,,,,,-0.525,-0.032407422,1,0,0,kenzist,0,42,42,30,1
,,,,,,00019,2023-08-22_23h26.38.607,vbt_B1_day2,2022.2.4,Win32,60.16485169,,,,,,,,,,,,,,,,,,,,,,,,,,,,,,inzicht,,,,,,,,,,,,,inzicht,images/br_inzicht.png,images/cb_inzicht.png,,,,,,,,,,,,-0.525,-0.032407422,1,0,0,inzicht,0,43,43,53,1
,,,,,,00019,2023-08-22_23h26.38.607,vbt_B1_day2,2022.2.4,Win32,60.16485169,,,,,,,,,,,,,,,,,,,,,,,,,,,,,,zomrst,,,,,,,,,,,,,zomers,images/br_zomers.png,images/cb_zomers.png,,,,,,,,,,,,-0.525,-0.032407422,1,0,0,zomrst,0,44,44,48,1
,,,,,,00019,2023-08-22_23h26.38.607,vbt_B1_day2,2022.2.4,Win32,60.16485169,,,,,,,,,,,,,,,,,,,,,,,,,,,,,,opratten,,,,,,,,,,,,,opdatten,images/br_opdatten.png,images/cb_opdatten.png,,,,,,,,,,,,-0.525,-0.032407422,1,0,0,opratten,0,45,45,37,1
,,,,,,00019,2023-08-22_23h26.38.607,vbt_B1_day2,2022.2.4,Win32,60.16485169,,,,,,,,,,,,,,,,,,,,,,,,,,,,,,dood...,,,,,,,,,,,,,doodmoe,images/br_doodmoe.png,images/cb_doodmoe.png,,,,,,,,,,,,-0.525,-0.032407422,1,0,0,dood...,0,46,46,15,1
,,,,,,00019,2023-08-22_23h26.38.607,vbt_B1_day2,2022.2.4,Win32,60.16485169,,,,,,,,,,,,,,,,,,,,,,,,,,,,,,kasteel,,,,,,,,,,,,,kasteel,images/br_kasteel.png,images/cb_kasteel.png,,,,,,,,,,,,-0.525,-0.032407422,1,0,0,kasteel,0,47,47,14,1
,,,,,,00019,2023-08-22_23h26.38.607,vbt_B1_day2,2022.2.4,Win32,60.16485169,,,,,,,,,,,,,,,,,,,,,,,,,,,,,,.aniet...,,,,,,,,,,,,,manieren,images/br_manieren.png,images/cb_manieren.png,,,,,,,,,,,,-0.525,-0.032407422,1,0,0,.aniet...,0,48,48,56,1
,,,,,,00019,2023-08-22_23h26.38.607,vbt_B1_day2,2022.2.4,Win32,60.16485169,,,,,,,,,,,,,,,,,,,,,,,,,,,,,,aanvraag,,,,,,,,,,,,,aanvraag,images/br_aanvraag.png,images/cb_aanvraag.png,,,,,,,,,,,,-0.525,-0.032407422,1,0,0,aanvraag,0,49,49,57,1
,,,,,,00019,2023-08-22_23h26.38.607,vbt_B1_day2,2022.2.4,Win32,60.16485169,,,,,,,,,,,,,,,,,,,,,,,,,,,,,,kre..e.,,,,,,,,,,,,,krimmen,images/br_krimmen.png,images/cb_krimmen.png,,,,,,,,,,,,-0.525,-0.032407422,1,0,0,kre..e.,0,50,50,35,1
,,,,,,00019,2023-08-22_23h26.38.607,vbt_B1_day2,2022.2.4,Win32,60.16485169,,,,,,,,,,,,,,,,,,,,,,,,,,,,,,joes,,,,,,,,,,,,,joes,images/br_joes.png,images/cb_joes.png,,,,,,,,,,,,-0.525,-0.032407422,1,0,0,joes,0,51,51,20,1
,,,,,,00019,2023-08-22_23h26.38.607,vbt_B1_day2,2022.2.4,Win32,60.16485169,,,,,,,,,,,,,,,,,,,,,,,,,,,,,,lokken,,,,,,,,,,,,,lokken,images/br_lokken.png,images/cb_lokken.png,,,,,,,,,,,,-0.489814801,-0.107407422,1,0,0,lokken,0,52,52,8,1
,,,,,,00019,2023-08-22_23h26.38.607,vbt_B1_day2,2022.2.4,Win32,60.16485169,,,,,,,,,,,,,,,,,,,,,,,,,,,,,,kejlen,,,,,,,,,,,,,kijlen,images/br_kijlen.png,images/cb_kijlen.png,,,,,,,,,,,,-0.445370356,-0.044444444,1,0,0,kejlen,0,53,53,31,1
,,,,,,00019,2023-08-22_23h26.38.607,vbt_B1_day2,2022.2.4,Win32,60.16485169,,,,,,,,,,,,,,,,,,,,,,,,,,,,,,anarchie,,,,,,,,,,,,,anarchie,images/br_anarchie.png,images/cb_anarchie.png,,,,,,,,,,,,-0.445370356,-0.044444444,1,0,0,anarchie,0,54,54,16,1
,,,,,,00019,2023-08-22_23h26.38.607,vbt_B1_day2,2022.2.4,Win32,60.16485169,,,,,,,,,,,,,,,,,,,,,,,,,,,,,,heilig,,,,,,,,,,,,,heilig,images/br_heilig.png,images/cb_heilig.png,,,,,,,,,,,,-0.445370356,-0.044444444,1,0,0,heilig,0,55,55,9,1
,,,,,,00019,2023-08-22_23h26.38.607,vbt_B1_day2,2022.2.4,Win32,60.16485169,,,,,,,,,,,,,,,,,,,,,,,,,,,,,,zwager,,,,,,,,,,,,,zwager,images/br_zwager.png,images/cb_zwager.png,,,,,,,,,,,,-0.445370356,-0.044444444,1,0,0,zwager,0,56,56,49,1
,,,,,,00019,2023-08-22_23h26.38.607,vbt_B1_day2,2022.2.4,Win32,60.16485169,,,,,,,,,,,,,,,,,,,,,,,,,,,,,,moes,,,,,,,,,,,,,moes,images/br_moes.png,images/cb_moes.png,,,,,,,,,,,,-0.445370356,-0.044444444,1,0,0,moes,0,57,57,0,1
,,,,,,00019,2023-08-22_23h26.38.607,vbt_B1_day2,2022.2.4,Win32,60.16485169,,,,,,,,,,,,,,,,,,,,,,,,,,,,,,prekken,,,,,,,,,,,,,prekken,images/br_prekken.png,images/cb_prekken.png,,,,,,,,,,,,-0.445370356,-0.044444444,1,0,0,prekken,0,58,58,34,1
,,,,,,00019,2023-08-22_23h26.38.607,vbt_B1_day2,2022.2.4,Win32,60.16485169,,,,,,,,,,,,,,,,,,,,,,,,,,,,,,badon,,,,,,,,,,,,,badon,images/br_badon.png,images/cb_badon.png,,,,,,,,,,,,-0.445370356,-0.044444444,1,0,0,badon,0,59,59,26,1
,,,,,,00019,2023-08-22_23h26.38.607,vbt_B1_day2,2022.2.4,Win32,60.16485169,,,,,,,,,,,,,,,,,,,,,,,,,,,,,,,,,,,,,,,,,,,,,,,,,,,,,,,,,,,,,,,,,,,
