welcome_mouse.x,welcome_mouse.y,welcome_mouse.leftButton,welcome_mouse.midButton,welcome_mouse.rightButton,welcome_mouse.time,"ID",date,expName,psychopyVersion,OS,frameRate,refresh_mouse.x,refresh_mouse.y,refresh_mouse.leftButton,refresh_mouse.midButton,refresh_mouse.rightButton,refresh_mouse.time,braille_mouse.x,braille_mouse.y,braille_mouse.leftButton,braille_mouse.midButton,braille_mouse.rightButton,braille_mouse.time,trials.thisRepN,trials.thisTrialN,trials.thisN,trials.thisIndex,trials.ran,nlLet,brLet,cbLet,trainInstr_mouse.x,trainInstr_mouse.y,trainInstr_mouse.leftButton,trainInstr_mouse.midButton,trainInstr_mouse.rightButton,trainInstr_mouse.time,translation_key.keys,translation_key.corr,translation_key.rt,word_rsp.text,word_mouse.x,word_mouse.y,word_mouse.leftButton,word_mouse.midButton,word_mouse.rightButton,word_mouse.time,train_loop.thisRepN,train_loop.thisTrialN,train_loop.thisN,train_loop.thisIndex,train_loop.ran,nlWrd,brWrd,cbWrd,test,testResp,mouse.x,mouse.y,mouse.leftButton,mouse.midButton,mouse.rightButton,testInstr_mouse.x,testInstr_mouse.y,testInstr_mouse.leftButton,testInstr_mouse.midButton,testInstr_mouse.rightButton,test_mouse.x,test_mouse.y,test_mouse.leftButton,test_mouse.midButton,test_mouse.rightButton,test_response.text,test_loop.thisRepN,test_loop.thisTrialN,test_loop.thisN,test_loop.thisIndex,test_loop.ran
-0.163888861,-0.236111111,1,0,0,11.1501,00084,2023-10-23_14h10.15.091,vbt_B1_day2,2022.2.4,Win32,60.72014087,,,,,,,,,,,,,,,,,,,,,,,,,,,,,,,,,,,,,,,,,,,,,,,,,,,,,,,,,,,,,,,,,,,
,,,,,,00084,2023-10-23_14h10.15.091,vbt_B1_day2,2022.2.4,Win32,60.72014087,-0.163888861,-0.236111111,1,0,0,12.1458,,,,,,,,,,,,,,,,,,,,,,,,,,,,,,,,,,,,,,,,,,,,,,,,,,,,,,,,,,,,,
,,,,,,00084,2023-10-23_14h10.15.091,vbt_B1_day2,2022.2.4,Win32,60.72014087,,,,,,,-0.163888861,-0.236111111,1,0,0,15.8187,0,0,0,20,1,u,images/br_u.png,images/cb_u.png,,,,,,,,,,,,,,,,,,,,,,,,,,,,,,,,,,,,,,,,,,,,,,,
,,,,,,00084,2023-10-23_14h10.15.091,vbt_B1_day2,2022.2.4,Win32,60.72014087,,,,,,,-0.163888861,-0.236111111,1,0,0,12.2051,0,1,1,17,1,r,images/br_r.png,images/cb_r.png,,,,,,,,,,,,,,,,,,,,,,,,,,,,,,,,,,,,,,,,,,,,,,,
,,,,,,00084,2023-10-23_14h10.15.091,vbt_B1_day2,2022.2.4,Win32,60.72014087,,,,,,,-0.163888861,-0.236111111,1,0,0,8.5502,0,2,2,3,1,d,images/br_d.png,images/cb_d.png,,,,,,,,,,,,,,,,,,,,,,,,,,,,,,,,,,,,,,,,,,,,,,,
,,,,,,00084,2023-10-23_14h10.15.091,vbt_B1_day2,2022.2.4,Win32,60.72014087,,,,,,,-0.163888861,-0.236111111,1,0,0,10.1375,0,3,3,23,1,x,images/br_x.png,images/cb_x.png,,,,,,,,,,,,,,,,,,,,,,,,,,,,,,,,,,,,,,,,,,,,,,,
,,,,,,00084,2023-10-23_14h10.15.091,vbt_B1_day2,2022.2.4,Win32,60.72014087,,,,,,,-0.163888861,-0.236111111,1,0,0,13.4561,0,4,4,10,1,k,images/br_k.png,images/cb_k.png,,,,,,,,,,,,,,,,,,,,,,,,,,,,,,,,,,,,,,,,,,,,,,,
,,,,,,00084,2023-10-23_14h10.15.091,vbt_B1_day2,2022.2.4,Win32,60.72014087,,,,,,,-0.163888861,-0.236111111,1,0,0,7.8877,0,5,5,15,1,p,images/br_p.png,images/cb_p.png,,,,,,,,,,,,,,,,,,,,,,,,,,,,,,,,,,,,,,,,,,,,,,,
,,,,,,00084,2023-10-23_14h10.15.091,vbt_B1_day2,2022.2.4,Win32,60.72014087,,,,,,,-0.163888861,-0.236111111,1,0,0,8.1378,0,6,6,5,1,f,images/br_f.png,images/cb_f.png,,,,,,,,,,,,,,,,,,,,,,,,,,,,,,,,,,,,,,,,,,,,,,,
,,,,,,00084,2023-10-23_14h10.15.091,vbt_B1_day2,2022.2.4,Win32,60.72014087,,,,,,,-0.163888861,-0.236111111,1,0,0,15.6217,0,7,7,13,1,n,images/br_n.png,images/cb_n.png,,,,,,,,,,,,,,,,,,,,,,,,,,,,,,,,,,,,,,,,,,,,,,,
,,,,,,00084,2023-10-23_14h10.15.091,vbt_B1_day2,2022.2.4,Win32,60.72014087,,,,,,,-0.163888861,-0.236111111,1,0,0,7.6185,0,8,8,14,1,o,images/br_o.png,images/cb_o.png,,,,,,,,,,,,,,,,,,,,,,,,,,,,,,,,,,,,,,,,,,,,,,,
,,,,,,00084,2023-10-23_14h10.15.091,vbt_B1_day2,2022.2.4,Win32,60.72014087,,,,,,,-0.163888861,-0.236111111,1,0,0,6.1188,0,9,9,1,1,b,images/br_b.png,images/cb_b.png,,,,,,,,,,,,,,,,,,,,,,,,,,,,,,,,,,,,,,,,,,,,,,,
,,,,,,00084,2023-10-23_14h10.15.091,vbt_B1_day2,2022.2.4,Win32,60.72014087,,,,,,,-0.163888861,-0.236111111,1,0,0,3.9007,0,10,10,2,1,c,images/br_c.png,images/cb_c.png,,,,,,,,,,,,,,,,,,,,,,,,,,,,,,,,,,,,,,,,,,,,,,,
,,,,,,00084,2023-10-23_14h10.15.091,vbt_B1_day2,2022.2.4,Win32,60.72014087,,,,,,,0.169444473,-0.080555563,1,0,0,10.4721,0,11,11,0,1,a,images/br_a.png,images/cb_a.png,,,,,,,,,,,,,,,,,,,,,,,,,,,,,,,,,,,,,,,,,,,,,,,
,,,,,,00084,2023-10-23_14h10.15.091,vbt_B1_day2,2022.2.4,Win32,60.72014087,,,,,,,0.169444473,-0.080555563,1,0,0,10.7206,0,12,12,25,1,z,images/br_z.png,images/cb_z.png,,,,,,,,,,,,,,,,,,,,,,,,,,,,,,,,,,,,,,,,,,,,,,,
,,,,,,00084,2023-10-23_14h10.15.091,vbt_B1_day2,2022.2.4,Win32,60.72014087,,,,,,,0.169444473,-0.080555563,1,0,0,6.4192,0,13,13,21,1,v,images/br_v.png,images/cb_v.png,,,,,,,,,,,,,,,,,,,,,,,,,,,,,,,,,,,,,,,,,,,,,,,
,,,,,,00084,2023-10-23_14h10.15.091,vbt_B1_day2,2022.2.4,Win32,60.72014087,,,,,,,0.169444473,-0.080555563,1,0,0,5.2187,0,14,14,11,1,l,images/br_l.png,images/cb_l.png,,,,,,,,,,,,,,,,,,,,,,,,,,,,,,,,,,,,,,,,,,,,,,,
,,,,,,00084,2023-10-23_14h10.15.091,vbt_B1_day2,2022.2.4,Win32,60.72014087,,,,,,,0.169444473,-0.080555563,1,0,0,5.5197,0,15,15,8,1,i,images/br_i.png,images/cb_i.png,,,,,,,,,,,,,,,,,,,,,,,,,,,,,,,,,,,,,,,,,,,,,,,
,,,,,,00084,2023-10-23_14h10.15.091,vbt_B1_day2,2022.2.4,Win32,60.72014087,,,,,,,0.169444473,-0.080555563,1,0,0,4.9351,0,16,16,9,1,j,images/br_j.png,images/cb_j.png,,,,,,,,,,,,,,,,,,,,,,,,,,,,,,,,,,,,,,,,,,,,,,,
,,,,,,00084,2023-10-23_14h10.15.091,vbt_B1_day2,2022.2.4,Win32,60.72014087,,,,,,,0.169444473,-0.080555563,1,0,0,8.3185,0,17,17,24,1,y,images/br_y.png,images/cb_y.png,,,,,,,,,,,,,,,,,,,,,,,,,,,,,,,,,,,,,,,,,,,,,,,
,,,,,,00084,2023-10-23_14h10.15.091,vbt_B1_day2,2022.2.4,Win32,60.72014087,,,,,,,0.169444473,-0.080555563,1,0,0,5.3527,0,18,18,12,1,m,images/br_m.png,images/cb_m.png,,,,,,,,,,,,,,,,,,,,,,,,,,,,,,,,,,,,,,,,,,,,,,,
,,,,,,00084,2023-10-23_14h10.15.091,vbt_B1_day2,2022.2.4,Win32,60.72014087,,,,,,,0.169444473,-0.080555563,1,0,0,5.2344,0,19,19,7,1,h,images/br_h.png,images/cb_h.png,,,,,,,,,,,,,,,,,,,,,,,,,,,,,,,,,,,,,,,,,,,,,,,
,,,,,,00084,2023-10-23_14h10.15.091,vbt_B1_day2,2022.2.4,Win32,60.72014087,,,,,,,0.169444473,-0.080555563,1,0,0,6.3525,0,20,20,18,1,s,images/br_s.png,images/cb_s.png,,,,,,,,,,,,,,,,,,,,,,,,,,,,,,,,,,,,,,,,,,,,,,,
,,,,,,00084,2023-10-23_14h10.15.091,vbt_B1_day2,2022.2.4,Win32,60.72014087,,,,,,,0.169444473,-0.080555563,1,0,0,6.8358,0,21,21,22,1,w,images/br_w.png,images/cb_w.png,,,,,,,,,,,,,,,,,,,,,,,,,,,,,,,,,,,,,,,,,,,,,,,
,,,,,,00084,2023-10-23_14h10.15.091,vbt_B1_day2,2022.2.4,Win32,60.72014087,,,,,,,0.169444473,-0.080555563,1,0,0,8.9861,0,22,22,19,1,t,images/br_t.png,images/cb_t.png,,,,,,,,,,,,,,,,,,,,,,,,,,,,,,,,,,,,,,,,,,,,,,,
,,,,,,00084,2023-10-23_14h10.15.091,vbt_B1_day2,2022.2.4,Win32,60.72014087,,,,,,,0.169444473,-0.080555563,1,0,0,4.3688,0,23,23,4,1,e,images/br_e.png,images/cb_e.png,,,,,,,,,,,,,,,,,,,,,,,,,,,,,,,,,,,,,,,,,,,,,,,
,,,,,,00084,2023-10-23_14h10.15.091,vbt_B1_day2,2022.2.4,Win32,60.72014087,,,,,,,0.169444473,-0.080555563,1,0,0,6.786,0,24,24,16,1,q,images/br_q.png,images/cb_q.png,,,,,,,,,,,,,,,,,,,,,,,,,,,,,,,,,,,,,,,,,,,,,,,
,,,,,,00084,2023-10-23_14h10.15.091,vbt_B1_day2,2022.2.4,Win32,60.72014087,,,,,,,0.169444473,-0.080555563,1,0,0,8.3531,0,25,25,6,1,g,images/br_g.png,images/cb_g.png,,,,,,,,,,,,,,,,,,,,,,,,,,,,,,,,,,,,,,,,,,,,,,,
,,,,,,00084,2023-10-23_14h10.15.091,vbt_B1_day2,2022.2.4,Win32,60.72014087,,,,,,,,,,,,,,,,,,,,,0.169444473,-0.080555563,1,0,0,67.3162,,,,,,,,,,,,,,,,,,,,,,,,,,,,,,,,,,,,,,,,,
,,,,,,00084,2023-10-23_14h10.15.091,vbt_B1_day2,2022.2.4,Win32,60.72014087,,,,,,,,,,,,,,,,,,,,,,,,,,,down,0,32.7841,,0.169444473,-0.080555563,1,0,0,5.0899,0,0,0,120,1,klimmen,images/br_klimmen.png,images/cb_klimmen.png,0,,,,,,,,,,,,,,,,,,,,,,
,,,,,,00084,2023-10-23_14h10.15.091,vbt_B1_day2,2022.2.4,Win32,60.72014087,,,,,,,,,,,,,,,,,,,,,,,,,,,down,0,14.8227,,0.169444473,-0.080555563,1,0,0,2.2174,0,1,1,76,1,afval,images/br_afval.png,images/cb_afval.png,0,,,,,,,,,,,,,,,,,,,,,,
,,,,,,00084,2023-10-23_14h10.15.091,vbt_B1_day2,2022.2.4,Win32,60.72014087,,,,,,,,,,,,,,,,,,,,,,,,,,,down,0,16.808,,0.169444473,-0.080555563,1,0,0,1.1681,0,2,2,122,1,waarvan,images/br_waarvan.png,images/cb_waarvan.png,0,,,,,,,,,,,,,,,,,,,,,,
,,,,,,00084,2023-10-23_14h10.15.091,vbt_B1_day2,2022.2.4,Win32,60.72014087,,,,,,,,,,,,,,,,,,,,,,,,,,,down,0,9.7043,,0.169444473,-0.080555563,1,0,0,0.8208,0,3,3,113,1,koppen,images/br_koppen.png,images/cb_koppen.png,0,,,,,,,,,,,,,,,,,,,,,,
,,,,,,00084,2023-10-23_14h10.15.091,vbt_B1_day2,2022.2.4,Win32,60.72014087,,,,,,,,,,,,,,,,,,,,,,,,,,,down,0,24.0959,,0.169444473,-0.080555563,1,0,0,1.1838,0,4,4,157,1,uitlaat,images/br_uitlaat.png,images/cb_uitlaat.png,0,,,,,,,,,,,,,,,,,,,,,,
,,,,,,00084,2023-10-23_14h10.15.091,vbt_B1_day2,2022.2.4,Win32,60.72014087,,,,,,,,,,,,,,,,,,,,,,,,,,,down,0,13.7133,,0.169444473,-0.080555563,1,0,0,0.5994,0,5,5,52,1,wagon,images/br_wagon.png,images/cb_wagon.png,0,,,,,,,,,,,,,,,,,,,,,,
,,,,,,00084,2023-10-23_14h10.15.091,vbt_B1_day2,2022.2.4,Win32,60.72014087,,,,,,,,,,,,,,,,,,,,,,,,,,,down,0,8.7372,,0.169444473,-0.080555563,1,0,0,0.7326,0,6,6,15,1,soda,images/br_soda.png,images/cb_soda.png,0,,,,,,,,,,,,,,,,,,,,,,
,,,,,,00084,2023-10-23_14h10.15.091,vbt_B1_day2,2022.2.4,Win32,60.72014087,,,,,,,,,,,,,,,,,,,,,,,,,,,down,0,30.6855,,0.169444473,-0.080555563,1,0,0,0.6557,0,7,7,40,1,schep,images/br_schep.png,images/cb_schep.png,0,,,,,,,,,,,,,,,,,,,,,,
,,,,,,00084,2023-10-23_14h10.15.091,vbt_B1_day2,2022.2.4,Win32,60.72014087,,,,,,,,,,,,,,,,,,,,,,,,,,,down,0,21.0291,,0.169444473,-0.080555563,1,0,0,0.8338,0,8,8,77,1,woede,images/br_woede.png,images/cb_woede.png,0,,,,,,,,,,,,,,,,,,,,,,
,,,,,,00084,2023-10-23_14h10.15.091,vbt_B1_day2,2022.2.4,Win32,60.72014087,,,,,,,,,,,,,,,,,,,,,,,,,,,down,0,17.8262,,0.169444473,-0.080555563,1,0,0,0.5889,0,9,9,116,1,besmet,images/br_besmet.png,images/cb_besmet.png,0,,,,,,,,,,,,,,,,,,,,,,
,,,,,,00084,2023-10-23_14h10.15.091,vbt_B1_day2,2022.2.4,Win32,60.72014087,,,,,,,,,,,,,,,,,,,,,,,,,,,down,0,11.8288,,0.169444473,-0.080555563,1,0,0,0.7155,0,10,10,4,1,moes,images/br_moes.png,images/cb_moes.png,0,,,,,,,,,,,,,,,,,,,,,,
,,,,,,00084,2023-10-23_14h10.15.091,vbt_B1_day2,2022.2.4,Win32,60.72014087,,,,,,,,,,,,,,,,,,,,,,,,,,,down,0,18.9143,,0.169444473,-0.080555563,1,0,0,8.3541,0,11,11,1,1,zaal,images/br_zaal.png,images/cb_zaal.png,0,,,,,,,,,,,,,,,,,,,,,,
,,,,,,00084,2023-10-23_14h10.15.091,vbt_B1_day2,2022.2.4,Win32,60.72014087,,,,,,,,,,,,,,,,,,,,,,,,,,,down,0,21.6464,,0.169444473,-0.080555563,1,0,0,2.7344,0,12,12,96,1,slagen,images/br_slagen.png,images/cb_slagen.png,1,slagen,,,,,,,,,,,,,,,,,,,,,
,,,,,,00084,2023-10-23_14h10.15.091,vbt_B1_day2,2022.2.4,Win32,60.72014087,,,,,,,,,,,,,,,,,,,,,,,,,,,down,0,1.9259,,0.169444473,-0.080555563,1,0,0,1.0045,0,13,13,74,1,graaf,images/br_graaf.png,images/cb_graaf.png,0,,,,,,,,,,,,,,,,,,,,,,
,,,,,,00084,2023-10-23_14h10.15.091,vbt_B1_day2,2022.2.4,Win32,60.72014087,,,,,,,,,,,,,,,,,,,,,,,,,,,down,0,1.7233,,0.169444473,-0.080555563,1,0,0,1.0001,0,14,14,92,1,geheim,images/br_geheim.png,images/cb_geheim.png,0,,,,,,,,,,,,,,,,,,,,,,
,,,,,,00084,2023-10-23_14h10.15.091,vbt_B1_day2,2022.2.4,Win32,60.72014087,,,,,,,,,,,,,,,,,,,,,,,,,,,down,0,7.2109,,0.169444473,-0.080555563,1,0,0,7.9576,0,15,15,16,1,ziek,images/br_ziek.png,images/cb_ziek.png,1,ziek,,,,,,,,,,,,,,,,,,,,,
,,,,,,00084,2023-10-23_14h10.15.091,vbt_B1_day2,2022.2.4,Win32,60.72014087,,,,,,,,,,,,,,,,,,,,,,,,,,,down,0,0.6349,,0.169444473,-0.080555563,1,0,0,0.8877,0,16,16,38,1,baai,images/br_baai.png,images/cb_baai.png,0,,,,,,,,,,,,,,,,,,,,,,
,,,,,,00084,2023-10-23_14h10.15.091,vbt_B1_day2,2022.2.4,Win32,60.72014087,,,,,,,,,,,,,,,,,,,,,,,,,,,down,0,0.8549,,0.169444473,-0.080555563,1,0,0,0.6682,0,17,17,115,1,kleren,images/br_kleren.png,images/cb_kleren.png,0,,,,,,,,,,,,,,,,,,,,,,
,,,,,,00084,2023-10-23_14h10.15.091,vbt_B1_day2,2022.2.4,Win32,60.72014087,,,,,,,,,,,,,,,,,,,,,,,,,,,down,0,1.8217,,0.169444473,-0.080555563,1,0,0,0.667,0,18,18,134,1,geliefd,images/br_geliefd.png,images/cb_geliefd.png,0,,,,,,,,,,,,,,,,,,,,,,
,,,,,,00084,2023-10-23_14h10.15.091,vbt_B1_day2,2022.2.4,Win32,60.72014087,,,,,,,,,,,,,,,,,,,,,,,,,,,down,0,0.7015,,0.169444473,-0.080555563,1,0,0,1.2326,0,19,19,126,1,kasteel,images/br_kasteel.png,images/cb_kasteel.png,0,,,,,,,,,,,,,,,,,,,,,,
,,,,,,00084,2023-10-23_14h10.15.091,vbt_B1_day2,2022.2.4,Win32,60.72014087,,,,,,,,,,,,,,,,,,,,,,,,,,,down,0,1.1994,,0.169444473,-0.080555563,1,0,0,0.884,0,20,20,186,1,voorraad,images/br_voorraad.png,images/cb_voorraad.png,0,,,,,,,,,,,,,,,,,,,,,,
,,,,,,00084,2023-10-23_14h10.15.091,vbt_B1_day2,2022.2.4,Win32,60.72014087,,,,,,,,,,,,,,,,,,,,,,,,,,,down,0,1.7169,,0.169444473,-0.080555563,1,0,0,0.7125,0,21,21,164,1,anarchie,images/br_anarchie.png,images/cb_anarchie.png,0,,,,,,,,,,,,,,,,,,,,,,
,,,,,,00084,2023-10-23_14h10.15.091,vbt_B1_day2,2022.2.4,Win32,60.72014087,,,,,,,,,,,,,,,,,,,,,,,,,,,down,0,0.3174,,0.169444473,-0.080555563,1,0,0,1.1882,0,22,22,21,1,mist,images/br_mist.png,images/cb_mist.png,0,,,,,,,,,,,,,,,,,,,,,,
,,,,,,00084,2023-10-23_14h10.15.091,vbt_B1_day2,2022.2.4,Win32,60.72014087,,,,,,,,,,,,,,,,,,,,,,,,,,,down,0,0.9512,,0.169444473,-0.080555563,1,0,0,0.6501,0,23,23,183,1,getuigen,images/br_getuigen.png,images/cb_getuigen.png,0,,,,,,,,,,,,,,,,,,,,,,
,,,,,,00084,2023-10-23_14h10.15.091,vbt_B1_day2,2022.2.4,Win32,60.72014087,,,,,,,,,,,,,,,,,,,,,,,,,,,down,0,14.7979,,0.169444473,-0.080555563,1,0,0,0.7842,0,24,24,18,1,blik,images/br_blik.png,images/cb_blik.png,1,blik,,,,,,,,,,,,,,,,,,,,,
,,,,,,00084,2023-10-23_14h10.15.091,vbt_B1_day2,2022.2.4,Win32,60.72014087,,,,,,,,,,,,,,,,,,,,,,,,,,,down,0,0.5923,,0.169444473,-0.080555563,1,0,0,1.7999,0,25,25,188,1,strekken,images/br_strekken.png,images/cb_strekken.png,0,,,,,,,,,,,,,,,,,,,,,,
,,,,,,00084,2023-10-23_14h10.15.091,vbt_B1_day2,2022.2.4,Win32,60.72014087,,,,,,,,,,,,,,,,,,,,,,,,,,,down,0,0.3331,,0.169444473,-0.080555563,1,0,0,1.1623,0,26,26,82,1,muziek,images/br_muziek.png,images/cb_muziek.png,0,,,,,,,,,,,,,,,,,,,,,,
,,,,,,00084,2023-10-23_14h10.15.091,vbt_B1_day2,2022.2.4,Win32,60.72014087,,,,,,,,,,,,,,,,,,,,,,,,,,,down,0,0.965,,0.169444473,-0.080555563,1,0,0,1.4518,0,27,27,150,1,gegeven,images/br_gegeven.png,images/cb_gegeven.png,0,,,,,,,,,,,,,,,,,,,,,,
,,,,,,00084,2023-10-23_14h10.15.091,vbt_B1_day2,2022.2.4,Win32,60.72014087,,,,,,,,,,,,,,,,,,,,,,,,,,,down,0,3.156,,0.169444473,-0.080555563,1,0,0,0.8011,0,28,28,78,1,leren,images/br_leren.png,images/cb_leren.png,0,,,,,,,,,,,,,,,,,,,,,,
,,,,,,00084,2023-10-23_14h10.15.091,vbt_B1_day2,2022.2.4,Win32,60.72014087,,,,,,,,,,,,,,,,,,,,,,,,,,,down,0,1.1563,,0.169444473,-0.080555563,1,0,0,0.7992,0,29,29,166,1,strikken,images/br_strikken.png,images/cb_strikken.png,0,,,,,,,,,,,,,,,,,,,,,,
,,,,,,00084,2023-10-23_14h10.15.091,vbt_B1_day2,2022.2.4,Win32,60.72014087,,,,,,,,,,,,,,,,,,,,,,,,,,,down,0,0.4996,,0.169444473,-0.080555563,1,0,0,1.1464,0,30,30,80,1,kanjer,images/br_kanjer.png,images/cb_kanjer.png,0,,,,,,,,,,,,,,,,,,,,,,
,,,,,,00084,2023-10-23_14h10.15.091,vbt_B1_day2,2022.2.4,Win32,60.72014087,,,,,,,,,,,,,,,,,,,,,,,,,,,down,0,0.8236,,0.169444473,-0.080555563,1,0,0,0.8,0,31,31,84,1,lokken,images/br_lokken.png,images/cb_lokken.png,0,,,,,,,,,,,,,,,,,,,,,,
,,,,,,00084,2023-10-23_14h10.15.091,vbt_B1_day2,2022.2.4,Win32,60.72014087,,,,,,,,,,,,,,,,,,,,,,,,,,,down,0,4.1336,,0.169444473,-0.080555563,1,0,0,0.6634,0,32,32,127,1,doodmoe,images/br_doodmoe.png,images/cb_doodmoe.png,0,,,,,,,,,,,,,,,,,,,,,,
,,,,,,00084,2023-10-23_14h10.15.091,vbt_B1_day2,2022.2.4,Win32,60.72014087,,,,,,,,,,,,,,,,,,,,,,,,,,,down,0,1.6006,,0.169444473,-0.080555563,1,0,0,0.4169,0,33,33,117,1,kennis,images/br_kennis.png,images/cb_kennis.png,0,,,,,,,,,,,,,,,,,,,,,,
,,,,,,00084,2023-10-23_14h10.15.091,vbt_B1_day2,2022.2.4,Win32,60.72014087,,,,,,,,,,,,,,,,,,,,,,,,,,,down,0,2.4931,,0.169444473,-0.080555563,1,0,0,3.2008,0,34,34,160,1,daarheen,images/br_daarheen.png,images/cb_daarheen.png,0,,,,,,,,,,,,,,,,,,,,,,
,,,,,,00084,2023-10-23_14h10.15.091,vbt_B1_day2,2022.2.4,Win32,60.72014087,,,,,,,,,,,,,,,,,,,,,,,,,,,down,0,0.0737,,0.169444473,-0.080555563,1,0,0,0.8211,0,35,35,172,1,weigeren,images/br_weigeren.png,images/cb_weigeren.png,0,,,,,,,,,,,,,,,,,,,,,,
,,,,,,00084,2023-10-23_14h10.15.091,vbt_B1_day2,2022.2.4,Win32,60.72014087,,,,,,,,,,,,,,,,,,,,,,,,,,,down,0,3.135,,0.169444473,-0.080555563,1,0,0,1.2328,0,36,36,148,1,smullen,images/br_smullen.png,images/cb_smullen.png,0,,,,,,,,,,,,,,,,,,,,,,
,,,,,,00084,2023-10-23_14h10.15.091,vbt_B1_day2,2022.2.4,Win32,60.72014087,,,,,,,,,,,,,,,,,,,,,,,,,,,down,0,2.1847,,0.169444473,-0.080555563,1,0,0,0.8516,0,37,37,28,1,stal,images/br_stal.png,images/cb_stal.png,0,,,,,,,,,,,,,,,,,,,,,,
,,,,,,00084,2023-10-23_14h10.15.091,vbt_B1_day2,2022.2.4,Win32,60.72014087,,,,,,,,,,,,,,,,,,,,,,,,,,,down,0,1.0655,,0.169444473,-0.080555563,1,0,0,0.8297,0,38,38,71,1,bever,images/br_bever.png,images/cb_bever.png,0,,,,,,,,,,,,,,,,,,,,,,
,,,,,,00084,2023-10-23_14h10.15.091,vbt_B1_day2,2022.2.4,Win32,60.72014087,,,,,,,,,,,,,,,,,,,,,,,,,,,down,0,1.5255,,0.169444473,-0.080555563,1,0,0,0.7209,0,39,39,87,1,toeval,images/br_toeval.png,images/cb_toeval.png,0,,,,,,,,,,,,,,,,,,,,,,
,,,,,,00084,2023-10-23_14h10.15.091,vbt_B1_day2,2022.2.4,Win32,60.72014087,,,,,,,,,,,,,,,,,,,,,,,,,,,down,0,9.3764,,0.169444473,-0.080555563,1,0,0,0.6663,0,40,40,17,1,taal,images/br_taal.png,images/cb_taal.png,1,taal,,,,,,,,,,,,,,,,,,,,,
,,,,,,00084,2023-10-23_14h10.15.091,vbt_B1_day2,2022.2.4,Win32,60.72014087,,,,,,,,,,,,,,,,,,,,,,,,,,,down,0,0.9664,,0.169444473,-0.080555563,1,0,0,1.88,0,41,41,102,1,legaal,images/br_legaal.png,images/cb_legaal.png,0,,,,,,,,,,,,,,,,,,,,,,
,,,,,,00084,2023-10-23_14h10.15.091,vbt_B1_day2,2022.2.4,Win32,60.72014087,,,,,,,,,,,,,,,,,,,,,,,,,,,down,0,1.4353,,0.169444473,-0.080555563,1,0,0,1.9677,0,42,42,63,1,flirt,images/br_flirt.png,images/cb_flirt.png,0,,,,,,,,,,,,,,,,,,,,,,
,,,,,,00084,2023-10-23_14h10.15.091,vbt_B1_day2,2022.2.4,Win32,60.72014087,,,,,,,,,,,,,,,,,,,,,,,,,,,down,0,2.4517,,0.169444473,-0.080555563,1,0,0,1.2828,0,43,43,7,1,geld,images/br_geld.png,images/cb_geld.png,0,,,,,,,,,,,,,,,,,,,,,,
,,,,,,00084,2023-10-23_14h10.15.091,vbt_B1_day2,2022.2.4,Win32,60.72014087,,,,,,,,,,,,,,,,,,,,,,,,,,,down,0,2.0828,,0.169444473,-0.080555563,1,0,0,1.0133,0,44,44,195,1,middelen,images/br_middelen.png,images/cb_middelen.png,0,,,,,,,,,,,,,,,,,,,,,,
,,,,,,00084,2023-10-23_14h10.15.091,vbt_B1_day2,2022.2.4,Win32,60.72014087,,,,,,,,,,,,,,,,,,,,,,,,,,,down,0,0.2696,,0.169444473,-0.080555563,1,0,0,1.3508,0,45,45,130,1,keihard,images/br_keihard.png,images/cb_keihard.png,0,,,,,,,,,,,,,,,,,,,,,,
,,,,,,00084,2023-10-23_14h10.15.091,vbt_B1_day2,2022.2.4,Win32,60.72014087,,,,,,,,,,,,,,,,,,,,,,,,,,,down,0,1.95,,0.169444473,-0.080555563,1,0,0,1.3129,0,46,46,108,1,excuus,images/br_excuus.png,images/cb_excuus.png,0,,,,,,,,,,,,,,,,,,,,,,
,,,,,,00084,2023-10-23_14h10.15.091,vbt_B1_day2,2022.2.4,Win32,60.72014087,,,,,,,,,,,,,,,,,,,,,,,,,,,down,0,1.7004,,0.169444473,-0.080555563,1,0,0,1.8458,0,47,47,158,1,innemen,images/br_innemen.png,images/cb_innemen.png,0,,,,,,,,,,,,,,,,,,,,,,
,,,,,,00084,2023-10-23_14h10.15.091,vbt_B1_day2,2022.2.4,Win32,60.72014087,,,,,,,,,,,,,,,,,,,,,,,,,,,down,0,1.1126,,0.169444473,-0.080555563,1,0,0,1.3841,0,48,48,152,1,afnemen,images/br_afnemen.png,images/cb_afnemen.png,0,,,,,,,,,,,,,,,,,,,,,,
,,,,,,00084,2023-10-23_14h10.15.091,vbt_B1_day2,2022.2.4,Win32,60.72014087,,,,,,,,,,,,,,,,,,,,,,,,,,,down,0,0.4753,,0.169444473,-0.080555563,1,0,0,1.3835,0,49,49,65,1,parel,images/br_parel.png,images/cb_parel.png,0,,,,,,,,,,,,,,,,,,,,,,
,,,,,,00084,2023-10-23_14h10.15.091,vbt_B1_day2,2022.2.4,Win32,60.72014087,,,,,,,,,,,,,,,,,,,,,,,,,,,down,0,1.5722,,0.169444473,-0.080555563,1,0,0,1.5661,0,50,50,175,1,heengaan,images/br_heengaan.png,images/cb_heengaan.png,0,,,,,,,,,,,,,,,,,,,,,,
,,,,,,00084,2023-10-23_14h10.15.091,vbt_B1_day2,2022.2.4,Win32,60.72014087,,,,,,,,,,,,,,,,,,,,,,,,,,,down,0,2.3741,,0.169444473,-0.080555563,1,0,0,3.9388,0,51,51,112,1,lukken,images/br_lukken.png,images/cb_lukken.png,0,,,,,,,,,,,,,,,,,,,,,,
,,,,,,00084,2023-10-23_14h10.15.091,vbt_B1_day2,2022.2.4,Win32,60.72014087,,,,,,,,,,,,,,,,,,,,,,,,,,,down,0,0.0505,,0.169444473,-0.080555563,1,0,0,3.8504,0,52,52,31,1,poes,images/br_poes.png,images/cb_poes.png,0,,,,,,,,,,,,,,,,,,,,,,
,,,,,,00084,2023-10-23_14h10.15.091,vbt_B1_day2,2022.2.4,Win32,60.72014087,,,,,,,,,,,,,,,,,,,,,,,,,,,down,0,8.3714,,0.169444473,-0.080555563,1,0,0,6.4525,0,53,53,140,1,blijven,images/br_blijven.png,images/cb_blijven.png,0,,,,,,,,,,,,,,,,,,,,,,
,,,,,,00084,2023-10-23_14h10.15.091,vbt_B1_day2,2022.2.4,Win32,60.72014087,,,,,,,,,,,,,,,,,,,,,,,,,,,down,0,10.2751,,0.169444473,-0.080555563,1,0,0,0.7667,0,54,54,138,1,akkoord,images/br_akkoord.png,images/cb_akkoord.png,1,akkoord,,,,,,,,,,,,,,,,,,,,,
,,,,,,00084,2023-10-23_14h10.15.091,vbt_B1_day2,2022.2.4,Win32,60.72014087,,,,,,,,,,,,,,,,,,,,,,,,,,,down,0,2.0928,,0.169444473,-0.080555563,1,0,0,1.334,0,55,55,2,1,jaar,images/br_jaar.png,images/cb_jaar.png,0,,,,,,,,,,,,,,,,,,,,,,
,,,,,,00084,2023-10-23_14h10.15.091,vbt_B1_day2,2022.2.4,Win32,60.72014087,,,,,,,,,,,,,,,,,,,,,,,,,,,down,0,4.1995,,0.169444473,-0.080555563,1,0,0,1.2643,0,56,56,119,1,liefje,images/br_liefje.png,images/cb_liefje.png,0,,,,,,,,,,,,,,,,,,,,,,
,,,,,,00084,2023-10-23_14h10.15.091,vbt_B1_day2,2022.2.4,Win32,60.72014087,,,,,,,,,,,,,,,,,,,,,,,,,,,down,0,2.3847,,0.169444473,-0.080555563,1,0,0,1.5838,0,57,57,153,1,vervoer,images/br_vervoer.png,images/cb_vervoer.png,0,,,,,,,,,,,,,,,,,,,,,,
,,,,,,00084,2023-10-23_14h10.15.091,vbt_B1_day2,2022.2.4,Win32,60.72014087,,,,,,,,,,,,,,,,,,,,,,,,,,,down,0,3.3674,,0.169444473,-0.080555563,1,0,0,0.712,0,58,58,191,1,opheffen,images/br_opheffen.png,images/cb_opheffen.png,0,,,,,,,,,,,,,,,,,,,,,,
,,,,,,00084,2023-10-23_14h10.15.091,vbt_B1_day2,2022.2.4,Win32,60.72014087,,,,,,,,,,,,,,,,,,,,,,,,,,,down,0,11.0451,,0.169444473,-0.080555563,1,0,0,3.6174,0,59,59,147,1,komisch,images/br_komisch.png,images/cb_komisch.png,0,,,,,,,,,,,,,,,,,,,,,,
,,,,,,00084,2023-10-23_14h10.15.091,vbt_B1_day2,2022.2.4,Win32,60.72014087,,,,,,,,,,,,,,,,,,,,,,,,,,,down,0,18.4085,,0.169444473,-0.080555563,1,0,0,0.4836,0,60,60,99,1,koffie,images/br_koffie.png,images/cb_koffie.png,1,koffie,,,,,,,,,,,,,,,,,,,,,
,,,,,,00084,2023-10-23_14h10.15.091,vbt_B1_day2,2022.2.4,Win32,60.72014087,,,,,,,,,,,,,,,,,,,,,,,,,,,down,0,1.2677,,0.169444473,-0.080555563,1,0,0,1.1543,0,61,61,6,1,diep,images/br_diep.png,images/cb_diep.png,0,,,,,,,,,,,,,,,,,,,,,,
,,,,,,00084,2023-10-23_14h10.15.091,vbt_B1_day2,2022.2.4,Win32,60.72014087,,,,,,,,,,,,,,,,,,,,,,,,,,,down,0,11.1877,,0.169444473,-0.080555563,1,0,0,7.8995,0,62,62,111,1,ticket,images/br_ticket.png,images/cb_ticket.png,0,,,,,,,,,,,,,,,,,,,,,,
,,,,,,00084,2023-10-23_14h10.15.091,vbt_B1_day2,2022.2.4,Win32,60.72014087,,,,,,,,,,,,,,,,,,,,,,,,,,,down,0,12.2448,,0.169444473,-0.080555563,1,0,0,1.1673,0,63,63,94,1,oceaan,images/br_oceaan.png,images/cb_oceaan.png,0,,,,,,,,,,,,,,,,,,,,,,
,,,,,,00084,2023-10-23_14h10.15.091,vbt_B1_day2,2022.2.4,Win32,60.72014087,,,,,,,,,,,,,,,,,,,,,,,,,,,down,0,13.4603,,0.164814843,-0.076851845,1,0,0,2.1187,0,64,64,139,1,stiekem,images/br_stiekem.png,images/cb_stiekem.png,1,stiekem,,,,,,,,,,,,,,,,,,,,,
,,,,,,00084,2023-10-23_14h10.15.091,vbt_B1_day2,2022.2.4,Win32,60.72014087,,,,,,,,,,,,,,,,,,,,,,,,,,,down,0,5.9823,,0.164814843,-0.076851845,1,0,0,0.5778,0,65,65,170,1,schatten,images/br_schatten.png,images/cb_schatten.png,0,,,,,,,,,,,,,,,,,,,,,,
,,,,,,00084,2023-10-23_14h10.15.091,vbt_B1_day2,2022.2.4,Win32,60.72014087,,,,,,,,,,,,,,,,,,,,,,,,,,,down,0,0.9755,,0.164814843,-0.076851845,1,0,0,0.6496,0,66,66,89,1,slapen,images/br_slapen.png,images/cb_slapen.png,0,,,,,,,,,,,,,,,,,,,,,,
,,,,,,00084,2023-10-23_14h10.15.091,vbt_B1_day2,2022.2.4,Win32,60.72014087,,,,,,,,,,,,,,,,,,,,,,,,,,,down,0,5.0437,,0.164814843,-0.076851845,1,0,0,1.5671,0,67,67,132,1,grappen,images/br_grappen.png,images/cb_grappen.png,0,,,,,,,,,,,,,,,,,,,,,,
,,,,,,00084,2023-10-23_14h10.15.091,vbt_B1_day2,2022.2.4,Win32,60.72014087,,,,,,,,,,,,,,,,,,,,,,,,,,,down,0,18.4723,,0.164814843,-0.076851845,1,0,0,0.5121,0,68,68,179,1,woestijn,images/br_woestijn.png,images/cb_woestijn.png,1,woestijn,,,,,,,,,,,,,,,,,,,,,
,,,,,,00084,2023-10-23_14h10.15.091,vbt_B1_day2,2022.2.4,Win32,60.72014087,,,,,,,,,,,,,,,,,,,,,,,,,,,down,0,6.3021,,0.164814843,-0.076851845,1,0,0,0.4821,0,69,69,62,1,knaap,images/br_knaap.png,images/cb_knaap.png,0,,,,,,,,,,,,,,,,,,,,,,
,,,,,,00084,2023-10-23_14h10.15.091,vbt_B1_day2,2022.2.4,Win32,60.72014087,,,,,,,,,,,,,,,,,,,,,,,,,,,down,0,8.4417,,0.164814843,-0.076851845,1,0,0,0.6535,0,70,70,104,1,zweven,images/br_zweven.png,images/cb_zweven.png,0,,,,,,,,,,,,,,,,,,,,,,
,,,,,,00084,2023-10-23_14h10.15.091,vbt_B1_day2,2022.2.4,Win32,60.72014087,,,,,,,,,,,,,,,,,,,,,,,,,,,down,0,16.2329,,0.164814843,-0.076851845,1,0,0,0.4716,0,71,71,98,1,kreeft,images/br_kreeft.png,images/cb_kreeft.png,1,kreeft,,,,,,,,,,,,,,,,,,,,,
,,,,,,00084,2023-10-23_14h10.15.091,vbt_B1_day2,2022.2.4,Win32,60.72014087,,,,,,,,,,,,,,,,,,,,,,,,,,,down,0,2.3666,,0.164814843,-0.076851845,1,0,0,1.0501,0,72,72,42,1,bleek,images/br_bleek.png,images/cb_bleek.png,0,,,,,,,,,,,,,,,,,,,,,,
,,,,,,00084,2023-10-23_14h10.15.091,vbt_B1_day2,2022.2.4,Win32,60.72014087,,,,,,,,,,,,,,,,,,,,,,,,,,,down,0,2.5015,,0.164814843,-0.076851845,1,0,0,0.5152,0,73,73,190,1,goedkoop,images/br_goedkoop.png,images/cb_goedkoop.png,0,,,,,,,,,,,,,,,,,,,,,,
,,,,,,00084,2023-10-23_14h10.15.091,vbt_B1_day2,2022.2.4,Win32,60.72014087,,,,,,,,,,,,,,,,,,,,,,,,,,,down,0,5.339,,0.164814843,-0.076851845,1,0,0,0.5209,0,74,74,159,1,sufferd,images/br_sufferd.png,images/cb_sufferd.png,0,,,,,,,,,,,,,,,,,,,,,,
,,,,,,00084,2023-10-23_14h10.15.091,vbt_B1_day2,2022.2.4,Win32,60.72014087,,,,,,,,,,,,,,,,,,,,,,,,,,,down,0,6.0779,,0.164814843,-0.076851845,1,0,0,0.4495,0,75,75,19,1,geit,images/br_geit.png,images/cb_geit.png,1,geit,,,,,,,,,,,,,,,,,,,,,
,,,,,,00084,2023-10-23_14h10.15.091,vbt_B1_day2,2022.2.4,Win32,60.72014087,,,,,,,,,,,,,,,,,,,,,,,,,,,down,0,0.6355,,0.164814843,-0.076851845,1,0,0,0.4187,0,76,76,41,1,maken,images/br_maken.png,images/cb_maken.png,0,,,,,,,,,,,,,,,,,,,,,,
,,,,,,00084,2023-10-23_14h10.15.091,vbt_B1_day2,2022.2.4,Win32,60.72014087,,,,,,,,,,,,,,,,,,,,,,,,,,,down,0,3.2866,,0.164814843,-0.076851845,1,0,0,0.4327,0,77,77,46,1,jagen,images/br_jagen.png,images/cb_jagen.png,0,,,,,,,,,,,,,,,,,,,,,,
,,,,,,00084,2023-10-23_14h10.15.091,vbt_B1_day2,2022.2.4,Win32,60.72014087,,,,,,,,,,,,,,,,,,,,,,,,,,,down,0,6.9909,,0.164814843,-0.076851845,1,0,0,0.5164,0,78,78,91,1,gezond,images/br_gezond.png,images/cb_gezond.png,0,,,,,,,,,,,,,,,,,,,,,,
,,,,,,00084,2023-10-23_14h10.15.091,vbt_B1_day2,2022.2.4,Win32,60.72014087,,,,,,,,,,,,,,,,,,,,,,,,,,,down,0,3.9249,,0.164814843,-0.076851845,1,0,0,0.5555,0,79,79,32,1,palm,images/br_palm.png,images/cb_palm.png,0,,,,,,,,,,,,,,,,,,,,,,
,,,,,,00084,2023-10-23_14h10.15.091,vbt_B1_day2,2022.2.4,Win32,60.72014087,,,,,,,,,,,,,,,,,,,,,,,,,,,down,0,4.4225,,0.164814843,-0.076851845,1,0,0,0.65,0,80,80,142,1,snuiven,images/br_snuiven.png,images/cb_snuiven.png,0,,,,,,,,,,,,,,,,,,,,,,
,,,,,,00084,2023-10-23_14h10.15.091,vbt_B1_day2,2022.2.4,Win32,60.72014087,,,,,,,,,,,,,,,,,,,,,,,,,,,down,0,2.2335,,0.164814843,-0.076851845,1,0,0,0.5168,0,81,81,33,1,vlek,images/br_vlek.png,images/cb_vlek.png,0,,,,,,,,,,,,,,,,,,,,,,
,,,,,,00084,2023-10-23_14h10.15.091,vbt_B1_day2,2022.2.4,Win32,60.72014087,,,,,,,,,,,,,,,,,,,,,,,,,,,down,0,2.4233,,0.159259302,-0.076851845,1,0,0,5.6021,0,82,82,70,1,ijdel,images/br_ijdel.png,images/cb_ijdel.png,0,,,,,,,,,,,,,,,,,,,,,,
,,,,,,00084,2023-10-23_14h10.15.091,vbt_B1_day2,2022.2.4,Win32,60.72014087,,,,,,,,,,,,,,,,,,,,,,,,,,,down,0,1.686,,0.159259302,-0.076851845,1,0,0,0.4332,0,83,83,69,1,waken,images/br_waken.png,images/cb_waken.png,0,,,,,,,,,,,,,,,,,,,,,,
,,,,,,00084,2023-10-23_14h10.15.091,vbt_B1_day2,2022.2.4,Win32,60.72014087,,,,,,,,,,,,,,,,,,,,,,,,,,,down,0,0.2007,,0.159259302,-0.076851845,1,0,0,0.6495,0,84,84,5,1,blad,images/br_blad.png,images/cb_blad.png,0,,,,,,,,,,,,,,,,,,,,,,
,,,,,,00084,2023-10-23_14h10.15.091,vbt_B1_day2,2022.2.4,Win32,60.72014087,,,,,,,,,,,,,,,,,,,,,,,,,,,down,0,0.451,,0.158333319,-0.076851845,1,0,0,0.6825,0,85,85,133,1,seizoen,images/br_seizoen.png,images/cb_seizoen.png,0,,,,,,,,,,,,,,,,,,,,,,
,,,,,,00084,2023-10-23_14h10.15.091,vbt_B1_day2,2022.2.4,Win32,60.72014087,,,,,,,,,,,,,,,,,,,,,,,,,,,down,0,1.2058,,0.158333319,-0.076851845,1,0,0,0.7055,0,86,86,141,1,knielen,images/br_knielen.png,images/cb_knielen.png,0,,,,,,,,,,,,,,,,,,,,,,
,,,,,,00084,2023-10-23_14h10.15.091,vbt_B1_day2,2022.2.4,Win32,60.72014087,,,,,,,,,,,,,,,,,,,,,,,,,,,down,0,1.1484,,0.158333319,-0.076851845,1,0,0,0.8044,0,87,87,146,1,opkomen,images/br_opkomen.png,images/cb_opkomen.png,0,,,,,,,,,,,,,,,,,,,,,,
,,,,,,00084,2023-10-23_14h10.15.091,vbt_B1_day2,2022.2.4,Win32,60.72014087,,,,,,,,,,,,,,,,,,,,,,,,,,,down,0,1.0345,,0.158333319,-0.076851845,1,0,0,0.4842,0,88,88,149,1,redding,images/br_redding.png,images/cb_redding.png,0,,,,,,,,,,,,,,,,,,,,,,
,,,,,,00084,2023-10-23_14h10.15.091,vbt_B1_day2,2022.2.4,Win32,60.72014087,,,,,,,,,,,,,,,,,,,,,,,,,,,down,0,10.4404,,0.158333319,-0.076851845,1,0,0,0.538,0,89,89,136,1,waarbij,images/br_waarbij.png,images/cb_waarbij.png,1,waarbij,,,,,,,,,,,,,,,,,,,,,
,,,,,,00084,2023-10-23_14h10.15.091,vbt_B1_day2,2022.2.4,Win32,60.72014087,,,,,,,,,,,,,,,,,,,,,,,,,,,down,0,1.3513,,0.158333319,-0.076851845,1,0,0,0.6548,0,90,90,173,1,apparaat,images/br_apparaat.png,images/cb_apparaat.png,0,,,,,,,,,,,,,,,,,,,,,,
,,,,,,00084,2023-10-23_14h10.15.091,vbt_B1_day2,2022.2.4,Win32,60.72014087,,,,,,,,,,,,,,,,,,,,,,,,,,,down,0,1.3,,0.158333319,-0.076851845,1,0,0,0.566,0,91,91,187,1,opkijken,images/br_opkijken.png,images/cb_opkijken.png,0,,,,,,,,,,,,,,,,,,,,,,
,,,,,,00084,2023-10-23_14h10.15.091,vbt_B1_day2,2022.2.4,Win32,60.72014087,,,,,,,,,,,,,,,,,,,,,,,,,,,down,0,2.17,,0.158333319,-0.076851845,1,0,0,0.4333,0,92,92,106,1,zingen,images/br_zingen.png,images/cb_zingen.png,0,,,,,,,,,,,,,,,,,,,,,,
,,,,,,00084,2023-10-23_14h10.15.091,vbt_B1_day2,2022.2.4,Win32,60.72014087,,,,,,,,,,,,,,,,,,,,,,,,,,,down,0,0.7509,,0.158333319,-0.076851845,1,0,0,0.518,0,93,93,118,1,vinger,images/br_vinger.png,images/cb_vinger.png,0,,,,,,,,,,,,,,,,,,,,,,
,,,,,,00084,2023-10-23_14h10.15.091,vbt_B1_day2,2022.2.4,Win32,60.72014087,,,,,,,,,,,,,,,,,,,,,,,,,,,down,0,2.2973,,0.158333319,-0.076851845,1,0,0,0.4462,0,94,94,20,1,site,images/br_site.png,images/cb_site.png,0,,,,,,,,,,,,,,,,,,,,,,
,,,,,,00084,2023-10-23_14h10.15.091,vbt_B1_day2,2022.2.4,Win32,60.72014087,,,,,,,,,,,,,,,,,,,,,,,,,,,down,0,0.5029,,0.158333319,-0.076851845,1,0,0,0.4503,0,95,95,151,1,aanzoek,images/br_aanzoek.png,images/cb_aanzoek.png,0,,,,,,,,,,,,,,,,,,,,,,
,,,,,,00084,2023-10-23_14h10.15.091,vbt_B1_day2,2022.2.4,Win32,60.72014087,,,,,,,,,,,,,,,,,,,,,,,,,,,down,0,0.8684,,0.158333319,-0.076851845,1,0,0,0.3667,0,96,96,193,1,weeshuis,images/br_weeshuis.png,images/cb_weeshuis.png,0,,,,,,,,,,,,,,,,,,,,,,
,,,,,,00084,2023-10-23_14h10.15.091,vbt_B1_day2,2022.2.4,Win32,60.72014087,,,,,,,,,,,,,,,,,,,,,,,,,,,down,0,1.4368,,0.158333319,-0.076851845,1,0,0,0.3711,0,97,97,34,1,vorm,images/br_vorm.png,images/cb_vorm.png,0,,,,,,,,,,,,,,,,,,,,,,
,,,,,,00084,2023-10-23_14h10.15.091,vbt_B1_day2,2022.2.4,Win32,60.72014087,,,,,,,,,,,,,,,,,,,,,,,,,,,down,0,0.8452,,0.158333319,-0.076851845,1,0,0,0.3795,0,98,98,156,1,rechten,images/br_rechten.png,images/cb_rechten.png,0,,,,,,,,,,,,,,,,,,,,,,
,,,,,,00084,2023-10-23_14h10.15.091,vbt_B1_day2,2022.2.4,Win32,60.72014087,,,,,,,,,,,,,,,,,,,,,,,,,,,down,0,0.1495,,0.158333319,-0.076851845,1,0,0,0.4786,0,99,99,64,1,wegen,images/br_wegen.png,images/cb_wegen.png,0,,,,,,,,,,,,,,,,,,,,,,
,,,,,,00084,2023-10-23_14h10.15.091,vbt_B1_day2,2022.2.4,Win32,60.72014087,,,,,,,,,,,,,,,,,,,,,,,,,,,down,0,1.6183,,0.158333319,-0.076851845,1,0,0,1.4655,0,100,100,68,1,schat,images/br_schat.png,images/cb_schat.png,0,,,,,,,,,,,,,,,,,,,,,,
,,,,,,00084,2023-10-23_14h10.15.091,vbt_B1_day2,2022.2.4,Win32,60.72014087,,,,,,,,,,,,,,,,,,,,,,,,,,,down,0,0.7677,,0.158333319,-0.076851845,1,0,0,0.5044,0,101,101,45,1,piste,images/br_piste.png,images/cb_piste.png,0,,,,,,,,,,,,,,,,,,,,,,
,,,,,,00084,2023-10-23_14h10.15.091,vbt_B1_day2,2022.2.4,Win32,60.72014087,,,,,,,,,,,,,,,,,,,,,,,,,,,down,0,1.059,,0.158333319,-0.076851845,1,0,0,0.4163,0,102,102,53,1,baron,images/br_baron.png,images/cb_baron.png,0,,,,,,,,,,,,,,,,,,,,,,
,,,,,,00084,2023-10-23_14h10.15.091,vbt_B1_day2,2022.2.4,Win32,60.72014087,,,,,,,,,,,,,,,,,,,,,,,,,,,down,0,8.34,,0.158333319,-0.076851845,1,0,0,0.8202,0,103,103,181,1,toegeven,images/br_toegeven.png,images/cb_toegeven.png,0,,,,,,,,,,,,,,,,,,,,,,
,,,,,,00084,2023-10-23_14h10.15.091,vbt_B1_day2,2022.2.4,Win32,60.72014087,,,,,,,,,,,,,,,,,,,,,,,,,,,down,0,0.6842,,0.158333319,-0.076851845,1,0,0,0.4657,0,104,104,37,1,mijn,images/br_mijn.png,images/cb_mijn.png,0,,,,,,,,,,,,,,,,,,,,,,
,,,,,,00084,2023-10-23_14h10.15.091,vbt_B1_day2,2022.2.4,Win32,60.72014087,,,,,,,,,,,,,,,,,,,,,,,,,,,down,0,7.768,,0.158333319,-0.076851845,1,0,0,0.3638,0,105,105,88,1,boeien,images/br_boeien.png,images/cb_boeien.png,0,,,,,,,,,,,,,,,,,,,,,,
,,,,,,00084,2023-10-23_14h10.15.091,vbt_B1_day2,2022.2.4,Win32,60.72014087,,,,,,,,,,,,,,,,,,,,,,,,,,,down,0,0.5998,,0.158333319,-0.076851845,1,0,0,1.4331,0,106,106,192,1,schaamte,images/br_schaamte.png,images/cb_schaamte.png,0,,,,,,,,,,,,,,,,,,,,,,
,,,,,,00084,2023-10-23_14h10.15.091,vbt_B1_day2,2022.2.4,Win32,60.72014087,,,,,,,,,,,,,,,,,,,,,,,,,,,down,0,5.2496,,0.233333376,-0.013888889,1,0,0,0.9334,0,107,107,83,1,mening,images/br_mening.png,images/cb_mening.png,0,,,,,,,,,,,,,,,,,,,,,,
,,,,,,00084,2023-10-23_14h10.15.091,vbt_B1_day2,2022.2.4,Win32,60.72014087,,,,,,,,,,,,,,,,,,,,,,,,,,,down,0,5.2101,,0.210185228,0.014814801,1,0,0,0.5876,0,108,108,95,1,vreten,images/br_vreten.png,images/cb_vreten.png,0,,,,,,,,,,,,,,,,,,,,,,
,,,,,,00084,2023-10-23_14h10.15.091,vbt_B1_day2,2022.2.4,Win32,60.72014087,,,,,,,,,,,,,,,,,,,,,,,,,,,down,0,7.6728,,0.210185228,0.014814801,1,0,0,0.6658,0,109,109,100,1,geduld,images/br_geduld.png,images/cb_geduld.png,0,,,,,,,,,,,,,,,,,,,,,,
,,,,,,00084,2023-10-23_14h10.15.091,vbt_B1_day2,2022.2.4,Win32,60.72014087,,,,,,,,,,,,,,,,,,,,,,,,,,,down,0,1.035,,0.210185228,0.014814801,1,0,0,0.5122,0,110,110,27,1,dans,images/br_dans.png,images/cb_dans.png,0,,,,,,,,,,,,,,,,,,,,,,
,,,,,,00084,2023-10-23_14h10.15.091,vbt_B1_day2,2022.2.4,Win32,60.72014087,,,,,,,,,,,,,,,,,,,,,,,,,,,down,0,3.0265,,0.210185228,0.014814801,1,0,0,0.4546,0,111,111,184,1,aandelen,images/br_aandelen.png,images/cb_aandelen.png,0,,,,,,,,,,,,,,,,,,,,,,
,,,,,,00084,2023-10-23_14h10.15.091,vbt_B1_day2,2022.2.4,Win32,60.72014087,,,,,,,,,,,,,,,,,,,,,,,,,,,down,0,11.377,,0.210185228,0.014814801,1,0,0,0.6496,0,112,112,137,1,trekker,images/br_trekker.png,images/cb_trekker.png,1,trekker,,,,,,,,,,,,,,,,,,,,,
,,,,,,00084,2023-10-23_14h10.15.091,vbt_B1_day2,2022.2.4,Win32,60.72014087,,,,,,,,,,,,,,,,,,,,,,,,,,,down,0,6.7136,,0.210185228,0.014814801,1,0,0,0.4828,0,113,113,9,1,hier,images/br_hier.png,images/cb_hier.png,0,,,,,,,,,,,,,,,,,,,,,,
,,,,,,00084,2023-10-23_14h10.15.091,vbt_B1_day2,2022.2.4,Win32,60.72014087,,,,,,,,,,,,,,,,,,,,,,,,,,,down,0,5.6199,,0.215740769,0.01944443,1,0,0,0.9165,0,114,114,169,1,oprotten,images/br_oprotten.png,images/cb_oprotten.png,0,,,,,,,,,,,,,,,,,,,,,,
,,,,,,00084,2023-10-23_14h10.15.091,vbt_B1_day2,2022.2.4,Win32,60.72014087,,,,,,,,,,,,,,,,,,,,,,,,,,,down,0,2.8331,,0.215740769,0.01944443,1,0,0,0.6291,0,115,115,155,1,gerucht,images/br_gerucht.png,images/cb_gerucht.png,0,,,,,,,,,,,,,,,,,,,,,,
,,,,,,00084,2023-10-23_14h10.15.091,vbt_B1_day2,2022.2.4,Win32,60.72014087,,,,,,,,,,,,,,,,,,,,,,,,,,,down,0,14.3884,,0.215740769,0.01944443,1,0,0,0.571,0,116,116,177,1,maaltijd,images/br_maaltijd.png,images/cb_maaltijd.png,1,maaltijd,,,,,,,,,,,,,,,,,,,,,
,,,,,,00084,2023-10-23_14h10.15.091,vbt_B1_day2,2022.2.4,Win32,60.72014087,,,,,,,,,,,,,,,,,,,,,,,,,,,down,0,1.8682,,0.215740769,0.01944443,1,0,0,0.6001,0,117,117,131,1,opzicht,images/br_opzicht.png,images/cb_opzicht.png,0,,,,,,,,,,,,,,,,,,,,,,
,,,,,,00084,2023-10-23_14h10.15.091,vbt_B1_day2,2022.2.4,Win32,60.72014087,,,,,,,,,,,,,,,,,,,,,,,,,,,down,0,2.3016,,0.215740769,0.01944443,1,0,0,0.6323,0,118,118,60,1,jasje,images/br_jasje.png,images/cb_jasje.png,0,,,,,,,,,,,,,,,,,,,,,,
,,,,,,00084,2023-10-23_14h10.15.091,vbt_B1_day2,2022.2.4,Win32,60.72014087,,,,,,,,,,,,,,,,,,,,,,,,,,,down,0,1.7554,,0.215740769,0.01944443,1,0,0,0.5165,0,119,119,73,1,volop,images/br_volop.png,images/cb_volop.png,0,,,,,,,,,,,,,,,,,,,,,,
,,,,,,00084,2023-10-23_14h10.15.091,vbt_B1_day2,2022.2.4,Win32,60.72014087,,,,,,,,,,,,,,,,,,,,,,,,,,,down,0,3.5692,,0.215740769,0.01944443,1,0,0,0.6153,0,120,120,25,1,plek,images/br_plek.png,images/cb_plek.png,0,,,,,,,,,,,,,,,,,,,,,,
,,,,,,00084,2023-10-23_14h10.15.091,vbt_B1_day2,2022.2.4,Win32,60.72014087,,,,,,,,,,,,,,,,,,,,,,,,,,,down,0,2.0569,,0.215740769,0.01944443,1,0,0,0.8186,0,121,121,85,1,heilig,images/br_heilig.png,images/cb_heilig.png,0,,,,,,,,,,,,,,,,,,,,,,
,,,,,,00084,2023-10-23_14h10.15.091,vbt_B1_day2,2022.2.4,Win32,60.72014087,,,,,,,,,,,,,,,,,,,,,,,,,,,down,0,2.9454,,0.215740769,0.01944443,1,0,0,0.6014,0,122,122,189,1,aanraden,images/br_aanraden.png,images/cb_aanraden.png,0,,,,,,,,,,,,,,,,,,,,,,
,,,,,,00084,2023-10-23_14h10.15.091,vbt_B1_day2,2022.2.4,Win32,60.72014087,,,,,,,,,,,,,,,,,,,,,,,,,,,down,0,6.1705,,0.215740769,0.01944443,1,0,0,0.9338,0,123,123,101,1,staren,images/br_staren.png,images/cb_staren.png,0,,,,,,,,,,,,,,,,,,,,,,
,,,,,,00084,2023-10-23_14h10.15.091,vbt_B1_day2,2022.2.4,Win32,60.72014087,,,,,,,,,,,,,,,,,,,,,,,,,,,down,0,4.2994,,0.215740769,0.01944443,1,0,0,5.3819,0,124,124,14,1,rijp,images/br_rijp.png,images/cb_rijp.png,0,,,,,,,,,,,,,,,,,,,,,,
,,,,,,00084,2023-10-23_14h10.15.091,vbt_B1_day2,2022.2.4,Win32,60.72014087,,,,,,,,,,,,,,,,,,,,,,,,,,,down,0,0.1346,,0.215740769,0.01944443,1,0,0,0.8003,0,125,125,22,1,stof,images/br_stof.png,images/cb_stof.png,0,,,,,,,,,,,,,,,,,,,,,,
,,,,,,00084,2023-10-23_14h10.15.091,vbt_B1_day2,2022.2.4,Win32,60.72014087,,,,,,,,,,,,,,,,,,,,,,,,,,,down,0,2.1956,,0.215740769,0.01944443,1,0,0,2.3838,0,126,126,125,1,aanzien,images/br_aanzien.png,images/cb_aanzien.png,0,,,,,,,,,,,,,,,,,,,,,,
,,,,,,00084,2023-10-23_14h10.15.091,vbt_B1_day2,2022.2.4,Win32,60.72014087,,,,,,,,,,,,,,,,,,,,,,,,,,,down,0,9.5724,,0.215740769,0.01944443,1,0,0,12.9893,0,127,127,30,1,uien,images/br_uien.png,images/cb_uien.png,0,,,,,,,,,,,,,,,,,,,,,,
,,,,,,00084,2023-10-23_14h10.15.091,vbt_B1_day2,2022.2.4,Win32,60.72014087,,,,,,,,,,,,,,,,,,,,,,,,,,,down,0,11.463,,0.215740769,0.01944443,1,0,0,1.5674,0,128,128,56,1,traag,images/br_traag.png,images/cb_traag.png,1,traag,,,,,,,,,,,,,,,,,,,,,
,,,,,,00084,2023-10-23_14h10.15.091,vbt_B1_day2,2022.2.4,Win32,60.72014087,,,,,,,,,,,,,,,,,,,,,,,,,,,down,0,3.7012,,0.215740769,0.01944443,1,0,0,6.3236,0,129,129,26,1,leuk,images/br_leuk.png,images/cb_leuk.png,0,,,,,,,,,,,,,,,,,,,,,,
,,,,,,00084,2023-10-23_14h10.15.091,vbt_B1_day2,2022.2.4,Win32,60.72014087,,,,,,,,,,,,,,,,,,,,,,,,,,,down,0,17.1769,,0.215740769,0.01944443,1,0,0,0.8544,0,130,130,58,1,tekst,images/br_tekst.png,images/cb_tekst.png,1,tekst,,,,,,,,,,,,,,,,,,,,,
,,,,,,00084,2023-10-23_14h10.15.091,vbt_B1_day2,2022.2.4,Win32,60.72014087,,,,,,,,,,,,,,,,,,,,,,,,,,,down,0,3.2227,,0.215740769,0.01944443,1,0,0,0.5337,0,131,131,39,1,laag,images/br_laag.png,images/cb_laag.png,0,,,,,,,,,,,,,,,,,,,,,,
,,,,,,00084,2023-10-23_14h10.15.091,vbt_B1_day2,2022.2.4,Win32,60.72014087,,,,,,,,,,,,,,,,,,,,,,,,,,,down,0,5.4254,,0.215740769,0.01944443,1,0,0,0.9672,0,132,132,48,1,steel,images/br_steel.png,images/cb_steel.png,0,,,,,,,,,,,,,,,,,,,,,,
,,,,,,00084,2023-10-23_14h10.15.091,vbt_B1_day2,2022.2.4,Win32,60.72014087,,,,,,,,,,,,,,,,,,,,,,,,,,,down,0,6.4364,,0.215740769,0.01944443,1,0,0,0.6999,0,133,133,110,1,zuster,images/br_zuster.png,images/cb_zuster.png,0,,,,,,,,,,,,,,,,,,,,,,
,,,,,,00084,2023-10-23_14h10.15.091,vbt_B1_day2,2022.2.4,Win32,60.72014087,,,,,,,,,,,,,,,,,,,,,,,,,,,down,0,5.6524,,0.215740769,0.01944443,1,0,0,0.6009,0,134,134,57,1,steek,images/br_steek.png,images/cb_steek.png,1,steek,,,,,,,,,,,,,,,,,,,,,
,,,,,,00084,2023-10-23_14h10.15.091,vbt_B1_day2,2022.2.4,Win32,60.72014087,,,,,,,,,,,,,,,,,,,,,,,,,,,down,0,29.5338,,0.102777764,-0.155555584,1,0,0,0.4543,0,135,135,59,1,kring,images/br_kring.png,images/cb_kring.png,1,kring,,,,,,,,,,,,,,,,,,,,,
,,,,,,00084,2023-10-23_14h10.15.091,vbt_B1_day2,2022.2.4,Win32,60.72014087,,,,,,,,,,,,,,,,,,,,,,,,,,,down,0,0.8536,,0.102777764,-0.155555584,1,0,0,0.384,0,136,136,107,1,maling,images/br_maling.png,images/cb_maling.png,0,,,,,,,,,,,,,,,,,,,,,,
,,,,,,00084,2023-10-23_14h10.15.091,vbt_B1_day2,2022.2.4,Win32,60.72014087,,,,,,,,,,,,,,,,,,,,,,,,,,,down,0,1.6686,,0.54814812,0.014814801,1,0,0,0.4156,0,137,137,194,1,driemaal,images/br_driemaal.png,images/cb_driemaal.png,0,,,,,,,,,,,,,,,,,,,,,,
,,,,,,00084,2023-10-23_14h10.15.091,vbt_B1_day2,2022.2.4,Win32,60.72014087,,,,,,,,,,,,,,,,,,,,,,,,,,,down,0,7.6505,,0.100000028,-0.217592593,1,0,0,0.7548,0,138,138,97,1,loyaal,images/br_loyaal.png,images/cb_loyaal.png,1,loyaal,,,,,,,,,,,,,,,,,,,,,
,,,,,,00084,2023-10-23_14h10.15.091,vbt_B1_day2,2022.2.4,Win32,60.72014087,,,,,,,,,,,,,,,,,,,,,,,,,,,down,0,3.4953,,0.100000028,-0.217592593,1,0,0,0.467,0,139,139,72,1,strak,images/br_strak.png,images/cb_strak.png,0,,,,,,,,,,,,,,,,,,,,,,
,,,,,,00084,2023-10-23_14h10.15.091,vbt_B1_day2,2022.2.4,Win32,60.72014087,,,,,,,,,,,,,,,,,,,,,,,,,,,down,0,3.9428,,0.100000028,-0.217592593,1,0,0,0.5175,0,140,140,10,1,leek,images/br_leek.png,images/cb_leek.png,0,,,,,,,,,,,,,,,,,,,,,,
,,,,,,00084,2023-10-23_14h10.15.091,vbt_B1_day2,2022.2.4,Win32,60.72014087,,,,,,,,,,,,,,,,,,,,,,,,,,,down,0,3.3431,,0.107407393,-0.208333333,1,0,0,0.4703,0,141,141,180,1,openbaar,images/br_openbaar.png,images/cb_openbaar.png,0,,,,,,,,,,,,,,,,,,,,,,
,,,,,,00084,2023-10-23_14h10.15.091,vbt_B1_day2,2022.2.4,Win32,60.72014087,,,,,,,,,,,,,,,,,,,,,,,,,,,down,0,3.4698,,0.107407393,-0.208333333,1,0,0,0.784,0,142,142,129,1,verhaal,images/br_verhaal.png,images/cb_verhaal.png,0,,,,,,,,,,,,,,,,,,,,,,
,,,,,,00084,2023-10-23_14h10.15.091,vbt_B1_day2,2022.2.4,Win32,60.72014087,,,,,,,,,,,,,,,,,,,,,,,,,,,down,0,5.1398,,0.107407393,-0.208333333,1,0,0,0.6158,0,143,143,44,1,flits,images/br_flits.png,images/cb_flits.png,0,,,,,,,,,,,,,,,,,,,,,,
,,,,,,00084,2023-10-23_14h10.15.091,vbt_B1_day2,2022.2.4,Win32,60.72014087,,,,,,,,,,,,,,,,,,,,,,,,,,,down,0,2.2838,,0.107407393,-0.208333333,1,0,0,1.1504,0,144,144,55,1,praat,images/br_praat.png,images/cb_praat.png,0,,,,,,,,,,,,,,,,,,,,,,
,,,,,,00084,2023-10-23_14h10.15.091,vbt_B1_day2,2022.2.4,Win32,60.72014087,,,,,,,,,,,,,,,,,,,,,,,,,,,down,0,0.8521,,0.107407393,-0.208333333,1,0,0,0.6053,0,145,145,161,1,attentie,images/br_attentie.png,images/cb_attentie.png,0,,,,,,,,,,,,,,,,,,,,,,
,,,,,,00084,2023-10-23_14h10.15.091,vbt_B1_day2,2022.2.4,Win32,60.72014087,,,,,,,,,,,,,,,,,,,,,,,,,,,down,0,8.5066,,0.107407393,-0.208333333,1,0,0,0.5323,0,146,146,23,1,zout,images/br_zout.png,images/cb_zout.png,0,,,,,,,,,,,,,,,,,,,,,,
,,,,,,00084,2023-10-23_14h10.15.091,vbt_B1_day2,2022.2.4,Win32,60.72014087,,,,,,,,,,,,,,,,,,,,,,,,,,,down,0,6.3584,,0.107407393,-0.208333333,1,0,0,1.5224,0,147,147,162,1,uitdelen,images/br_uitdelen.png,images/cb_uitdelen.png,0,,,,,,,,,,,,,,,,,,,,,,
,,,,,,00084,2023-10-23_14h10.15.091,vbt_B1_day2,2022.2.4,Win32,60.72014087,,,,,,,,,,,,,,,,,,,,,,,,,,,down,0,25.9596,,0.107407393,-0.208333333,1,0,0,21.7074,0,148,148,109,1,totaal,images/br_totaal.png,images/cb_totaal.png,0,,,,,,,,,,,,,,,,,,,,,,
,,,,,,00084,2023-10-23_14h10.15.091,vbt_B1_day2,2022.2.4,Win32,60.72014087,,,,,,,,,,,,,,,,,,,,,,,,,,,down,0,2.7078,,0.107407393,-0.208333333,1,0,0,0.8716,0,149,149,144,1,eetlust,images/br_eetlust.png,images/cb_eetlust.png,0,,,,,,,,,,,,,,,,,,,,,,
,,,,,,00084,2023-10-23_14h10.15.091,vbt_B1_day2,2022.2.4,Win32,60.72014087,,,,,,,,,,,,,,,,,,,,,,,,,,,down,0,3.4351,,0.107407393,-0.208333333,1,0,0,0.984,0,150,150,163,1,schuilen,images/br_schuilen.png,images/cb_schuilen.png,0,,,,,,,,,,,,,,,,,,,,,,
,,,,,,00084,2023-10-23_14h10.15.091,vbt_B1_day2,2022.2.4,Win32,60.72014087,,,,,,,,,,,,,,,,,,,,,,,,,,,down,0,9.8875,,0.107407393,-0.208333333,1,0,0,1.2054,0,151,151,123,1,hiervan,images/br_hiervan.png,images/cb_hiervan.png,0,,,,,,,,,,,,,,,,,,,,,,
,,,,,,00084,2023-10-23_14h10.15.091,vbt_B1_day2,2022.2.4,Win32,60.72014087,,,,,,,,,,,,,,,,,,,,,,,,,,,down,0,2.8183,,0.107407393,-0.208333333,1,0,0,0.8283,0,152,152,24,1,jurk,images/br_jurk.png,images/cb_jurk.png,0,,,,,,,,,,,,,,,,,,,,,,
,,,,,,00084,2023-10-23_14h10.15.091,vbt_B1_day2,2022.2.4,Win32,60.72014087,,,,,,,,,,,,,,,,,,,,,,,,,,,down,0,1.8514,,0.107407393,-0.208333333,1,0,0,1.0323,0,153,153,66,1,lever,images/br_lever.png,images/cb_lever.png,0,,,,,,,,,,,,,,,,,,,,,,
,,,,,,00084,2023-10-23_14h10.15.091,vbt_B1_day2,2022.2.4,Win32,60.72014087,,,,,,,,,,,,,,,,,,,,,,,,,,,down,0,2.3127,,0.107407393,-0.208333333,1,0,0,0.8706,0,154,154,36,1,vuur,images/br_vuur.png,images/cb_vuur.png,0,,,,,,,,,,,,,,,,,,,,,,
,,,,,,00084,2023-10-23_14h10.15.091,vbt_B1_day2,2022.2.4,Win32,60.72014087,,,,,,,,,,,,,,,,,,,,,,,,,,,down,0,7.5175,,0.107407393,-0.208333333,1,0,0,2.5192,0,155,155,29,1,baas,images/br_baas.png,images/cb_baas.png,0,,,,,,,,,,,,,,,,,,,,,,
,,,,,,00084,2023-10-23_14h10.15.091,vbt_B1_day2,2022.2.4,Win32,60.72014087,,,,,,,,,,,,,,,,,,,,,,,,,,,down,0,4.7834,,0.107407393,-0.208333333,1,0,0,0.5848,0,156,156,8,1,knie,images/br_knie.png,images/cb_knie.png,0,,,,,,,,,,,,,,,,,,,,,,
,,,,,,00084,2023-10-23_14h10.15.091,vbt_B1_day2,2022.2.4,Win32,60.72014087,,,,,,,,,,,,,,,,,,,,,,,,,,,down,0,9.4357,,0.107407393,-0.208333333,1,0,0,1.2171,0,157,157,171,1,aarzelen,images/br_aarzelen.png,images/cb_aarzelen.png,0,,,,,,,,,,,,,,,,,,,,,,
,,,,,,00084,2023-10-23_14h10.15.091,vbt_B1_day2,2022.2.4,Win32,60.72014087,,,,,,,,,,,,,,,,,,,,,,,,,,,down,0,10.4033,,0.107407393,-0.208333333,1,0,0,6.5361,0,158,158,114,1,vullen,images/br_vullen.png,images/cb_vullen.png,0,,,,,,,,,,,,,,,,,,,,,,
,,,,,,00084,2023-10-23_14h10.15.091,vbt_B1_day2,2022.2.4,Win32,60.72014087,,,,,,,,,,,,,,,,,,,,,,,,,,,down,0,1.9345,,0.107407393,-0.208333333,1,0,0,0.5958,0,159,159,75,1,snoep,images/br_snoep.png,images/cb_snoep.png,0,,,,,,,,,,,,,,,,,,,,,,
,,,,,,00084,2023-10-23_14h10.15.091,vbt_B1_day2,2022.2.4,Win32,60.72014087,,,,,,,,,,,,,,,,,,,,,,,,,,,down,0,3.385,,0.107407393,-0.208333333,1,0,0,0.5715,0,160,160,185,1,mijnheer,images/br_mijnheer.png,images/cb_mijnheer.png,0,,,,,,,,,,,,,,,,,,,,,,
,,,,,,00084,2023-10-23_14h10.15.091,vbt_B1_day2,2022.2.4,Win32,60.72014087,,,,,,,,,,,,,,,,,,,,,,,,,,,down,0,2.786,,0.107407393,-0.208333333,1,0,0,0.6335,0,161,161,168,1,bisschop,images/br_bisschop.png,images/cb_bisschop.png,0,,,,,,,,,,,,,,,,,,,,,,
,,,,,,00084,2023-10-23_14h10.15.091,vbt_B1_day2,2022.2.4,Win32,60.72014087,,,,,,,,,,,,,,,,,,,,,,,,,,,down,0,2.3517,,0.107407393,-0.208333333,1,0,0,0.6613,0,162,162,50,1,stoom,images/br_stoom.png,images/cb_stoom.png,0,,,,,,,,,,,,,,,,,,,,,,
,,,,,,00084,2023-10-23_14h10.15.091,vbt_B1_day2,2022.2.4,Win32,60.72014087,,,,,,,,,,,,,,,,,,,,,,,,,,,down,0,0.3011,,0.107407393,-0.208333333,1,0,0,0.6002,0,163,163,196,1,nakijken,images/br_nakijken.png,images/cb_nakijken.png,0,,,,,,,,,,,,,,,,,,,,,,
,,,,,,00084,2023-10-23_14h10.15.091,vbt_B1_day2,2022.2.4,Win32,60.72014087,,,,,,,,,,,,,,,,,,,,,,,,,,,down,0,9.4045,,0.107407393,-0.208333333,1,0,0,0.7004,0,164,164,197,1,spanning,images/br_spanning.png,images/cb_spanning.png,0,,,,,,,,,,,,,,,,,,,,,,
,,,,,,00084,2023-10-23_14h10.15.091,vbt_B1_day2,2022.2.4,Win32,60.72014087,,,,,,,,,,,,,,,,,,,,,,,,,,,down,0,6.1667,,0.107407393,-0.208333333,1,0,0,0.816,0,165,165,67,1,zwart,images/br_zwart.png,images/cb_zwart.png,0,,,,,,,,,,,,,,,,,,,,,,
,,,,,,00084,2023-10-23_14h10.15.091,vbt_B1_day2,2022.2.4,Win32,60.72014087,,,,,,,,,,,,,,,,,,,,,,,,,,,down,0,1.7364,,0.107407393,-0.208333333,1,0,0,0.6546,0,166,166,105,1,wijlen,images/br_wijlen.png,images/cb_wijlen.png,0,,,,,,,,,,,,,,,,,,,,,,
,,,,,,00084,2023-10-23_14h10.15.091,vbt_B1_day2,2022.2.4,Win32,60.72014087,,,,,,,,,,,,,,,,,,,,,,,,,,,down,0,5.0935,,0.107407393,-0.208333333,1,0,0,0.8007,0,167,167,128,1,prikken,images/br_prikken.png,images/cb_prikken.png,0,,,,,,,,,,,,,,,,,,,,,,
,,,,,,00084,2023-10-23_14h10.15.091,vbt_B1_day2,2022.2.4,Win32,60.72014087,,,,,,,,,,,,,,,,,,,,,,,,,,,down,0,4.8079,,0.053703732,-0.183333362,1,0,0,2.6523,0,168,168,0,1,slak,images/br_slak.png,images/cb_slak.png,0,,,,,,,,,,,,,,,,,,,,,,
,,,,,,00084,2023-10-23_14h10.15.091,vbt_B1_day2,2022.2.4,Win32,60.72014087,,,,,,,,,,,,,,,,,,,,,,,,,,,down,0,2.9211,,0.055555556,-0.184259273,1,0,0,0.4548,0,169,169,143,1,hechten,images/br_hechten.png,images/cb_hechten.png,0,,,,,,,,,,,,,,,,,,,,,,
,,,,,,00084,2023-10-23_14h10.15.091,vbt_B1_day2,2022.2.4,Win32,60.72014087,,,,,,,,,,,,,,,,,,,,,,,,,,,down,0,1.3346,,0.055555556,-0.184259273,1,0,0,0.7162,0,170,170,121,1,twijfel,images/br_twijfel.png,images/cb_twijfel.png,0,,,,,,,,,,,,,,,,,,,,,,
,,,,,,00084,2023-10-23_14h10.15.091,vbt_B1_day2,2022.2.4,Win32,60.72014087,,,,,,,,,,,,,,,,,,,,,,,,,,,down,0,2.051,,0.055555556,-0.184259273,1,0,0,0.6284,0,171,171,174,1,stemming,images/br_stemming.png,images/cb_stemming.png,0,,,,,,,,,,,,,,,,,,,,,,
,,,,,,00084,2023-10-23_14h10.15.091,vbt_B1_day2,2022.2.4,Win32,60.72014087,,,,,,,,,,,,,,,,,,,,,,,,,,,down,0,0.576,,0.055555556,-0.184259273,1,0,0,1.1015,0,172,172,90,1,geluid,images/br_geluid.png,images/cb_geluid.png,0,,,,,,,,,,,,,,,,,,,,,,
,,,,,,00084,2023-10-23_14h10.15.091,vbt_B1_day2,2022.2.4,Win32,60.72014087,,,,,,,,,,,,,,,,,,,,,,,,,,,down,0,1.2169,,0.055555556,-0.184259273,1,0,0,0.9017,0,173,173,51,1,samen,images/br_samen.png,images/cb_samen.png,0,,,,,,,,,,,,,,,,,,,,,,
,,,,,,00084,2023-10-23_14h10.15.091,vbt_B1_day2,2022.2.4,Win32,60.72014087,,,,,,,,,,,,,,,,,,,,,,,,,,,down,0,2.4219,,0.055555556,-0.184259273,1,0,0,0.5819,0,174,174,79,1,nodig,images/br_nodig.png,images/cb_nodig.png,0,,,,,,,,,,,,,,,,,,,,,,
,,,,,,00084,2023-10-23_14h10.15.091,vbt_B1_day2,2022.2.4,Win32,60.72014087,,,,,,,,,,,,,,,,,,,,,,,,,,,down,0,5.3252,,0.055555556,-0.184259273,1,0,0,0.7887,0,175,175,86,1,woning,images/br_woning.png,images/cb_woning.png,0,,,,,,,,,,,,,,,,,,,,,,
,,,,,,00084,2023-10-23_14h10.15.091,vbt_B1_day2,2022.2.4,Win32,60.72014087,,,,,,,,,,,,,,,,,,,,,,,,,,,down,0,2.8424,,0.055555556,-0.184259273,1,0,0,0.7214,0,176,176,54,1,gebit,images/br_gebit.png,images/cb_gebit.png,0,,,,,,,,,,,,,,,,,,,,,,
,,,,,,00084,2023-10-23_14h10.15.091,vbt_B1_day2,2022.2.4,Win32,60.72014087,,,,,,,,,,,,,,,,,,,,,,,,,,,down,0,7.0861,,0.055555556,-0.184259273,1,0,0,0.7501,0,177,177,35,1,lust,images/br_lust.png,images/cb_lust.png,0,,,,,,,,,,,,,,,,,,,,,,
,,,,,,00084,2023-10-23_14h10.15.091,vbt_B1_day2,2022.2.4,Win32,60.72014087,,,,,,,,,,,,,,,,,,,,,,,,,,,down,0,7.6371,,0.055555556,-0.184259273,1,0,0,0.5712,0,178,178,43,1,klauw,images/br_klauw.png,images/cb_klauw.png,0,,,,,,,,,,,,,,,,,,,,,,
,,,,,,00084,2023-10-23_14h10.15.091,vbt_B1_day2,2022.2.4,Win32,60.72014087,,,,,,,,,,,,,,,,,,,,,,,,,,,down,0,6.1751,,0.055555556,-0.184259273,1,0,0,0.5166,0,179,179,49,1,laken,images/br_laken.png,images/cb_laken.png,0,,,,,,,,,,,,,,,,,,,,,,
,,,,,,00084,2023-10-23_14h10.15.091,vbt_B1_day2,2022.2.4,Win32,60.72014087,,,,,,,,,,,,,,,,,,,,,,,,,,,down,0,4.5688,,0.055555556,-0.184259273,1,0,0,1.7547,0,180,180,12,1,kust,images/br_kust.png,images/cb_kust.png,0,,,,,,,,,,,,,,,,,,,,,,
,,,,,,00084,2023-10-23_14h10.15.091,vbt_B1_day2,2022.2.4,Win32,60.72014087,,,,,,,,,,,,,,,,,,,,,,,,,,,down,0,4.1218,,0.037037037,-0.183333362,1,0,0,1.5379,0,181,181,198,1,bedoelen,images/br_bedoelen.png,images/cb_bedoelen.png,0,,,,,,,,,,,,,,,,,,,,,,
,,,,,,00084,2023-10-23_14h10.15.091,vbt_B1_day2,2022.2.4,Win32,60.72014087,,,,,,,,,,,,,,,,,,,,,,,,,,,down,0,1.2906,,0.037037037,-0.183333362,1,0,0,0.9339,0,182,182,61,1,groen,images/br_groen.png,images/cb_groen.png,0,,,,,,,,,,,,,,,,,,,,,,
,,,,,,00084,2023-10-23_14h10.15.091,vbt_B1_day2,2022.2.4,Win32,60.72014087,,,,,,,,,,,,,,,,,,,,,,,,,,,down,0,1.6499,,0.037037037,-0.183333362,1,0,0,0.8959,0,183,183,199,1,beseffen,images/br_beseffen.png,images/cb_beseffen.png,0,,,,,,,,,,,,,,,,,,,,,,
,,,,,,00084,2023-10-23_14h10.15.091,vbt_B1_day2,2022.2.4,Win32,60.72014087,,,,,,,,,,,,,,,,,,,,,,,,,,,down,0,4.4201,,0.037037037,-0.183333362,1,0,0,0.8554,0,184,184,182,1,bijkomen,images/br_bijkomen.png,images/cb_bijkomen.png,0,,,,,,,,,,,,,,,,,,,,,,
,,,,,,00084,2023-10-23_14h10.15.091,vbt_B1_day2,2022.2.4,Win32,60.72014087,,,,,,,,,,,,,,,,,,,,,,,,,,,down,0,35.3628,,-0.044444402,-0.33148151,1,0,0,0.6119,0,185,185,178,1,huisdier,images/br_huisdier.png,images/cb_huisdier.png,1,huisdier,,,,,,,,,,,,,,,,,,,,,
,,,,,,00084,2023-10-23_14h10.15.091,vbt_B1_day2,2022.2.4,Win32,60.72014087,,,,,,,,,,,,,,,,,,,,,,,,,,,down,0,1.9883,,-0.044444402,-0.33148151,1,0,0,0.4335,0,186,186,81,1,dubbel,images/br_dubbel.png,images/cb_dubbel.png,0,,,,,,,,,,,,,,,,,,,,,,
,,,,,,00084,2023-10-23_14h10.15.091,vbt_B1_day2,2022.2.4,Win32,60.72014087,,,,,,,,,,,,,,,,,,,,,,,,,,,down,0,5.1229,,-0.044444402,-0.33148151,1,0,0,0.5992,0,187,187,135,1,gedicht,images/br_gedicht.png,images/cb_gedicht.png,0,,,,,,,,,,,,,,,,,,,,,,
,,,,,,00084,2023-10-23_14h10.15.091,vbt_B1_day2,2022.2.4,Win32,60.72014087,,,,,,,,,,,,,,,,,,,,,,,,,,,down,0,8.0273,,-0.044444402,-0.33148151,1,0,0,0.6333,0,188,188,47,1,kabel,images/br_kabel.png,images/cb_kabel.png,0,,,,,,,,,,,,,,,,,,,,,,
,,,,,,00084,2023-10-23_14h10.15.091,vbt_B1_day2,2022.2.4,Win32,60.72014087,,,,,,,,,,,,,,,,,,,,,,,,,,,down,0,9.0027,,-0.044444402,-0.33148151,1,0,0,0.7631,0,189,189,145,1,invloed,images/br_invloed.png,images/cb_invloed.png,0,,,,,,,,,,,,,,,,,,,,,,
,,,,,,00084,2023-10-23_14h10.15.091,vbt_B1_day2,2022.2.4,Win32,60.72014087,,,,,,,,,,,,,,,,,,,,,,,,,,,down,0,11.5537,,-0.044444402,-0.33148151,1,0,0,0.5963,0,190,190,124,1,bloeien,images/br_bloeien.png,images/cb_bloeien.png,0,,,,,,,,,,,,,,,,,,,,,,
,,,,,,00084,2023-10-23_14h10.15.091,vbt_B1_day2,2022.2.4,Win32,60.72014087,,,,,,,,,,,,,,,,,,,,,,,,,,,down,0,7.4541,,-0.044444402,-0.33148151,1,0,0,0.5378,0,191,191,3,1,mand,images/br_mand.png,images/cb_mand.png,0,,,,,,,,,,,,,,,,,,,,,,
,,,,,,00084,2023-10-23_14h10.15.091,vbt_B1_day2,2022.2.4,Win32,60.72014087,,,,,,,,,,,,,,,,,,,,,,,,,,,down,0,4.6346,,-0.044444402,-0.33148151,1,0,0,3.2887,0,192,192,165,1,feestdag,images/br_feestdag.png,images/cb_feestdag.png,0,,,,,,,,,,,,,,,,,,,,,,
,,,,,,00084,2023-10-23_14h10.15.091,vbt_B1_day2,2022.2.4,Win32,60.72014087,,,,,,,,,,,,,,,,,,,,,,,,,,,down,0,4.1953,,-0.044444402,-0.33148151,1,0,0,0.7006,0,193,193,11,1,mode,images/br_mode.png,images/cb_mode.png,0,,,,,,,,,,,,,,,,,,,,,,
,,,,,,00084,2023-10-23_14h10.15.091,vbt_B1_day2,2022.2.4,Win32,60.72014087,,,,,,,,,,,,,,,,,,,,,,,,,,,down,0,0.468,,-0.044444402,-0.33148151,1,0,0,0.8679,0,194,194,167,1,eenhoorn,images/br_eenhoorn.png,images/cb_eenhoorn.png,0,,,,,,,,,,,,,,,,,,,,,,
,,,,,,00084,2023-10-23_14h10.15.091,vbt_B1_day2,2022.2.4,Win32,60.72014087,,,,,,,,,,,,,,,,,,,,,,,,,,,down,0,1.6425,,-0.044444402,-0.33148151,1,0,0,0.9682,0,195,195,13,1,kaal,images/br_kaal.png,images/cb_kaal.png,0,,,,,,,,,,,,,,,,,,,,,,
,,,,,,00084,2023-10-23_14h10.15.091,vbt_B1_day2,2022.2.4,Win32,60.72014087,,,,,,,,,,,,,,,,,,,,,,,,,,,down,0,2.9501,,-0.037037037,-0.324999986,1,0,0,1.0842,0,196,196,154,1,aflopen,images/br_aflopen.png,images/cb_aflopen.png,0,,,,,,,,,,,,,,,,,,,,,,
,,,,,,00084,2023-10-23_14h10.15.091,vbt_B1_day2,2022.2.4,Win32,60.72014087,,,,,,,,,,,,,,,,,,,,,,,,,,,down,0,11.2737,,-0.025925884,-0.175000014,1,0,0,0.7555,0,197,197,176,1,techniek,images/br_techniek.png,images/cb_techniek.png,1,techniek,,,,,,,,,,,,,,,,,,,,,
,,,,,,00084,2023-10-23_14h10.15.091,vbt_B1_day2,2022.2.4,Win32,60.72014087,,,,,,,,,,,,,,,,,,,,,,,,,,,down,0,1.7186,,-0.025925884,-0.175000014,1,0,0,0.5842,0,198,198,93,1,waarop,images/br_waarop.png,images/cb_waarop.png,0,,,,,,,,,,,,,,,,,,,,,,
,,,,,,00084,2023-10-23_14h10.15.091,vbt_B1_day2,2022.2.4,Win32,60.72014087,,,,,,,,,,,,,,,,,,,,,,,,,,,down,0,8.4805,,-0.025925884,-0.175000014,1,0,0,0.9383,0,199,199,103,1,joggen,images/br_joggen.png,images/cb_joggen.png,0,,,,,,,,,,,,,,,,,,,,,,
,,,,,,00084,2023-10-23_14h10.15.091,vbt_B1_day2,2022.2.4,Win32,60.72014087,,,,,,,,,,,,,,,,,,,,,,,,,,,,,,,,,,,,,,,,,,,,,,,-0.025925884,-0.175000014,1,0,0,,,,,,,,,,,,,,,,
,,,,,,00084,2023-10-23_14h10.15.091,vbt_B1_day2,2022.2.4,Win32,60.72014087,,,,,,,,,,,,,,,,,,,,,,,,,,,,,,,,,,,,,,,,,,,,,,,,,,,,-0.025925884,-0.175000014,1,0,0,,,,,,,,,,,
,,,,,,00084,2023-10-23_14h10.15.091,vbt_B1_day2,2022.2.4,Win32,60.72014087,,,,,,,,,,,,,,,,,,,,,,,,,,,,,,,,,,,,,,,,,,zomers,images/br_zomers.png,images/cb_zomers.png,,zome.,,,,,,,,,,,0.124074088,-0.075925933,1,0,0,zome.,0,0,0,48,1
,,,,,,00084,2023-10-23_14h10.15.091,vbt_B1_day2,2022.2.4,Win32,60.72014087,,,,,,,,,,,,,,,,,,,,,,,,,,,,,,,,,,,,,,,,,,feestdag,images/br_feestdag.png,images/cb_feestdag.png,,feelt...,,,,,,,,,,,0.124074088,-0.075925933,1,0,0,feelt...,0,1,1,17,1
,,,,,,00084,2023-10-23_14h10.15.091,vbt_B1_day2,2022.2.4,Win32,60.72014087,,,,,,,,,,,,,,,,,,,,,,,,,,,,,,,,,,,,,,,,,,heengeen,images/br_heengeen.png,images/cb_heengeen.png,,heeng..,,,,,,,,,,,0.124074088,-0.075925933,1,0,0,heeng..,0,2,2,38,1
,,,,,,00084,2023-10-23_14h10.15.091,vbt_B1_day2,2022.2.4,Win32,60.72014087,,,,,,,,,,,,,,,,,,,,,,,,,,,,,,,,,,,,,,,,,,bereuwen,images/br_bereuwen.png,images/cb_bereuwen.png,,bere,,,,,,,,,,,0.124074088,-0.075925933,1,0,0,bere,0,3,3,39,1
,,,,,,00084,2023-10-23_14h10.15.091,vbt_B1_day2,2022.2.4,Win32,60.72014087,,,,,,,,,,,,,,,,,,,,,,,,,,,,,,,,,,,,,,,,,,prekken,images/br_prekken.png,images/cb_prekken.png,,pre,,,,,,,,,,,0.124074088,-0.075925933,1,0,0,pre,0,4,4,34,1
,,,,,,00084,2023-10-23_14h10.15.091,vbt_B1_day2,2022.2.4,Win32,60.72014087,,,,,,,,,,,,,,,,,,,,,,,,,,,,,,,,,,,,,,,,,,negel,images/br_negel.png,images/cb_negel.png,,nege,,,,,,,,,,,0.124074088,-0.075925933,1,0,0,nege,0,5,5,24,1
,,,,,,00084,2023-10-23_14h10.15.091,vbt_B1_day2,2022.2.4,Win32,60.72014087,,,,,,,,,,,,,,,,,,,,,,,,,,,,,,,,,,,,,,,,,,kenzis,images/br_kenzis.png,images/cb_kenzis.png,,ken,,,,,,,,,,,0.124074088,-0.075925933,1,0,0,ken,0,6,6,30,1
,,,,,,00084,2023-10-23_14h10.15.091,vbt_B1_day2,2022.2.4,Win32,60.72014087,,,,,,,,,,,,,,,,,,,,,,,,,,,,,,,,,,,,,,,,,,aanzien,images/br_aanzien.png,images/cb_aanzien.png,,aan,,,,,,,,,,,0.124074088,-0.075925933,1,0,0,aan,0,7,7,13,1
,,,,,,00084,2023-10-23_14h10.15.091,vbt_B1_day2,2022.2.4,Win32,60.72014087,,,,,,,,,,,,,,,,,,,,,,,,,,,,,,,,,,,,,,,,,,clan,images/br_clan.png,images/cb_clan.png,,cla,,,,,,,,,,,0.124074088,-0.075925933,1,0,0,cla,0,8,8,40,1
,,,,,,00084,2023-10-23_14h10.15.091,vbt_B1_day2,2022.2.4,Win32,60.72014087,,,,,,,,,,,,,,,,,,,,,,,,,,,,,,,,,,,,,,,,,,sifferd,images/br_sifferd.png,images/cb_sifferd.png,,siffe,,,,,,,,,,,0.124074088,-0.075925933,1,0,0,siffe,0,9,9,32,1
,,,,,,00084,2023-10-23_14h10.15.091,vbt_B1_day2,2022.2.4,Win32,60.72014087,,,,,,,,,,,,,,,,,,,,,,,,,,,,,,,,,,,,,,,,,,tweeling,images/br_tweeling.png,images/cb_tweeling.png,,tweel,,,,,,,,,,,0.124074088,-0.075925933,1,0,0,tweel,0,10,10,58,1
,,,,,,00084,2023-10-23_14h10.15.091,vbt_B1_day2,2022.2.4,Win32,60.72014087,,,,,,,,,,,,,,,,,,,,,,,,,,,,,,,,,,,,,,,,,,joes,images/br_joes.png,images/cb_joes.png,,joes,,,,,,,,,,,0.124074088,-0.075925933,1,0,0,joes,0,11,11,20,1
,,,,,,00084,2023-10-23_14h10.15.091,vbt_B1_day2,2022.2.4,Win32,60.72014087,,,,,,,,,,,,,,,,,,,,,,,,,,,,,,,,,,,,,,,,,,sjijfel,images/br_sjijfel.png,images/cb_sjijfel.png,,sjij,,,,,,,,,,,0.124074088,-0.075925933,1,0,0,sjij,0,12,12,33,1
,,,,,,00084,2023-10-23_14h10.15.091,vbt_B1_day2,2022.2.4,Win32,60.72014087,,,,,,,,,,,,,,,,,,,,,,,,,,,,,,,,,,,,,,,,,,jong,images/br_jong.png,images/cb_jong.png,,jong,,,,,,,,,,,0.124074088,-0.075925933,1,0,0,jong,0,13,13,43,1
,,,,,,00084,2023-10-23_14h10.15.091,vbt_B1_day2,2022.2.4,Win32,60.72014087,,,,,,,,,,,,,,,,,,,,,,,,,,,,,,,,,,,,,,,,,,kabel,images/br_kabel.png,images/cb_kabel.png,,kabel,,,,,,,,,,,0.124074088,-0.075925933,1,0,0,kabel,0,14,14,7,1
,,,,,,00084,2023-10-23_14h10.15.091,vbt_B1_day2,2022.2.4,Win32,60.72014087,,,,,,,,,,,,,,,,,,,,,,,,,,,,,,,,,,,,,,,,,,ningen,images/br_ningen.png,images/cb_ningen.png,,nen,,,,,,,,,,,0.124074088,-0.075925933,1,0,0,nen,0,15,15,28,1
,,,,,,00084,2023-10-23_14h10.15.091,vbt_B1_day2,2022.2.4,Win32,60.72014087,,,,,,,,,,,,,,,,,,,,,,,,,,,,,,,,,,,,,,,,,,heilig,images/br_heilig.png,images/cb_heilig.png,,hielig,,,,,,,,,,,0.124074088,-0.075925933,1,0,0,hielig,0,16,16,9,1
,,,,,,00084,2023-10-23_14h10.15.091,vbt_B1_day2,2022.2.4,Win32,60.72014087,,,,,,,,,,,,,,,,,,,,,,,,,,,,,,,,,,,,,,,,,,eenhoorn,images/br_eenhoorn.png,images/cb_eenhoorn.png,,eenh,,,,,,,,,,,0.124074088,-0.075925933,1,0,0,eenh,0,17,17,19,1
,,,,,,00084,2023-10-23_14h10.15.091,vbt_B1_day2,2022.2.4,Win32,60.72014087,,,,,,,,,,,,,,,,,,,,,,,,,,,,,,,,,,,,,,,,,,strikken,images/br_strikken.png,images/cb_strikken.png,,ssri,,,,,,,,,,,0.124074088,-0.075925933,1,0,0,ssri,0,18,18,18,1
,,,,,,00084,2023-10-23_14h10.15.091,vbt_B1_day2,2022.2.4,Win32,60.72014087,,,,,,,,,,,,,,,,,,,,,,,,,,,,,,,,,,,,,,,,,,ophuimen,images/br_ophuimen.png,images/cb_ophuimen.png,,oph,,,,,,,,,,,0.124074088,-0.075925933,1,0,0,oph,0,19,19,36,1
,,,,,,00084,2023-10-23_14h10.15.091,vbt_B1_day2,2022.2.4,Win32,60.72014087,,,,,,,,,,,,,,,,,,,,,,,,,,,,,,,,,,,,,,,,,,opdatten,images/br_opdatten.png,images/cb_opdatten.png,,opdr,,,,,,,,,,,0.124074088,-0.075925933,1,0,0,opdr,0,20,20,37,1
,,,,,,00084,2023-10-23_14h10.15.091,vbt_B1_day2,2022.2.4,Win32,60.72014087,,,,,,,,,,,,,,,,,,,,,,,,,,,,,,,,,,,,,,,,,,goon,images/br_goon.png,images/cb_goon.png,,gaan,,,,,,,,,,,0.124074088,-0.075925933,1,0,0,gaan,0,21,21,23,1
,,,,,,00084,2023-10-23_14h10.15.091,vbt_B1_day2,2022.2.4,Win32,60.72014087,,,,,,,,,,,,,,,,,,,,,,,,,,,,,,,,,,,,,,,,,,geld,images/br_geld.png,images/cb_geld.png,,geld,,,,,,,,,,,0.124074088,-0.075925933,1,0,0,geld,0,22,22,3,1
,,,,,,00084,2023-10-23_14h10.15.091,vbt_B1_day2,2022.2.4,Win32,60.72014087,,,,,,,,,,,,,,,,,,,,,,,,,,,,,,,,,,,,,,,,,,sora,images/br_sora.png,images/cb_sora.png,,sora,,,,,,,,,,,0.124074088,-0.075925933,1,0,0,sora,0,23,23,22,1
,,,,,,00084,2023-10-23_14h10.15.091,vbt_B1_day2,2022.2.4,Win32,60.72014087,,,,,,,,,,,,,,,,,,,,,,,,,,,,,,,,,,,,,,,,,,bloeien,images/br_bloeien.png,images/cb_bloeien.png,,bloe,,,,,,,,,,,0.124074088,-0.075925933,1,0,0,bloe,0,24,24,12,1
,,,,,,00084,2023-10-23_14h10.15.091,vbt_B1_day2,2022.2.4,Win32,60.72014087,,,,,,,,,,,,,,,,,,,,,,,,,,,,,,,,,,,,,,,,,,jagen,images/br_jagen.png,images/cb_jagen.png,,jagen,,,,,,,,,,,0.124074088,-0.075925933,1,0,0,jagen,0,25,25,6,1
,,,,,,00084,2023-10-23_14h10.15.091,vbt_B1_day2,2022.2.4,Win32,60.72014087,,,,,,,,,,,,,,,,,,,,,,,,,,,,,,,,,,,,,,,,,,diep,images/br_diep.png,images/cb_diep.png,,diep,,,,,,,,,,,0.124074088,-0.075925933,1,0,0,diep,0,26,26,2,1
,,,,,,00084,2023-10-23_14h10.15.091,vbt_B1_day2,2022.2.4,Win32,60.72014087,,,,,,,,,,,,,,,,,,,,,,,,,,,,,,,,,,,,,,,,,,lokken,images/br_lokken.png,images/cb_lokken.png,,lokk,,,,,,,,,,,0.124074088,-0.075925933,1,0,0,lokk,0,27,27,8,1
,,,,,,00084,2023-10-23_14h10.15.091,vbt_B1_day2,2022.2.4,Win32,60.72014087,,,,,,,,,,,,,,,,,,,,,,,,,,,,,,,,,,,,,,,,,,dode,images/br_dode.png,images/cb_dode.png,,dode,,,,,,,,,,,0.124074088,-0.075925933,1,0,0,dode,0,28,28,41,1
,,,,,,00084,2023-10-23_14h10.15.091,vbt_B1_day2,2022.2.4,Win32,60.72014087,,,,,,,,,,,,,,,,,,,,,,,,,,,,,,,,,,,,,,,,,,koorts,images/br_koorts.png,images/cb_koorts.png,,koo,,,,,,,,,,,0.124074088,-0.075925933,1,0,0,koo,0,29,29,50,1
,,,,,,00084,2023-10-23_14h10.15.091,vbt_B1_day2,2022.2.4,Win32,60.72014087,,,,,,,,,,,,,,,,,,,,,,,,,,,,,,,,,,,,,,,,,,thema,images/br_thema.png,images/cb_thema.png,,them,,,,,,,,,,,0.124074088,-0.075925933,1,0,0,them,0,30,30,47,1
,,,,,,00084,2023-10-23_14h10.15.091,vbt_B1_day2,2022.2.4,Win32,60.72014087,,,,,,,,,,,,,,,,,,,,,,,,,,,,,,,,,,,,,,,,,,wijve,images/br_wijve.png,images/cb_wijve.png,,wih,,,,,,,,,,,0.124074088,-0.075925933,1,0,0,wih,0,31,31,27,1
,,,,,,00084,2023-10-23_14h10.15.091,vbt_B1_day2,2022.2.4,Win32,60.72014087,,,,,,,,,,,,,,,,,,,,,,,,,,,,,,,,,,,,,,,,,,lijnen,images/br_lijnen.png,images/cb_lijnen.png,,lij,,,,,,,,,,,0.124074088,-0.075925933,1,0,0,lij,0,32,32,51,1
,,,,,,00084,2023-10-23_14h10.15.091,vbt_B1_day2,2022.2.4,Win32,60.72014087,,,,,,,,,,,,,,,,,,,,,,,,,,,,,,,,,,,,,,,,,,toeval,images/br_toeval.png,images/cb_toeval.png,,toev,,,,,,,,,,,0.124074088,-0.075925933,1,0,0,toev,0,33,33,11,1
,,,,,,00084,2023-10-23_14h10.15.091,vbt_B1_day2,2022.2.4,Win32,60.72014087,,,,,,,,,,,,,,,,,,,,,,,,,,,,,,,,,,,,,,,,,,krimmen,images/br_krimmen.png,images/cb_krimmen.png,,kri,,,,,,,,,,,0.124074088,-0.075925933,1,0,0,kri,0,34,34,35,1
,,,,,,00084,2023-10-23_14h10.15.091,vbt_B1_day2,2022.2.4,Win32,60.72014087,,,,,,,,,,,,,,,,,,,,,,,,,,,,,,,,,,,,,,,,,,badon,images/br_badon.png,images/cb_badon.png,,badon,,,,,,,,,,,0.124074088,-0.075925933,1,0,0,badon,0,35,35,26,1
,,,,,,00084,2023-10-23_14h10.15.091,vbt_B1_day2,2022.2.4,Win32,60.72014087,,,,,,,,,,,,,,,,,,,,,,,,,,,,,,,,,,,,,,,,,,breuk,images/br_breuk.png,images/cb_breuk.png,,breu,,,,,,,,,,,0.124074088,-0.075925933,1,0,0,breu,0,36,36,45,1
,,,,,,00084,2023-10-23_14h10.15.091,vbt_B1_day2,2022.2.4,Win32,60.72014087,,,,,,,,,,,,,,,,,,,,,,,,,,,,,,,,,,,,,,,,,,moes,images/br_moes.png,images/cb_moes.png,,moe,,,,,,,,,,,0.124074088,-0.075925933,1,0,0,moe,0,37,37,0,1
,,,,,,00084,2023-10-23_14h10.15.091,vbt_B1_day2,2022.2.4,Win32,60.72014087,,,,,,,,,,,,,,,,,,,,,,,,,,,,,,,,,,,,,,,,,,zegel,images/br_zegel.png,images/cb_zegel.png,,neg,,,,,,,,,,,0.124074088,-0.075925933,1,0,0,neg,0,38,38,46,1
,,,,,,00084,2023-10-23_14h10.15.091,vbt_B1_day2,2022.2.4,Win32,60.72014087,,,,,,,,,,,,,,,,,,,,,,,,,,,,,,,,,,,,,,,,,,stes,images/br_stes.png,images/cb_stes.png,,stes,,,,,,,,,,,0.124074088,-0.075925933,1,0,0,stes,0,39,39,21,1
,,,,,,00084,2023-10-23_14h10.15.091,vbt_B1_day2,2022.2.4,Win32,60.72014087,,,,,,,,,,,,,,,,,,,,,,,,,,,,,,,,,,,,,,,,,,kijlen,images/br_kijlen.png,images/cb_kijlen.png,,kijl,,,,,,,,,,,0.124074088,-0.075925933,1,0,0,kijl,0,40,40,31,1
,,,,,,00084,2023-10-23_14h10.15.091,vbt_B1_day2,2022.2.4,Win32,60.72014087,,,,,,,,,,,,,,,,,,,,,,,,,,,,,,,,,,,,,,,,,,blad,images/br_blad.png,images/cb_blad.png,,blad,,,,,,,,,,,0.124074088,-0.075925933,1,0,0,blad,0,41,41,1,1
,,,,,,00084,2023-10-23_14h10.15.091,vbt_B1_day2,2022.2.4,Win32,60.72014087,,,,,,,,,,,,,,,,,,,,,,,,,,,,,,,,,,,,,,,,,,tand,images/br_tand.png,images/cb_tand.png,,tand,,,,,,,,,,,0.124074088,-0.075925933,1,0,0,tand,0,42,42,42,1
,,,,,,00084,2023-10-23_14h10.15.091,vbt_B1_day2,2022.2.4,Win32,60.72014087,,,,,,,,,,,,,,,,,,,,,,,,,,,,,,,,,,,,,,,,,,flits,images/br_flits.png,images/cb_flits.png,,flit,,,,,,,,,,,0.124074088,-0.075925933,1,0,0,flit,0,43,43,4,1
,,,,,,00084,2023-10-23_14h10.15.091,vbt_B1_day2,2022.2.4,Win32,60.72014087,,,,,,,,,,,,,,,,,,,,,,,,,,,,,,,,,,,,,,,,,,trots,images/br_trots.png,images/cb_trots.png,,trot,,,,,,,,,,,0.124074088,-0.075925933,1,0,0,trot,0,44,44,44,1
,,,,,,00084,2023-10-23_14h10.15.091,vbt_B1_day2,2022.2.4,Win32,60.72014087,,,,,,,,,,,,,,,,,,,,,,,,,,,,,,,,,,,,,,,,,,kasteel,images/br_kasteel.png,images/cb_kasteel.png,,kasteel,,,,,,,,,,,0.124074088,-0.075925933,1,0,0,kasteel,0,45,45,14,1
,,,,,,00084,2023-10-23_14h10.15.091,vbt_B1_day2,2022.2.4,Win32,60.72014087,,,,,,,,,,,,,,,,,,,,,,,,,,,,,,,,,,,,,,,,,,agressie,images/br_agressie.png,images/cb_agressie.png,,agr,,,,,,,,,,,0.124074088,-0.075925933,1,0,0,agr,0,46,46,59,1
,,,,,,00084,2023-10-23_14h10.15.091,vbt_B1_day2,2022.2.4,Win32,60.72014087,,,,,,,,,,,,,,,,,,,,,,,,,,,,,,,,,,,,,,,,,,plannen,images/br_plannen.png,images/cb_plannen.png,,plannen,,,,,,,,,,,0.124074088,-0.075925933,1,0,0,plannen,0,47,47,55,1
,,,,,,00084,2023-10-23_14h10.15.091,vbt_B1_day2,2022.2.4,Win32,60.72014087,,,,,,,,,,,,,,,,,,,,,,,,,,,,,,,,,,,,,,,,,,welzijn,images/br_welzijn.png,images/cb_welzijn.png,,welz,,,,,,,,,,,0.124074088,-0.075925933,1,0,0,welz,0,48,48,52,1
,,,,,,00084,2023-10-23_14h10.15.091,vbt_B1_day2,2022.2.4,Win32,60.72014087,,,,,,,,,,,,,,,,,,,,,,,,,,,,,,,,,,,,,,,,,,woning,images/br_woning.png,images/cb_woning.png,,wone,,,,,,,,,,,0.124074088,-0.075925933,1,0,0,wone,0,49,49,10,1
,,,,,,00084,2023-10-23_14h10.15.091,vbt_B1_day2,2022.2.4,Win32,60.72014087,,,,,,,,,,,,,,,,,,,,,,,,,,,,,,,,,,,,,,,,,,manieren,images/br_manieren.png,images/cb_manieren.png,,man,,,,,,,,,,,0.124074088,-0.075925933,1,0,0,man,0,50,50,56,1
,,,,,,00084,2023-10-23_14h10.15.091,vbt_B1_day2,2022.2.4,Win32,60.72014087,,,,,,,,,,,,,,,,,,,,,,,,,,,,,,,,,,,,,,,,,,doodmoe,images/br_doodmoe.png,images/cb_doodmoe.png,,dadm,,,,,,,,,,,0.124074088,-0.075925933,1,0,0,dadm,0,51,51,15,1
,,,,,,00084,2023-10-23_14h10.15.091,vbt_B1_day2,2022.2.4,Win32,60.72014087,,,,,,,,,,,,,,,,,,,,,,,,,,,,,,,,,,,,,,,,,,systeem,images/br_systeem.png,images/cb_systeem.png,,syst,,,,,,,,,,,0.124074088,-0.075925933,1,0,0,syst,0,52,52,54,1
,,,,,,00084,2023-10-23_14h10.15.091,vbt_B1_day2,2022.2.4,Win32,60.72014087,,,,,,,,,,,,,,,,,,,,,,,,,,,,,,,,,,,,,,,,,,lurgen,images/br_lurgen.png,images/cb_lurgen.png,,lurg,,,,,,,,,,,0.124074088,-0.075925933,1,0,0,lurg,0,53,53,29,1
,,,,,,00084,2023-10-23_14h10.15.091,vbt_B1_day2,2022.2.4,Win32,60.72014087,,,,,,,,,,,,,,,,,,,,,,,,,,,,,,,,,,,,,,,,,,anarchie,images/br_anarchie.png,images/cb_anarchie.png,,anar,,,,,,,,,,,0.124074088,-0.075925933,1,0,0,anar,0,54,54,16,1
,,,,,,00084,2023-10-23_14h10.15.091,vbt_B1_day2,2022.2.4,Win32,60.72014087,,,,,,,,,,,,,,,,,,,,,,,,,,,,,,,,,,,,,,,,,,zwager,images/br_zwager.png,images/cb_zwager.png,,zw,,,,,,,,,,,0.124074088,-0.075925933,1,0,0,zw,0,55,55,49,1
,,,,,,00084,2023-10-23_14h10.15.091,vbt_B1_day2,2022.2.4,Win32,60.72014087,,,,,,,,,,,,,,,,,,,,,,,,,,,,,,,,,,,,,,,,,,piste,images/br_piste.png,images/cb_piste.png,,p,,,,,,,,,,,0.124074088,-0.075925933,1,0,0,p,0,56,56,5,1
,,,,,,00084,2023-10-23_14h10.15.091,vbt_B1_day2,2022.2.4,Win32,60.72014087,,,,,,,,,,,,,,,,,,,,,,,,,,,,,,,,,,,,,,,,,,remel,images/br_remel.png,images/cb_remel.png,,remel,,,,,,,,,,,0.124074088,-0.075925933,1,0,0,remel,0,57,57,25,1
,,,,,,00084,2023-10-23_14h10.15.091,vbt_B1_day2,2022.2.4,Win32,60.72014087,,,,,,,,,,,,,,,,,,,,,,,,,,,,,,,,,,,,,,,,,,inzicht,images/br_inzicht.png,images/cb_inzicht.png,,inz,,,,,,,,,,,0.124074088,-0.075925933,1,0,0,inz,0,58,58,53,1
,,,,,,00084,2023-10-23_14h10.15.091,vbt_B1_day2,2022.2.4,Win32,60.72014087,,,,,,,,,,,,,,,,,,,,,,,,,,,,,,,,,,,,,,,,,,aanvraag,images/br_aanvraag.png,images/cb_aanvraag.png,,aanvr,,,,,,,,,,,0.124074088,-0.075925933,1,0,0,aanvr,0,59,59,57,1
,,,,,,00084,2023-10-23_14h10.15.091,vbt_B1_day2,2022.2.4,Win32,60.72014087,,,,,,,,,,,,,,,,,,,,,,,,,,,,,,,,,,,,,,,,,,,,,,,,,,,,,,,,,,,,,,,,,,,
