welcome_mouse.x,welcome_mouse.y,welcome_mouse.leftButton,welcome_mouse.midButton,welcome_mouse.rightButton,welcome_mouse.time,"ID",date,expName,psychopyVersion,OS,frameRate,refresh_mouse.x,refresh_mouse.y,refresh_mouse.leftButton,refresh_mouse.midButton,refresh_mouse.rightButton,refresh_mouse.time,braille_mouse.x,braille_mouse.y,braille_mouse.leftButton,braille_mouse.midButton,braille_mouse.rightButton,braille_mouse.time,trials.thisRepN,trials.thisTrialN,trials.thisN,trials.thisIndex,trials.ran,nlLet,brLet,cbLet,trainInstr_mouse.x,trainInstr_mouse.y,trainInstr_mouse.leftButton,trainInstr_mouse.midButton,trainInstr_mouse.rightButton,trainInstr_mouse.time,translation_key.keys,translation_key.corr,translation_key.rt,word_rsp.text,word_mouse.x,word_mouse.y,word_mouse.leftButton,word_mouse.midButton,word_mouse.rightButton,word_mouse.time,train_loop.thisRepN,train_loop.thisTrialN,train_loop.thisN,train_loop.thisIndex,train_loop.ran,nlWrd,brWrd,cbWrd,test,testResp,mouse.x,mouse.y,mouse.leftButton,mouse.midButton,mouse.rightButton,testInstr_mouse.x,testInstr_mouse.y,testInstr_mouse.leftButton,testInstr_mouse.midButton,testInstr_mouse.rightButton,test_mouse.x,test_mouse.y,test_mouse.leftButton,test_mouse.midButton,test_mouse.rightButton,test_response.text,test_loop.thisRepN,test_loop.thisTrialN,test_loop.thisN,test_loop.thisIndex,test_loop.ran
-0.103703647,-0.263888889,1,0,0,30.528,00058,2023-10-13_11h26.32.410,vbt_B1_day2,2022.2.4,Win32,59.46363799,,,,,,,,,,,,,,,,,,,,,,,,,,,,,,,,,,,,,,,,,,,,,,,,,,,,,,,,,,,,,,,,,,,
,,,,,,00058,2023-10-13_11h26.32.410,vbt_B1_day2,2022.2.4,Win32,59.46363799,-0.101851824,-0.263888889,1,0,0,9.793,,,,,,,,,,,,,,,,,,,,,,,,,,,,,,,,,,,,,,,,,,,,,,,,,,,,,,,,,,,,,
,,,,,,00058,2023-10-13_11h26.32.410,vbt_B1_day2,2022.2.4,Win32,59.46363799,,,,,,,-0.101851824,-0.263888889,1,0,0,0.5297,0,0,0,19,1,t,images/br_t.png,images/cb_t.png,,,,,,,,,,,,,,,,,,,,,,,,,,,,,,,,,,,,,,,,,,,,,,,
,,,,,,00058,2023-10-13_11h26.32.410,vbt_B1_day2,2022.2.4,Win32,59.46363799,,,,,,,-0.081481425,-0.264814843,1,0,0,9.1265,0,1,1,21,1,v,images/br_v.png,images/cb_v.png,,,,,,,,,,,,,,,,,,,,,,,,,,,,,,,,,,,,,,,,,,,,,,,
,,,,,,00058,2023-10-13_11h26.32.410,vbt_B1_day2,2022.2.4,Win32,59.46363799,,,,,,,-0.055555556,-0.28148151,1,0,0,3.0641,0,2,2,17,1,r,images/br_r.png,images/cb_r.png,,,,,,,,,,,,,,,,,,,,,,,,,,,,,,,,,,,,,,,,,,,,,,,
,,,,,,00058,2023-10-13_11h26.32.410,vbt_B1_day2,2022.2.4,Win32,59.46363799,,,,,,,-0.055555556,-0.28148151,1,0,0,0.2166,0,3,3,8,1,i,images/br_i.png,images/cb_i.png,,,,,,,,,,,,,,,,,,,,,,,,,,,,,,,,,,,,,,,,,,,,,,,
,,,,,,00058,2023-10-13_11h26.32.410,vbt_B1_day2,2022.2.4,Win32,59.46363799,,,,,,,0.121296353,-0.129629644,1,0,0,1.1669,0,4,4,4,1,e,images/br_e.png,images/cb_e.png,,,,,,,,,,,,,,,,,,,,,,,,,,,,,,,,,,,,,,,,,,,,,,,
,,,,,,00058,2023-10-13_11h26.32.410,vbt_B1_day2,2022.2.4,Win32,59.46363799,,,,,,,0.204629686,-0.154629644,1,0,0,0.1195,0,5,5,14,1,o,images/br_o.png,images/cb_o.png,,,,,,,,,,,,,,,,,,,,,,,,,,,,,,,,,,,,,,,,,,,,,,,
,,,,,,00058,2023-10-13_11h26.32.410,vbt_B1_day2,2022.2.4,Win32,59.46363799,,,,,,,0.204629686,-0.154629644,1,0,0,9.9083,0,6,6,12,1,m,images/br_m.png,images/cb_m.png,,,,,,,,,,,,,,,,,,,,,,,,,,,,,,,,,,,,,,,,,,,,,,,
,,,,,,00058,2023-10-13_11h26.32.410,vbt_B1_day2,2022.2.4,Win32,59.46363799,,,,,,,0.173148176,-0.141666667,1,0,0,12.5898,0,7,7,5,1,f,images/br_f.png,images/cb_f.png,,,,,,,,,,,,,,,,,,,,,,,,,,,,,,,,,,,,,,,,,,,,,,,
,,,,,,00058,2023-10-13_11h26.32.410,vbt_B1_day2,2022.2.4,Win32,59.46363799,,,,,,,0.173148176,-0.141666667,1,0,0,9.6253,0,8,8,0,1,a,images/br_a.png,images/cb_a.png,,,,,,,,,,,,,,,,,,,,,,,,,,,,,,,,,,,,,,,,,,,,,,,
,,,,,,00058,2023-10-13_11h26.32.410,vbt_B1_day2,2022.2.4,Win32,59.46363799,,,,,,,0.23148151,-0.104629644,1,0,0,3.6779,0,9,9,25,1,z,images/br_z.png,images/cb_z.png,,,,,,,,,,,,,,,,,,,,,,,,,,,,,,,,,,,,,,,,,,,,,,,
,,,,,,00058,2023-10-13_11h26.32.410,vbt_B1_day2,2022.2.4,Win32,59.46363799,,,,,,,0.167592621,-0.097222222,1,0,0,0.0667,0,10,10,6,1,g,images/br_g.png,images/cb_g.png,,,,,,,,,,,,,,,,,,,,,,,,,,,,,,,,,,,,,,,,,,,,,,,
,,,,,,00058,2023-10-13_11h26.32.410,vbt_B1_day2,2022.2.4,Win32,59.46363799,,,,,,,0.161111111,-0.094444444,1,0,0,9.1757,0,11,11,7,1,h,images/br_h.png,images/cb_h.png,,,,,,,,,,,,,,,,,,,,,,,,,,,,,,,,,,,,,,,,,,,,,,,
,,,,,,00058,2023-10-13_11h26.32.410,vbt_B1_day2,2022.2.4,Win32,59.46363799,,,,,,,0.134259288,-0.070370399,1,0,0,3.6302,0,12,12,15,1,p,images/br_p.png,images/cb_p.png,,,,,,,,,,,,,,,,,,,,,,,,,,,,,,,,,,,,,,,,,,,,,,,
,,,,,,00058,2023-10-13_11h26.32.410,vbt_B1_day2,2022.2.4,Win32,59.46363799,,,,,,,0.129629686,-0.101851866,1,0,0,0.4661,0,13,13,1,1,b,images/br_b.png,images/cb_b.png,,,,,,,,,,,,,,,,,,,,,,,,,,,,,,,,,,,,,,,,,,,,,,,
,,,,,,00058,2023-10-13_11h26.32.410,vbt_B1_day2,2022.2.4,Win32,59.46363799,,,,,,,0.141666667,-0.137037065,1,0,0,1.233,0,14,14,18,1,s,images/br_s.png,images/cb_s.png,,,,,,,,,,,,,,,,,,,,,,,,,,,,,,,,,,,,,,,,,,,,,,,
,,,,,,00058,2023-10-13_11h26.32.410,vbt_B1_day2,2022.2.4,Win32,59.46363799,,,,,,,0.093518575,-0.149074088,1,0,0,0.5031,0,15,15,3,1,d,images/br_d.png,images/cb_d.png,,,,,,,,,,,,,,,,,,,,,,,,,,,,,,,,,,,,,,,,,,,,,,,
,,,,,,00058,2023-10-13_11h26.32.410,vbt_B1_day2,2022.2.4,Win32,59.46363799,,,,,,,0.110185242,-0.169444444,1,0,0,0.0176,0,16,16,23,1,x,images/br_x.png,images/cb_x.png,,,,,,,,,,,,,,,,,,,,,,,,,,,,,,,,,,,,,,,,,,,,,,,
,,,,,,00058,2023-10-13_11h26.32.410,vbt_B1_day2,2022.2.4,Win32,59.46363799,,,,,,,0.112963019,-0.169444444,1,0,0,0.3494,0,17,17,22,1,w,images/br_w.png,images/cb_w.png,,,,,,,,,,,,,,,,,,,,,,,,,,,,,,,,,,,,,,,,,,,,,,,
,,,,,,00058,2023-10-13_11h26.32.410,vbt_B1_day2,2022.2.4,Win32,59.46363799,,,,,,,0.103703732,-0.151851866,1,0,0,3.1778,0,18,18,24,1,y,images/br_y.png,images/cb_y.png,,,,,,,,,,,,,,,,,,,,,,,,,,,,,,,,,,,,,,,,,,,,,,,
,,,,,,00058,2023-10-13_11h26.32.410,vbt_B1_day2,2022.2.4,Win32,59.46363799,,,,,,,0.13148151,-0.124074088,1,0,0,0.3688,0,19,19,11,1,l,images/br_l.png,images/cb_l.png,,,,,,,,,,,,,,,,,,,,,,,,,,,,,,,,,,,,,,,,,,,,,,,
,,,,,,00058,2023-10-13_11h26.32.410,vbt_B1_day2,2022.2.4,Win32,59.46363799,,,,,,,0.133333333,-0.124074088,1,0,0,0.1663,0,20,20,2,1,c,images/br_c.png,images/cb_c.png,,,,,,,,,,,,,,,,,,,,,,,,,,,,,,,,,,,,,,,,,,,,,,,
,,,,,,00058,2023-10-13_11h26.32.410,vbt_B1_day2,2022.2.4,Win32,59.46363799,,,,,,,0.129629686,-0.116666667,1,0,0,10.0752,0,21,21,20,1,u,images/br_u.png,images/cb_u.png,,,,,,,,,,,,,,,,,,,,,,,,,,,,,,,,,,,,,,,,,,,,,,,
,,,,,,00058,2023-10-13_11h26.32.410,vbt_B1_day2,2022.2.4,Win32,59.46363799,,,,,,,0.146296353,-0.097222222,1,0,0,5.6989,0,22,22,10,1,k,images/br_k.png,images/cb_k.png,,,,,,,,,,,,,,,,,,,,,,,,,,,,,,,,,,,,,,,,,,,,,,,
,,,,,,00058,2023-10-13_11h26.32.410,vbt_B1_day2,2022.2.4,Win32,59.46363799,,,,,,,0.147222222,-0.102777778,1,0,0,1.9986,0,23,23,13,1,n,images/br_n.png,images/cb_n.png,,,,,,,,,,,,,,,,,,,,,,,,,,,,,,,,,,,,,,,,,,,,,,,
,,,,,,00058,2023-10-13_11h26.32.410,vbt_B1_day2,2022.2.4,Win32,59.46363799,,,,,,,0.152777778,-0.113888889,1,0,0,8.3433,0,24,24,9,1,j,images/br_j.png,images/cb_j.png,,,,,,,,,,,,,,,,,,,,,,,,,,,,,,,,,,,,,,,,,,,,,,,
,,,,,,00058,2023-10-13_11h26.32.410,vbt_B1_day2,2022.2.4,Win32,59.46363799,,,,,,,0.130555556,-0.087037065,1,0,0,4.4631,0,25,25,16,1,q,images/br_q.png,images/cb_q.png,,,,,,,,,,,,,,,,,,,,,,,,,,,,,,,,,,,,,,,,,,,,,,,
,,,,,,00058,2023-10-13_11h26.32.410,vbt_B1_day2,2022.2.4,Win32,59.46363799,,,,,,,,,,,,,,,,,,,,,0.219444444,0.024074046,1,0,0,31.2831,,,,,,,,,,,,,,,,,,,,,,,,,,,,,,,,,,,,,,,,,
,,,,,,00058,2023-10-13_11h26.32.410,vbt_B1_day2,2022.2.4,Win32,59.46363799,,,,,,,,,,,,,,,,,,,,,,,,,,,down,0,33.5915,,0.293518575,-0.123148176,1,0,0,32.3349,0,0,0,180,1,openbaar,images/br_openbaar.png,images/cb_openbaar.png,0,,,,,,,,,,,,,,,,,,,,,,
,,,,,,00058,2023-10-13_11h26.32.410,vbt_B1_day2,2022.2.4,Win32,59.46363799,,,,,,,,,,,,,,,,,,,,,,,,,,,down,0,23.2326,,0.183333333,-0.186111111,1,0,0,3.7629,0,1,1,24,1,jurk,images/br_jurk.png,images/cb_jurk.png,0,,,,,,,,,,,,,,,,,,,,,,
,,,,,,00058,2023-10-13_11h26.32.410,vbt_B1_day2,2022.2.4,Win32,59.46363799,,,,,,,,,,,,,,,,,,,,,,,,,,,down,0,10.8585,,0.237963019,-0.092592621,1,0,0,1.9482,0,2,2,27,1,dans,images/br_dans.png,images/cb_dans.png,0,,,,,,,,,,,,,,,,,,,,,,
,,,,,,00058,2023-10-13_11h26.32.410,vbt_B1_day2,2022.2.4,Win32,59.46363799,,,,,,,,,,,,,,,,,,,,,,,,,,,down,0,9.4109,,0.207407464,-0.092592621,1,0,0,2.714,0,3,3,36,1,vuur,images/br_vuur.png,images/cb_vuur.png,0,,,,,,,,,,,,,,,,,,,,,,
,,,,,,00058,2023-10-13_11h26.32.410,vbt_B1_day2,2022.2.4,Win32,59.46363799,,,,,,,,,,,,,,,,,,,,,,,,,,,down,0,35.7363,,0.207407464,-0.092592621,1,0,0,3.1947,0,4,4,185,1,mijnheer,images/br_mijnheer.png,images/cb_mijnheer.png,0,,,,,,,,,,,,,,,,,,,,,,
,,,,,,00058,2023-10-13_11h26.32.410,vbt_B1_day2,2022.2.4,Win32,59.46363799,,,,,,,,,,,,,,,,,,,,,,,,,,,down,0,7.7283,,0.205555556,-0.092592621,1,0,0,2.2644,0,5,5,51,1,samen,images/br_samen.png,images/cb_samen.png,0,,,,,,,,,,,,,,,,,,,,,,
,,,,,,00058,2023-10-13_11h26.32.410,vbt_B1_day2,2022.2.4,Win32,59.46363799,,,,,,,,,,,,,,,,,,,,,,,,,,,down,0,8.5262,,0.205555556,-0.092592621,1,0,0,1.8485,0,6,6,41,1,maken,images/br_maken.png,images/cb_maken.png,0,,,,,,,,,,,,,,,,,,,,,,
,,,,,,00058,2023-10-13_11h26.32.410,vbt_B1_day2,2022.2.4,Win32,59.46363799,,,,,,,,,,,,,,,,,,,,,,,,,,,down,0,14.2889,,0.135185242,-0.078703732,1,0,0,1.5819,0,7,7,190,1,goedkoop,images/br_goedkoop.png,images/cb_goedkoop.png,0,,,,,,,,,,,,,,,,,,,,,,
,,,,,,00058,2023-10-13_11h26.32.410,vbt_B1_day2,2022.2.4,Win32,59.46363799,,,,,,,,,,,,,,,,,,,,,,,,,,,down,0,8.4946,,0.135185242,-0.078703732,1,0,0,1.3154,0,8,8,189,1,aanraden,images/br_aanraden.png,images/cb_aanraden.png,0,,,,,,,,,,,,,,,,,,,,,,
,,,,,,00058,2023-10-13_11h26.32.410,vbt_B1_day2,2022.2.4,Win32,59.46363799,,,,,,,,,,,,,,,,,,,,,,,,,,,down,0,13.4563,,0.135185242,-0.078703732,1,0,0,1.7812,0,9,9,95,1,vreten,images/br_vreten.png,images/cb_vreten.png,0,,,,,,,,,,,,,,,,,,,,,,
,,,,,,00058,2023-10-13_11h26.32.410,vbt_B1_day2,2022.2.4,Win32,59.46363799,,,,,,,,,,,,,,,,,,,,,,,,,,,down,0,23.2807,,0.135185242,-0.078703732,1,0,0,1.5158,0,10,10,133,1,seizoen,images/br_seizoen.png,images/cb_seizoen.png,0,,,,,,,,,,,,,,,,,,,,,,
,,,,,,00058,2023-10-13_11h26.32.410,vbt_B1_day2,2022.2.4,Win32,59.46363799,,,,,,,,,,,,,,,,,,,,,,,,,,,down,0,18.9865,,0.121296353,-0.066666667,1,0,0,2.0321,0,11,11,129,1,verhaal,images/br_verhaal.png,images/cb_verhaal.png,0,,,,,,,,,,,,,,,,,,,,,,
,,,,,,00058,2023-10-13_11h26.32.410,vbt_B1_day2,2022.2.4,Win32,59.46363799,,,,,,,,,,,,,,,,,,,,,,,,,,,down,0,28.2554,,-0.014814758,-0.13148151,1,0,0,2.4308,0,12,12,143,1,hechten,images/br_hechten.png,images/cb_hechten.png,0,,,,,,,,,,,,,,,,,,,,,,
,,,,,,00058,2023-10-13_11h26.32.410,vbt_B1_day2,2022.2.4,Win32,59.46363799,,,,,,,,,,,,,,,,,,,,,,,,,,,down,0,9.0656,,-0.014814758,-0.13148151,1,0,0,1.2323,0,13,13,47,1,kabel,images/br_kabel.png,images/cb_kabel.png,0,,,,,,,,,,,,,,,,,,,,,,
,,,,,,00058,2023-10-13_11h26.32.410,vbt_B1_day2,2022.2.4,Win32,59.46363799,,,,,,,,,,,,,,,,,,,,,,,,,,,down,0,11.0404,,-0.014814758,-0.13148151,1,0,0,1.2326,0,14,14,118,1,vinger,images/br_vinger.png,images/cb_vinger.png,0,,,,,,,,,,,,,,,,,,,,,,
,,,,,,00058,2023-10-13_11h26.32.410,vbt_B1_day2,2022.2.4,Win32,59.46363799,,,,,,,,,,,,,,,,,,,,,,,,,,,down,0,12.2312,,-0.014814758,-0.13148151,1,0,0,1.3994,0,15,15,173,1,apparaat,images/br_apparaat.png,images/cb_apparaat.png,0,,,,,,,,,,,,,,,,,,,,,,
,,,,,,00058,2023-10-13_11h26.32.410,vbt_B1_day2,2022.2.4,Win32,59.46363799,,,,,,,,,,,,,,,,,,,,,,,,,,,down,0,21.9731,,-0.014814758,-0.13148151,1,0,0,6.1282,0,16,16,54,1,gebit,images/br_gebit.png,images/cb_gebit.png,0,,,,,,,,,,,,,,,,,,,,,,
,,,,,,00058,2023-10-13_11h26.32.410,vbt_B1_day2,2022.2.4,Win32,59.46363799,,,,,,,,,,,,,,,,,,,,,,,,,,,down,0,20.0186,,0.266666667,-0.149074088,1,0,0,6.1277,0,17,17,80,1,kanjer,images/br_kanjer.png,images/cb_kanjer.png,0,,,,,,,,,,,,,,,,,,,,,,
,,,,,,00058,2023-10-13_11h26.32.410,vbt_B1_day2,2022.2.4,Win32,59.46363799,,,,,,,,,,,,,,,,,,,,,,,,,,,down,0,10.9858,,0.450925954,-0.139814843,1,0,0,1.9979,0,18,18,128,1,prikken,images/br_prikken.png,images/cb_prikken.png,0,,,,,,,,,,,,,,,,,,,,,,
,,,,,,00058,2023-10-13_11h26.32.410,vbt_B1_day2,2022.2.4,Win32,59.46363799,,,,,,,,,,,,,,,,,,,,,,,,,,,down,0,11.7132,,0.409259288,-0.12129631,1,0,0,4.9502,0,19,19,177,1,maaltijd,images/br_maaltijd.png,images/cb_maaltijd.png,1,maaltijdmaaltijd,,,,,,,,,,,,,,,,,,,,,
,,,,,,00058,2023-10-13_11h26.32.410,vbt_B1_day2,2022.2.4,Win32,59.46363799,,,,,,,,,,,,,,,,,,,,,,,,,,,down,0,9.9984,,0.645370483,-0.249074131,1,0,0,1.3027,0,20,20,138,1,akkoord,images/br_akkoord.png,images/cb_akkoord.png,1,akkoord,,,,,,,,,,,,,,,,,,,,,
,,,,,,00058,2023-10-13_11h26.32.410,vbt_B1_day2,2022.2.4,Win32,59.46363799,,,,,,,,,,,,,,,,,,,,,,,,,,,down,0,16.8248,,0.362963019,-0.124074088,1,0,0,1.3696,0,21,21,16,1,ziek,images/br_ziek.png,images/cb_ziek.png,1,ziek,,,,,,,,,,,,,,,,,,,,,
,,,,,,00058,2023-10-13_11h26.32.410,vbt_B1_day2,2022.2.4,Win32,59.46363799,,,,,,,,,,,,,,,,,,,,,,,,,,,down,0,0.859,,0.359259288,-0.198148176,1,0,0,14.3042,0,22,22,91,1,gezond,images/br_gezond.png,images/cb_gezond.png,0,,,,,,,,,,,,,,,,,,,,,,
,,,,,,00058,2023-10-13_11h26.32.410,vbt_B1_day2,2022.2.4,Win32,59.46363799,,,,,,,,,,,,,,,,,,,,,,,,,,,down,0,11.661,,0.287037065,-0.168518533,1,0,0,4.5629,0,23,23,119,1,liefje,images/br_liefje.png,images/cb_liefje.png,0,,,,,,,,,,,,,,,,,,,,,,
,,,,,,00058,2023-10-13_11h26.32.410,vbt_B1_day2,2022.2.4,Win32,59.46363799,,,,,,,,,,,,,,,,,,,,,,,,,,,down,0,13.1966,,0.287037065,-0.168518533,1,0,0,1.8144,0,24,24,50,1,stoom,images/br_stoom.png,images/cb_stoom.png,0,,,,,,,,,,,,,,,,,,,,,,
,,,,,,00058,2023-10-13_11h26.32.410,vbt_B1_day2,2022.2.4,Win32,59.46363799,,,,,,,,,,,,,,,,,,,,,,,,,,,down,0,2.9772,,0.317592621,-0.208333333,1,0,0,1.582,0,25,25,48,1,steel,images/br_steel.png,images/cb_steel.png,0,,,,,,,,,,,,,,,,,,,,,,
,,,,,,00058,2023-10-13_11h26.32.410,vbt_B1_day2,2022.2.4,Win32,59.46363799,,,,,,,,,,,,,,,,,,,,,,,,,,,down,0,6.7955,,0.315740797,-0.208333333,1,0,0,2.3817,0,26,26,65,1,parel,images/br_parel.png,images/cb_parel.png,0,,,,,,,,,,,,,,,,,,,,,,
,,,,,,00058,2023-10-13_11h26.32.410,vbt_B1_day2,2022.2.4,Win32,59.46363799,,,,,,,,,,,,,,,,,,,,,,,,,,,down,0,1.6258,,0.266666667,-0.200925954,1,0,0,1.1153,0,27,27,0,1,slak,images/br_slak.png,images/cb_slak.png,0,,,,,,,,,,,,,,,,,,,,,,
,,,,,,00058,2023-10-13_11h26.32.410,vbt_B1_day2,2022.2.4,Win32,59.46363799,,,,,,,,,,,,,,,,,,,,,,,,,,,down,0,10.0585,,0.23148151,-0.162962977,1,0,0,1.6029,0,28,28,93,1,waarop,images/br_waarop.png,images/cb_waarop.png,0,,,,,,,,,,,,,,,,,,,,,,
,,,,,,00058,2023-10-13_11h26.32.410,vbt_B1_day2,2022.2.4,Win32,59.46363799,,,,,,,,,,,,,,,,,,,,,,,,,,,down,0,5.5118,,0.23148151,-0.162962977,1,0,0,1.6331,0,29,29,38,1,baai,images/br_baai.png,images/cb_baai.png,0,,,,,,,,,,,,,,,,,,,,,,
,,,,,,00058,2023-10-13_11h26.32.410,vbt_B1_day2,2022.2.4,Win32,59.46363799,,,,,,,,,,,,,,,,,,,,,,,,,,,down,0,5.8105,,0.278703732,-0.155555556,1,0,0,2.6989,0,30,30,1,1,zaal,images/br_zaal.png,images/cb_zaal.png,0,,,,,,,,,,,,,,,,,,,,,,
,,,,,,00058,2023-10-13_11h26.32.410,vbt_B1_day2,2022.2.4,Win32,59.46363799,,,,,,,,,,,,,,,,,,,,,,,,,,,down,0,7.5208,,0.278703732,-0.155555556,1,0,0,1.4154,0,31,31,110,1,zuster,images/br_zuster.png,images/cb_zuster.png,0,,,,,,,,,,,,,,,,,,,,,,
,,,,,,00058,2023-10-13_11h26.32.410,vbt_B1_day2,2022.2.4,Win32,59.46363799,,,,,,,,,,,,,,,,,,,,,,,,,,,down,0,13.8617,,0.278703732,-0.155555556,1,0,0,4.2801,0,32,32,68,1,schat,images/br_schat.png,images/cb_schat.png,0,,,,,,,,,,,,,,,,,,,,,,
,,,,,,00058,2023-10-13_11h26.32.410,vbt_B1_day2,2022.2.4,Win32,59.46363799,,,,,,,,,,,,,,,,,,,,,,,,,,,down,0,29.8209,,0.278703732,-0.155555556,1,0,0,1.8485,0,33,33,184,1,aandelen,images/br_aandelen.png,images/cb_aandelen.png,0,,,,,,,,,,,,,,,,,,,,,,
,,,,,,00058,2023-10-13_11h26.32.410,vbt_B1_day2,2022.2.4,Win32,59.46363799,,,,,,,,,,,,,,,,,,,,,,,,,,,down,0,16.5703,,0.404629686,-0.039814843,1,0,0,11.1763,0,34,34,157,1,uitlaat,images/br_uitlaat.png,images/cb_uitlaat.png,0,,,,,,,,,,,,,,,,,,,,,,
,,,,,,00058,2023-10-13_11h26.32.410,vbt_B1_day2,2022.2.4,Win32,59.46363799,,,,,,,,,,,,,,,,,,,,,,,,,,,down,0,5.9622,,0.487037065,-0.149074088,1,0,0,1.2159,0,35,35,19,1,geit,images/br_geit.png,images/cb_geit.png,1,geit,,,,,,,,,,,,,,,,,,,,,
,,,,,,00058,2023-10-13_11h26.32.410,vbt_B1_day2,2022.2.4,Win32,59.46363799,,,,,,,,,,,,,,,,,,,,,,,,,,,down,0,16.2112,,0.334259288,-0.2,1,0,0,2.7193,0,36,36,164,1,anarchie,images/br_anarchie.png,images/cb_anarchie.png,0,,,,,,,,,,,,,,,,,,,,,,
,,,,,,00058,2023-10-13_11h26.32.410,vbt_B1_day2,2022.2.4,Win32,59.46363799,,,,,,,,,,,,,,,,,,,,,,,,,,,down,0,9.4434,,0.334259288,-0.2,1,0,0,2.4352,0,37,37,181,1,toegeven,images/br_toegeven.png,images/cb_toegeven.png,0,,,,,,,,,,,,,,,,,,,,,,
,,,,,,00058,2023-10-13_11h26.32.410,vbt_B1_day2,2022.2.4,Win32,59.46363799,,,,,,,,,,,,,,,,,,,,,,,,,,,down,0,9.045,,0.403703732,-0.202777778,1,0,0,2.3851,0,38,38,175,1,heengaan,images/br_heengaan.png,images/cb_heengaan.png,0,,,,,,,,,,,,,,,,,,,,,,
,,,,,,00058,2023-10-13_11h26.32.410,vbt_B1_day2,2022.2.4,Win32,59.46363799,,,,,,,,,,,,,,,,,,,,,,,,,,,down,0,16.4703,,0.403703732,-0.202777778,1,0,0,1.6985,0,39,39,90,1,geluid,images/br_geluid.png,images/cb_geluid.png,0,,,,,,,,,,,,,,,,,,,,,,
,,,,,,00058,2023-10-13_11h26.32.410,vbt_B1_day2,2022.2.4,Win32,59.46363799,,,,,,,,,,,,,,,,,,,,,,,,,,,down,0,19.7924,,0.479629686,-0.010185199,1,0,0,1.7688,0,40,40,45,1,piste,images/br_piste.png,images/cb_piste.png,0,,,,,,,,,,,,,,,,,,,,,,
,,,,,,00058,2023-10-13_11h26.32.410,vbt_B1_day2,2022.2.4,Win32,59.46363799,,,,,,,,,,,,,,,,,,,,,,,,,,,down,0,5.0806,,0.479629686,-0.010185199,1,0,0,1.8147,0,41,41,122,1,waarvan,images/br_waarvan.png,images/cb_waarvan.png,0,,,,,,,,,,,,,,,,,,,,,,
,,,,,,00058,2023-10-13_11h26.32.410,vbt_B1_day2,2022.2.4,Win32,59.46363799,,,,,,,,,,,,,,,,,,,,,,,,,,,down,0,8.4606,,0.479629686,-0.010185199,1,0,0,1.6653,0,42,42,81,1,dubbel,images/br_dubbel.png,images/cb_dubbel.png,0,,,,,,,,,,,,,,,,,,,,,,
,,,,,,00058,2023-10-13_11h26.32.410,vbt_B1_day2,2022.2.4,Win32,59.46363799,,,,,,,,,,,,,,,,,,,,,,,,,,,down,0,6.3747,,0.278703732,-0.113888889,1,0,0,2.1509,0,43,43,102,1,legaal,images/br_legaal.png,images/cb_legaal.png,0,,,,,,,,,,,,,,,,,,,,,,
,,,,,,00058,2023-10-13_11h26.32.410,vbt_B1_day2,2022.2.4,Win32,59.46363799,,,,,,,,,,,,,,,,,,,,,,,,,,,down,0,6.2301,,0.327777778,-0.118518533,1,0,0,0.9324,0,44,44,11,1,mode,images/br_mode.png,images/cb_mode.png,0,,,,,,,,,,,,,,,,,,,,,,
,,,,,,00058,2023-10-13_11h26.32.410,vbt_B1_day2,2022.2.4,Win32,59.46363799,,,,,,,,,,,,,,,,,,,,,,,,,,,down,0,10.7802,,0.276851908,-0.119444444,1,0,0,1.1691,0,45,45,71,1,bever,images/br_bever.png,images/cb_bever.png,0,,,,,,,,,,,,,,,,,,,,,,
,,,,,,00058,2023-10-13_11h26.32.410,vbt_B1_day2,2022.2.4,Win32,59.46363799,,,,,,,,,,,,,,,,,,,,,,,,,,,down,0,7.2217,,0.410185242,-0.213888889,1,0,0,1.2314,0,46,46,18,1,blik,images/br_blik.png,images/cb_blik.png,1,blik,,,,,,,,,,,,,,,,,,,,,
,,,,,,00058,2023-10-13_11h26.32.410,vbt_B1_day2,2022.2.4,Win32,59.46363799,,,,,,,,,,,,,,,,,,,,,,,,,,,down,0,2.7826,,0.342592621,-0.098148176,1,0,0,1.2543,0,47,47,10,1,leek,images/br_leek.png,images/cb_leek.png,0,,,,,,,,,,,,,,,,,,,,,,
,,,,,,00058,2023-10-13_11h26.32.410,vbt_B1_day2,2022.2.4,Win32,59.46363799,,,,,,,,,,,,,,,,,,,,,,,,,,,down,0,5.4198,,0.373148176,-0.175,1,0,0,1.1662,0,48,48,96,1,slagen,images/br_slagen.png,images/cb_slagen.png,1,slagen,,,,,,,,,,,,,,,,,,,,,
,,,,,,00058,2023-10-13_11h26.32.410,vbt_B1_day2,2022.2.4,Win32,59.46363799,,,,,,,,,,,,,,,,,,,,,,,,,,,down,0,6.8832,,0.365740797,-0.175,1,0,0,1.1492,0,49,49,101,1,staren,images/br_staren.png,images/cb_staren.png,0,,,,,,,,,,,,,,,,,,,,,,
,,,,,,00058,2023-10-13_11h26.32.410,vbt_B1_day2,2022.2.4,Win32,59.46363799,,,,,,,,,,,,,,,,,,,,,,,,,,,down,0,18.5062,,0.351851908,-0.172222222,1,0,0,1.382,0,50,50,82,1,muziek,images/br_muziek.png,images/cb_muziek.png,0,,,,,,,,,,,,,,,,,,,,,,
,,,,,,00058,2023-10-13_11h26.32.410,vbt_B1_day2,2022.2.4,Win32,59.46363799,,,,,,,,,,,,,,,,,,,,,,,,,,,down,0,18.235,,0.159259288,-0.057407422,1,0,0,1.7488,0,51,51,140,1,blijven,images/br_blijven.png,images/cb_blijven.png,0,,,,,,,,,,,,,,,,,,,,,,
,,,,,,00058,2023-10-13_11h26.32.410,vbt_B1_day2,2022.2.4,Win32,59.46363799,,,,,,,,,,,,,,,,,,,,,,,,,,,down,0,7.0207,,0.575926039,-0.157407422,1,0,0,2.3145,0,52,52,149,1,redding,images/br_redding.png,images/cb_redding.png,0,,,,,,,,,,,,,,,,,,,,,,
,,,,,,00058,2023-10-13_11h26.32.410,vbt_B1_day2,2022.2.4,Win32,59.46363799,,,,,,,,,,,,,,,,,,,,,,,,,,,down,0,13.0395,,0.516666667,-0.149074088,1,0,0,1.1654,0,53,53,155,1,gerucht,images/br_gerucht.png,images/cb_gerucht.png,0,,,,,,,,,,,,,,,,,,,,,,
,,,,,,00058,2023-10-13_11h26.32.410,vbt_B1_day2,2022.2.4,Win32,59.46363799,,,,,,,,,,,,,,,,,,,,,,,,,,,down,0,5.5965,,0.516666667,-0.149074088,1,0,0,1.4148,0,54,54,132,1,grappen,images/br_grappen.png,images/cb_grappen.png,0,,,,,,,,,,,,,,,,,,,,,,
,,,,,,00058,2023-10-13_11h26.32.410,vbt_B1_day2,2022.2.4,Win32,59.46363799,,,,,,,,,,,,,,,,,,,,,,,,,,,down,0,35.0496,,0.516666667,-0.149074088,1,0,0,10.1582,0,55,55,159,1,sufferd,images/br_sufferd.png,images/cb_sufferd.png,0,,,,,,,,,,,,,,,,,,,,,,
,,,,,,00058,2023-10-13_11h26.32.410,vbt_B1_day2,2022.2.4,Win32,59.46363799,,,,,,,,,,,,,,,,,,,,,,,,,,,down,0,5.4226,,0.387037065,-0.098148176,1,0,0,1.3989,0,56,56,187,1,opkijken,images/br_opkijken.png,images/cb_opkijken.png,0,,,,,,,,,,,,,,,,,,,,,,
,,,,,,00058,2023-10-13_11h26.32.410,vbt_B1_day2,2022.2.4,Win32,59.46363799,,,,,,,,,,,,,,,,,,,,,,,,,,,down,0,4.8461,,0.387037065,-0.098148176,1,0,0,0.9659,0,57,57,35,1,lust,images/br_lust.png,images/cb_lust.png,0,,,,,,,,,,,,,,,,,,,,,,
,,,,,,00058,2023-10-13_11h26.32.410,vbt_B1_day2,2022.2.4,Win32,59.46363799,,,,,,,,,,,,,,,,,,,,,,,,,,,down,0,0.6211,,0.387037065,-0.098148176,1,0,0,0.8992,0,58,58,84,1,lokken,images/br_lokken.png,images/cb_lokken.png,0,,,,,,,,,,,,,,,,,,,,,,
,,,,,,00058,2023-10-13_11h26.32.410,vbt_B1_day2,2022.2.4,Win32,59.46363799,,,,,,,,,,,,,,,,,,,,,,,,,,,down,0,3.5144,,0.387037065,-0.098148176,1,0,0,0.9652,0,59,59,170,1,schatten,images/br_schatten.png,images/cb_schatten.png,0,,,,,,,,,,,,,,,,,,,,,,
,,,,,,00058,2023-10-13_11h26.32.410,vbt_B1_day2,2022.2.4,Win32,59.46363799,,,,,,,,,,,,,,,,,,,,,,,,,,,down,0,5.6959,,0.387037065,-0.098148176,1,0,0,0.9826,0,60,60,103,1,joggen,images/br_joggen.png,images/cb_joggen.png,0,,,,,,,,,,,,,,,,,,,,,,
,,,,,,00058,2023-10-13_11h26.32.410,vbt_B1_day2,2022.2.4,Win32,59.46363799,,,,,,,,,,,,,,,,,,,,,,,,,,,down,0,6.6493,,0.387037065,-0.097222222,1,0,0,1.1318,0,61,61,40,1,schep,images/br_schep.png,images/cb_schep.png,0,,,,,,,,,,,,,,,,,,,,,,
,,,,,,00058,2023-10-13_11h26.32.410,vbt_B1_day2,2022.2.4,Win32,59.46363799,,,,,,,,,,,,,,,,,,,,,,,,,,,down,0,10.0466,,0.354629686,-0.09629631,1,0,0,1.1155,0,62,62,151,1,aanzoek,images/br_aanzoek.png,images/cb_aanzoek.png,0,,,,,,,,,,,,,,,,,,,,,,
,,,,,,00058,2023-10-13_11h26.32.410,vbt_B1_day2,2022.2.4,Win32,59.46363799,,,,,,,,,,,,,,,,,,,,,,,,,,,down,0,34.9402,,0.323148176,-0.09629631,1,0,0,7.5937,0,63,63,130,1,keihard,images/br_keihard.png,images/cb_keihard.png,0,,,,,,,,,,,,,,,,,,,,,,
,,,,,,00058,2023-10-13_11h26.32.410,vbt_B1_day2,2022.2.4,Win32,59.46363799,,,,,,,,,,,,,,,,,,,,,,,,,,,down,0,8.263,,0.323148176,-0.09629631,1,0,0,1.4823,0,64,64,74,1,graaf,images/br_graaf.png,images/cb_graaf.png,0,,,,,,,,,,,,,,,,,,,,,,
,,,,,,00058,2023-10-13_11h26.32.410,vbt_B1_day2,2022.2.4,Win32,59.46363799,,,,,,,,,,,,,,,,,,,,,,,,,,,down,0,7.5508,,0.323148176,-0.09629631,1,0,0,1.3657,0,65,65,174,1,stemming,images/br_stemming.png,images/cb_stemming.png,0,,,,,,,,,,,,,,,,,,,,,,
,,,,,,00058,2023-10-13_11h26.32.410,vbt_B1_day2,2022.2.4,Win32,59.46363799,,,,,,,,,,,,,,,,,,,,,,,,,,,down,0,11.5689,,0.323148176,-0.09629631,1,0,0,1.199,0,66,66,144,1,eetlust,images/br_eetlust.png,images/cb_eetlust.png,0,,,,,,,,,,,,,,,,,,,,,,
,,,,,,00058,2023-10-13_11h26.32.410,vbt_B1_day2,2022.2.4,Win32,59.46363799,,,,,,,,,,,,,,,,,,,,,,,,,,,down,0,9.0187,,0.323148176,-0.09629631,1,0,0,1.1325,0,67,67,172,1,weigeren,images/br_weigeren.png,images/cb_weigeren.png,0,,,,,,,,,,,,,,,,,,,,,,
,,,,,,00058,2023-10-13_11h26.32.410,vbt_B1_day2,2022.2.4,Win32,59.46363799,,,,,,,,,,,,,,,,,,,,,,,,,,,down,0,11.244,,0.343518575,-0.09629631,1,0,0,1.1487,0,68,68,44,1,flits,images/br_flits.png,images/cb_flits.png,0,,,,,,,,,,,,,,,,,,,,,,
,,,,,,00058,2023-10-13_11h26.32.410,vbt_B1_day2,2022.2.4,Win32,59.46363799,,,,,,,,,,,,,,,,,,,,,,,,,,,down,0,10.4861,,0.347222222,-0.09629631,1,0,0,1.8651,0,69,69,105,1,wijlen,images/br_wijlen.png,images/cb_wijlen.png,0,,,,,,,,,,,,,,,,,,,,,,
,,,,,,00058,2023-10-13_11h26.32.410,vbt_B1_day2,2022.2.4,Win32,59.46363799,,,,,,,,,,,,,,,,,,,,,,,,,,,down,0,8.8009,,0.551851908,-0.050925954,1,0,0,1.3485,0,70,70,194,1,driemaal,images/br_driemaal.png,images/cb_driemaal.png,0,,,,,,,,,,,,,,,,,,,,,,
,,,,,,00058,2023-10-13_11h26.32.410,vbt_B1_day2,2022.2.4,Win32,59.46363799,,,,,,,,,,,,,,,,,,,,,,,,,,,down,0,3.8311,,0.551851908,-0.050925954,1,0,0,1.2153,0,71,71,43,1,klauw,images/br_klauw.png,images/cb_klauw.png,0,,,,,,,,,,,,,,,,,,,,,,
,,,,,,00058,2023-10-13_11h26.32.410,vbt_B1_day2,2022.2.4,Win32,59.46363799,,,,,,,,,,,,,,,,,,,,,,,,,,,down,0,3.5243,,0.688888889,-0.050925954,1,0,0,1.2989,0,72,72,94,1,oceaan,images/br_oceaan.png,images/cb_oceaan.png,0,,,,,,,,,,,,,,,,,,,,,,
,,,,,,00058,2023-10-13_11h26.32.410,vbt_B1_day2,2022.2.4,Win32,59.46363799,,,,,,,,,,,,,,,,,,,,,,,,,,,down,0,12.0242,,0.287963019,-0.104629644,1,0,0,2.7972,0,73,73,191,1,opheffen,images/br_opheffen.png,images/cb_opheffen.png,0,,,,,,,,,,,,,,,,,,,,,,
,,,,,,00058,2023-10-13_11h26.32.410,vbt_B1_day2,2022.2.4,Win32,59.46363799,,,,,,,,,,,,,,,,,,,,,,,,,,,down,0,3.9804,,0.537963019,-0.208333333,1,0,0,1.0152,0,74,74,73,1,volop,images/br_volop.png,images/cb_volop.png,0,,,,,,,,,,,,,,,,,,,,,,
,,,,,,00058,2023-10-13_11h26.32.410,vbt_B1_day2,2022.2.4,Win32,59.46363799,,,,,,,,,,,,,,,,,,,,,,,,,,,down,0,5.0382,,0.537963019,-0.208333333,1,0,0,0.9325,0,75,75,58,1,tekst,images/br_tekst.png,images/cb_tekst.png,1,tekst,,,,,,,,,,,,,,,,,,,,,
,,,,,,00058,2023-10-13_11h26.32.410,vbt_B1_day2,2022.2.4,Win32,59.46363799,,,,,,,,,,,,,,,,,,,,,,,,,,,down,0,5.2294,,0.537963019,-0.208333333,1,0,0,1.6986,0,76,76,188,1,strekken,images/br_strekken.png,images/cb_strekken.png,0,,,,,,,,,,,,,,,,,,,,,,
,,,,,,00058,2023-10-13_11h26.32.410,vbt_B1_day2,2022.2.4,Win32,59.46363799,,,,,,,,,,,,,,,,,,,,,,,,,,,down,0,2.6507,,0.163888889,-0.099074088,1,0,0,3.0308,0,77,77,28,1,stal,images/br_stal.png,images/cb_stal.png,0,,,,,,,,,,,,,,,,,,,,,,
,,,,,,00058,2023-10-13_11h26.32.410,vbt_B1_day2,2022.2.4,Win32,59.46363799,,,,,,,,,,,,,,,,,,,,,,,,,,,down,0,14.9804,,0.553703817,-0.018518533,1,0,0,4.0133,0,78,78,30,1,uien,images/br_uien.png,images/cb_uien.png,0,,,,,,,,,,,,,,,,,,,,,,
,,,,,,00058,2023-10-13_11h26.32.410,vbt_B1_day2,2022.2.4,Win32,59.46363799,,,,,,,,,,,,,,,,,,,,,,,,,,,down,0,22.5507,,0.475925954,-0.03148151,1,0,0,6.9275,0,79,79,92,1,geheim,images/br_geheim.png,images/cb_geheim.png,0,,,,,,,,,,,,,,,,,,,,,,
,,,,,,00058,2023-10-13_11h26.32.410,vbt_B1_day2,2022.2.4,Win32,59.46363799,,,,,,,,,,,,,,,,,,,,,,,,,,,down,0,2.0014,,0.279629686,-0.05,1,0,0,1.4821,0,80,80,6,1,diep,images/br_diep.png,images/cb_diep.png,0,,,,,,,,,,,,,,,,,,,,,,
,,,,,,00058,2023-10-13_11h26.32.410,vbt_B1_day2,2022.2.4,Win32,59.46363799,,,,,,,,,,,,,,,,,,,,,,,,,,,down,0,3.9657,,0.382407464,-0.086111111,1,0,0,1.1319,0,81,81,87,1,toeval,images/br_toeval.png,images/cb_toeval.png,0,,,,,,,,,,,,,,,,,,,,,,
,,,,,,00058,2023-10-13_11h26.32.410,vbt_B1_day2,2022.2.4,Win32,59.46363799,,,,,,,,,,,,,,,,,,,,,,,,,,,down,0,9.2107,,0.382407464,-0.086111111,1,0,0,1.8982,0,82,82,197,1,spanning,images/br_spanning.png,images/cb_spanning.png,0,,,,,,,,,,,,,,,,,,,,,,
,,,,,,00058,2023-10-13_11h26.32.410,vbt_B1_day2,2022.2.4,Win32,59.46363799,,,,,,,,,,,,,,,,,,,,,,,,,,,down,0,3.6133,,0.382407464,-0.086111111,1,0,0,1.4159,0,83,83,160,1,daarheen,images/br_daarheen.png,images/cb_daarheen.png,0,,,,,,,,,,,,,,,,,,,,,,
,,,,,,00058,2023-10-13_11h26.32.410,vbt_B1_day2,2022.2.4,Win32,59.46363799,,,,,,,,,,,,,,,,,,,,,,,,,,,down,0,7.4128,,0.382407464,-0.086111111,1,0,0,1.0157,0,84,84,148,1,smullen,images/br_smullen.png,images/cb_smullen.png,0,,,,,,,,,,,,,,,,,,,,,,
,,,,,,00058,2023-10-13_11h26.32.410,vbt_B1_day2,2022.2.4,Win32,59.46363799,,,,,,,,,,,,,,,,,,,,,,,,,,,down,0,0.7933,,0.396296353,-0.084259288,1,0,0,1.8316,0,85,85,39,1,laag,images/br_laag.png,images/cb_laag.png,0,,,,,,,,,,,,,,,,,,,,,,
,,,,,,00058,2023-10-13_11h26.32.410,vbt_B1_day2,2022.2.4,Win32,59.46363799,,,,,,,,,,,,,,,,,,,,,,,,,,,down,0,10.7754,,0.459259288,-0.082407422,1,0,0,1.8319,0,86,86,165,1,feestdag,images/br_feestdag.png,images/cb_feestdag.png,0,,,,,,,,,,,,,,,,,,,,,,
,,,,,,00058,2023-10-13_11h26.32.410,vbt_B1_day2,2022.2.4,Win32,59.46363799,,,,,,,,,,,,,,,,,,,,,,,,,,,down,0,6.374,,0.453703732,-0.082407422,1,0,0,1.1161,0,87,87,121,1,twijfel,images/br_twijfel.png,images/cb_twijfel.png,0,,,,,,,,,,,,,,,,,,,,,,
,,,,,,00058,2023-10-13_11h26.32.410,vbt_B1_day2,2022.2.4,Win32,59.46363799,,,,,,,,,,,,,,,,,,,,,,,,,,,down,0,6.1628,,0.453703732,-0.082407422,1,0,0,1.0987,0,88,88,32,1,palm,images/br_palm.png,images/cb_palm.png,0,,,,,,,,,,,,,,,,,,,,,,
,,,,,,00058,2023-10-13_11h26.32.410,vbt_B1_day2,2022.2.4,Win32,59.46363799,,,,,,,,,,,,,,,,,,,,,,,,,,,down,0,5.7627,,0.330555556,-0.019444444,1,0,0,1.8815,0,89,89,22,1,stof,images/br_stof.png,images/cb_stof.png,0,,,,,,,,,,,,,,,,,,,,,,
,,,,,,00058,2023-10-13_11h26.32.410,vbt_B1_day2,2022.2.4,Win32,59.46363799,,,,,,,,,,,,,,,,,,,,,,,,,,,down,0,5.3705,,0.330555556,-0.019444444,1,0,0,1.5488,0,90,90,108,1,excuus,images/br_excuus.png,images/cb_excuus.png,0,,,,,,,,,,,,,,,,,,,,,,
,,,,,,00058,2023-10-13_11h26.32.410,vbt_B1_day2,2022.2.4,Win32,59.46363799,,,,,,,,,,,,,,,,,,,,,,,,,,,down,0,4.3139,,0.330555556,-0.019444444,1,0,0,2.9972,0,91,91,120,1,klimmen,images/br_klimmen.png,images/cb_klimmen.png,0,,,,,,,,,,,,,,,,,,,,,,
,,,,,,00058,2023-10-13_11h26.32.410,vbt_B1_day2,2022.2.4,Win32,59.46363799,,,,,,,,,,,,,,,,,,,,,,,,,,,down,0,7.3016,,0.390740797,-0.205555556,1,0,0,1.682,0,92,92,182,1,bijkomen,images/br_bijkomen.png,images/cb_bijkomen.png,0,,,,,,,,,,,,,,,,,,,,,,
,,,,,,00058,2023-10-13_11h26.32.410,vbt_B1_day2,2022.2.4,Win32,59.46363799,,,,,,,,,,,,,,,,,,,,,,,,,,,down,0,7.5999,,0.386111111,-0.201851866,1,0,0,1.5317,0,93,93,154,1,aflopen,images/br_aflopen.png,images/cb_aflopen.png,0,,,,,,,,,,,,,,,,,,,,,,
,,,,,,00058,2023-10-13_11h26.32.410,vbt_B1_day2,2022.2.4,Win32,59.46363799,,,,,,,,,,,,,,,,,,,,,,,,,,,down,0,6.4117,,0.386111111,-0.201851866,1,0,0,1.2489,0,94,94,63,1,flirt,images/br_flirt.png,images/cb_flirt.png,0,,,,,,,,,,,,,,,,,,,,,,
,,,,,,00058,2023-10-13_11h26.32.410,vbt_B1_day2,2022.2.4,Win32,59.46363799,,,,,,,,,,,,,,,,,,,,,,,,,,,down,0,10.0265,,0.143518575,-0.217592621,1,0,0,1.6651,0,95,95,141,1,knielen,images/br_knielen.png,images/cb_knielen.png,0,,,,,,,,,,,,,,,,,,,,,,
,,,,,,00058,2023-10-13_11h26.32.410,vbt_B1_day2,2022.2.4,Win32,59.46363799,,,,,,,,,,,,,,,,,,,,,,,,,,,down,0,10.292,,0.276851908,-0.210185199,1,0,0,1.3157,0,96,96,195,1,middelen,images/br_middelen.png,images/cb_middelen.png,0,,,,,,,,,,,,,,,,,,,,,,
,,,,,,00058,2023-10-13_11h26.32.410,vbt_B1_day2,2022.2.4,Win32,59.46363799,,,,,,,,,,,,,,,,,,,,,,,,,,,down,0,3.4873,,0.18148151,-0.211111111,1,0,0,1.1656,0,97,97,88,1,boeien,images/br_boeien.png,images/cb_boeien.png,0,,,,,,,,,,,,,,,,,,,,,,
,,,,,,00058,2023-10-13_11h26.32.410,vbt_B1_day2,2022.2.4,Win32,59.46363799,,,,,,,,,,,,,,,,,,,,,,,,,,,down,0,4.8134,,0.155555556,-0.213888889,1,0,0,1.2323,0,98,98,14,1,rijp,images/br_rijp.png,images/cb_rijp.png,0,,,,,,,,,,,,,,,,,,,,,,
,,,,,,00058,2023-10-13_11h26.32.410,vbt_B1_day2,2022.2.4,Win32,59.46363799,,,,,,,,,,,,,,,,,,,,,,,,,,,down,0,9.6301,,0.155555556,-0.213888889,1,0,0,1.2654,0,99,99,145,1,invloed,images/br_invloed.png,images/cb_invloed.png,0,,,,,,,,,,,,,,,,,,,,,,
,,,,,,00058,2023-10-13_11h26.32.410,vbt_B1_day2,2022.2.4,Win32,59.46363799,,,,,,,,,,,,,,,,,,,,,,,,,,,down,0,4.2639,,0.155555556,-0.213888889,1,0,0,1.3988,0,100,100,23,1,zout,images/br_zout.png,images/cb_zout.png,0,,,,,,,,,,,,,,,,,,,,,,
,,,,,,00058,2023-10-13_11h26.32.410,vbt_B1_day2,2022.2.4,Win32,59.46363799,,,,,,,,,,,,,,,,,,,,,,,,,,,down,0,15.5948,,0.224074131,-0.210185199,1,0,0,1.6487,0,101,101,150,1,gegeven,images/br_gegeven.png,images/cb_gegeven.png,0,,,,,,,,,,,,,,,,,,,,,,
,,,,,,00058,2023-10-13_11h26.32.410,vbt_B1_day2,2022.2.4,Win32,59.46363799,,,,,,,,,,,,,,,,,,,,,,,,,,,down,0,13.7828,,0.284259288,-0.208333333,1,0,0,1.2158,0,102,102,176,1,techniek,images/br_techniek.png,images/cb_techniek.png,1,techniek,,,,,,,,,,,,,,,,,,,,,
,,,,,,00058,2023-10-13_11h26.32.410,vbt_B1_day2,2022.2.4,Win32,59.46363799,,,,,,,,,,,,,,,,,,,,,,,,,,,down,0,3.8648,,-0.081481425,-0.226851908,1,0,0,1.2656,0,103,103,69,1,waken,images/br_waken.png,images/cb_waken.png,0,,,,,,,,,,,,,,,,,,,,,,
,,,,,,00058,2023-10-13_11h26.32.410,vbt_B1_day2,2022.2.4,Win32,59.46363799,,,,,,,,,,,,,,,,,,,,,,,,,,,down,0,1.8386,,0.341666667,-0.137037065,1,0,0,1.3488,0,104,104,114,1,vullen,images/br_vullen.png,images/cb_vullen.png,0,,,,,,,,,,,,,,,,,,,,,,
,,,,,,00058,2023-10-13_11h26.32.410,vbt_B1_day2,2022.2.4,Win32,59.46363799,,,,,,,,,,,,,,,,,,,,,,,,,,,down,0,8.3276,,0.211111111,-0.212963019,1,0,0,1.1655,0,105,105,26,1,leuk,images/br_leuk.png,images/cb_leuk.png,0,,,,,,,,,,,,,,,,,,,,,,
,,,,,,00058,2023-10-13_11h26.32.410,vbt_B1_day2,2022.2.4,Win32,59.46363799,,,,,,,,,,,,,,,,,,,,,,,,,,,down,0,1.2571,,0.211111111,-0.212963019,1,0,0,0.966,0,106,106,2,1,jaar,images/br_jaar.png,images/cb_jaar.png,0,,,,,,,,,,,,,,,,,,,,,,
,,,,,,00058,2023-10-13_11h26.32.410,vbt_B1_day2,2022.2.4,Win32,59.46363799,,,,,,,,,,,,,,,,,,,,,,,,,,,down,0,1.9988,,0.250925954,-0.20648151,1,0,0,1.8985,0,107,107,186,1,voorraad,images/br_voorraad.png,images/cb_voorraad.png,0,,,,,,,,,,,,,,,,,,,,,,
,,,,,,00058,2023-10-13_11h26.32.410,vbt_B1_day2,2022.2.4,Win32,59.46363799,,,,,,,,,,,,,,,,,,,,,,,,,,,down,0,8.8781,,0.221296353,-0.205555556,1,0,0,1.0158,0,108,108,3,1,mand,images/br_mand.png,images/cb_mand.png,0,,,,,,,,,,,,,,,,,,,,,,
,,,,,,00058,2023-10-13_11h26.32.410,vbt_B1_day2,2022.2.4,Win32,59.46363799,,,,,,,,,,,,,,,,,,,,,,,,,,,down,0,67.2114,,0.317592621,-0.109259288,1,0,0,5.8785,0,109,109,97,1,loyaal,images/br_loyaal.png,images/cb_loyaal.png,1,lo.aal,,,,,,,,,,,,,,,,,,,,,
,,,,,,00058,2023-10-13_11h26.32.410,vbt_B1_day2,2022.2.4,Win32,59.46363799,,,,,,,,,,,,,,,,,,,,,,,,,,,down,0,3.3009,,0.343518575,-0.112037065,1,0,0,1.6151,0,110,110,15,1,soda,images/br_soda.png,images/cb_soda.png,0,,,,,,,,,,,,,,,,,,,,,,
,,,,,,00058,2023-10-13_11h26.32.410,vbt_B1_day2,2022.2.4,Win32,59.46363799,,,,,,,,,,,,,,,,,,,,,,,,,,,down,0,8.8175,,0.344444444,-0.113888889,1,0,0,1.1655,0,111,111,125,1,aanzien,images/br_aanzien.png,images/cb_aanzien.png,0,,,,,,,,,,,,,,,,,,,,,,
,,,,,,00058,2023-10-13_11h26.32.410,vbt_B1_day2,2022.2.4,Win32,59.46363799,,,,,,,,,,,,,,,,,,,,,,,,,,,down,0,2.7311,,0.344444444,-0.113888889,1,0,0,1.0657,0,112,112,49,1,laken,images/br_laken.png,images/cb_laken.png,0,,,,,,,,,,,,,,,,,,,,,,
,,,,,,00058,2023-10-13_11h26.32.410,vbt_B1_day2,2022.2.4,Win32,59.46363799,,,,,,,,,,,,,,,,,,,,,,,,,,,down,0,11.8412,,0.344444444,-0.113888889,1,0,0,1.9483,0,113,113,31,1,poes,images/br_poes.png,images/cb_poes.png,0,,,,,,,,,,,,,,,,,,,,,,
,,,,,,00058,2023-10-13_11h26.32.410,vbt_B1_day2,2022.2.4,Win32,59.46363799,,,,,,,,,,,,,,,,,,,,,,,,,,,down,0,9.4427,,0.344444444,-0.113888889,1,0,0,3.4636,0,114,114,116,1,besmet,images/br_besmet.png,images/cb_besmet.png,0,,,,,,,,,,,,,,,,,,,,,,
,,,,,,00058,2023-10-13_11h26.32.410,vbt_B1_day2,2022.2.4,Win32,59.46363799,,,,,,,,,,,,,,,,,,,,,,,,,,,down,0,8.0843,,0.345370399,-0.113888889,1,0,0,1.1321,0,115,115,83,1,mening,images/br_mening.png,images/cb_mening.png,0,,,,,,,,,,,,,,,,,,,,,,
,,,,,,00058,2023-10-13_11h26.32.410,vbt_B1_day2,2022.2.4,Win32,59.46363799,,,,,,,,,,,,,,,,,,,,,,,,,,,down,0,4.4574,,0.236111111,-0.099074088,1,0,0,1.3828,0,116,116,17,1,taal,images/br_taal.png,images/cb_taal.png,1,taal,,,,,,,,,,,,,,,,,,,,,
,,,,,,00058,2023-10-13_11h26.32.410,vbt_B1_day2,2022.2.4,Win32,59.46363799,,,,,,,,,,,,,,,,,,,,,,,,,,,down,0,17.8116,,0.340740797,-0.216666667,1,0,0,0.8826,0,117,117,179,1,woestijn,images/br_woestijn.png,images/cb_woestijn.png,1,woestijn,,,,,,,,,,,,,,,,,,,,,
,,,,,,00058,2023-10-13_11h26.32.410,vbt_B1_day2,2022.2.4,Win32,59.46363799,,,,,,,,,,,,,,,,,,,,,,,,,,,down,0,14.3839,,0.340740797,-0.216666667,1,0,0,1.0327,0,118,118,117,1,kennis,images/br_kennis.png,images/cb_kennis.png,0,,,,,,,,,,,,,,,,,,,,,,
,,,,,,00058,2023-10-13_11h26.32.410,vbt_B1_day2,2022.2.4,Win32,59.46363799,,,,,,,,,,,,,,,,,,,,,,,,,,,down,0,6.5061,,0.340740797,-0.216666667,1,0,0,0.9824,0,119,119,53,1,baron,images/br_baron.png,images/cb_baron.png,0,,,,,,,,,,,,,,,,,,,,,,
,,,,,,00058,2023-10-13_11h26.32.410,vbt_B1_day2,2022.2.4,Win32,59.46363799,,,,,,,,,,,,,,,,,,,,,,,,,,,down,0,8.0612,,0.340740797,-0.216666667,1,0,0,1.6486,0,120,120,20,1,site,images/br_site.png,images/cb_site.png,0,,,,,,,,,,,,,,,,,,,,,,
,,,,,,00058,2023-10-13_11h26.32.410,vbt_B1_day2,2022.2.4,Win32,59.46363799,,,,,,,,,,,,,,,,,,,,,,,,,,,down,0,4.2189,,0.340740797,-0.216666667,1,0,0,1.0661,0,121,121,72,1,strak,images/br_strak.png,images/cb_strak.png,0,,,,,,,,,,,,,,,,,,,,,,
,,,,,,00058,2023-10-13_11h26.32.410,vbt_B1_day2,2022.2.4,Win32,59.46363799,,,,,,,,,,,,,,,,,,,,,,,,,,,down,0,5.1803,,0.340740797,-0.216666667,1,0,0,1.0325,0,122,122,77,1,woede,images/br_woede.png,images/cb_woede.png,0,,,,,,,,,,,,,,,,,,,,,,
,,,,,,00058,2023-10-13_11h26.32.410,vbt_B1_day2,2022.2.4,Win32,59.46363799,,,,,,,,,,,,,,,,,,,,,,,,,,,down,0,22.998,,0.340740797,-0.216666667,1,0,0,6.2118,0,123,123,196,1,nakijken,images/br_nakijken.png,images/cb_nakijken.png,0,,,,,,,,,,,,,,,,,,,,,,
,,,,,,00058,2023-10-13_11h26.32.410,vbt_B1_day2,2022.2.4,Win32,59.46363799,,,,,,,,,,,,,,,,,,,,,,,,,,,down,0,4.6666,,0.340740797,-0.216666667,1,0,0,1.4982,0,124,124,64,1,wegen,images/br_wegen.png,images/cb_wegen.png,0,,,,,,,,,,,,,,,,,,,,,,
,,,,,,00058,2023-10-13_11h26.32.410,vbt_B1_day2,2022.2.4,Win32,59.46363799,,,,,,,,,,,,,,,,,,,,,,,,,,,down,0,3.204,,0.340740797,-0.216666667,1,0,0,0.9326,0,125,125,12,1,kust,images/br_kust.png,images/cb_kust.png,0,,,,,,,,,,,,,,,,,,,,,,
,,,,,,00058,2023-10-13_11h26.32.410,vbt_B1_day2,2022.2.4,Win32,59.46363799,,,,,,,,,,,,,,,,,,,,,,,,,,,down,0,5.8445,,0.340740797,-0.216666667,1,0,0,0.9992,0,126,126,199,1,beseffen,images/br_beseffen.png,images/cb_beseffen.png,0,,,,,,,,,,,,,,,,,,,,,,
,,,,,,00058,2023-10-13_11h26.32.410,vbt_B1_day2,2022.2.4,Win32,59.46363799,,,,,,,,,,,,,,,,,,,,,,,,,,,down,0,9.5836,,0.340740797,-0.216666667,1,0,0,1.2656,0,127,127,131,1,opzicht,images/br_opzicht.png,images/cb_opzicht.png,0,,,,,,,,,,,,,,,,,,,,,,
,,,,,,00058,2023-10-13_11h26.32.410,vbt_B1_day2,2022.2.4,Win32,59.46363799,,,,,,,,,,,,,,,,,,,,,,,,,,,down,0,2.5821,,0.338888889,-0.216666667,1,0,0,0.9991,0,128,128,9,1,hier,images/br_hier.png,images/cb_hier.png,0,,,,,,,,,,,,,,,,,,,,,,
,,,,,,00058,2023-10-13_11h26.32.410,vbt_B1_day2,2022.2.4,Win32,59.46363799,,,,,,,,,,,,,,,,,,,,,,,,,,,down,0,3.2974,,0.338888889,-0.216666667,1,0,0,1.0322,0,129,129,115,1,kleren,images/br_kleren.png,images/cb_kleren.png,0,,,,,,,,,,,,,,,,,,,,,,
,,,,,,00058,2023-10-13_11h26.32.410,vbt_B1_day2,2022.2.4,Win32,59.46363799,,,,,,,,,,,,,,,,,,,,,,,,,,,down,0,2.2172,,0.48148151,-0.02129631,1,0,0,0.9821,0,130,130,78,1,leren,images/br_leren.png,images/cb_leren.png,0,,,,,,,,,,,,,,,,,,,,,,
,,,,,,00058,2023-10-13_11h26.32.410,vbt_B1_day2,2022.2.4,Win32,59.46363799,,,,,,,,,,,,,,,,,,,,,,,,,,,down,0,4.4803,,0.48148151,-0.02129631,1,0,0,1.2655,0,131,131,37,1,mijn,images/br_mijn.png,images/cb_mijn.png,0,,,,,,,,,,,,,,,,,,,,,,
,,,,,,00058,2023-10-13_11h26.32.410,vbt_B1_day2,2022.2.4,Win32,59.46363799,,,,,,,,,,,,,,,,,,,,,,,,,,,down,0,5.7987,,0.374074131,0.027777778,1,0,0,1.2986,0,132,132,25,1,plek,images/br_plek.png,images/cb_plek.png,0,,,,,,,,,,,,,,,,,,,,,,
,,,,,,00058,2023-10-13_11h26.32.410,vbt_B1_day2,2022.2.4,Win32,59.46363799,,,,,,,,,,,,,,,,,,,,,,,,,,,down,0,8.7027,,0.378703732,-0.093518533,1,0,0,1.5493,0,133,133,167,1,eenhoorn,images/br_eenhoorn.png,images/cb_eenhoorn.png,0,,,,,,,,,,,,,,,,,,,,,,
,,,,,,00058,2023-10-13_11h26.32.410,vbt_B1_day2,2022.2.4,Win32,59.46363799,,,,,,,,,,,,,,,,,,,,,,,,,,,down,0,8.6967,,0.389814843,-0.094444444,1,0,0,1.2486,0,134,134,153,1,vervoer,images/br_vervoer.png,images/cb_vervoer.png,0,,,,,,,,,,,,,,,,,,,,,,
,,,,,,00058,2023-10-13_11h26.32.410,vbt_B1_day2,2022.2.4,Win32,59.46363799,,,,,,,,,,,,,,,,,,,,,,,,,,,down,0,3.9309,,0.389814843,-0.094444444,1,0,0,1.0655,0,135,135,109,1,totaal,images/br_totaal.png,images/cb_totaal.png,0,,,,,,,,,,,,,,,,,,,,,,
,,,,,,00058,2023-10-13_11h26.32.410,vbt_B1_day2,2022.2.4,Win32,59.46363799,,,,,,,,,,,,,,,,,,,,,,,,,,,down,0,17.4084,,0.389814843,-0.094444444,1,0,0,1.7154,0,136,136,163,1,schuilen,images/br_schuilen.png,images/cb_schuilen.png,0,,,,,,,,,,,,,,,,,,,,,,
,,,,,,00058,2023-10-13_11h26.32.410,vbt_B1_day2,2022.2.4,Win32,59.46363799,,,,,,,,,,,,,,,,,,,,,,,,,,,down,0,2.9809,,0.242592621,-0.149074088,1,0,0,1.1324,0,137,137,13,1,kaal,images/br_kaal.png,images/cb_kaal.png,0,,,,,,,,,,,,,,,,,,,,,,
,,,,,,00058,2023-10-13_11h26.32.410,vbt_B1_day2,2022.2.4,Win32,59.46363799,,,,,,,,,,,,,,,,,,,,,,,,,,,down,0,2.2199,,0.084259288,-0.152777778,1,0,0,1.0326,0,138,138,7,1,geld,images/br_geld.png,images/cb_geld.png,0,,,,,,,,,,,,,,,,,,,,,,
,,,,,,00058,2023-10-13_11h26.32.410,vbt_B1_day2,2022.2.4,Win32,59.46363799,,,,,,,,,,,,,,,,,,,,,,,,,,,down,0,7.4316,,0.083333333,-0.153703732,1,0,0,0.9326,0,139,139,62,1,knaap,images/br_knaap.png,images/cb_knaap.png,0,,,,,,,,,,,,,,,,,,,,,,
,,,,,,00058,2023-10-13_11h26.32.410,vbt_B1_day2,2022.2.4,Win32,59.46363799,,,,,,,,,,,,,,,,,,,,,,,,,,,down,0,15.5992,,0.100925954,-0.15,1,0,0,2.9142,0,140,140,76,1,afval,images/br_afval.png,images/cb_afval.png,0,,,,,,,,,,,,,,,,,,,,,,
,,,,,,00058,2023-10-13_11h26.32.410,vbt_B1_day2,2022.2.4,Win32,59.46363799,,,,,,,,,,,,,,,,,,,,,,,,,,,down,0,11.5746,,0.386111111,-0.155555556,1,0,0,1.832,0,141,141,183,1,getuigen,images/br_getuigen.png,images/cb_getuigen.png,0,,,,,,,,,,,,,,,,,,,,,,
,,,,,,00058,2023-10-13_11h26.32.410,vbt_B1_day2,2022.2.4,Win32,59.46363799,,,,,,,,,,,,,,,,,,,,,,,,,,,down,0,12.0781,,0.354629686,-0.260185242,1,0,0,1.7317,0,142,142,192,1,schaamte,images/br_schaamte.png,images/cb_schaamte.png,0,,,,,,,,,,,,,,,,,,,,,,
,,,,,,00058,2023-10-13_11h26.32.410,vbt_B1_day2,2022.2.4,Win32,59.46363799,,,,,,,,,,,,,,,,,,,,,,,,,,,down,0,1.4997,,0.354629686,-0.260185242,1,0,0,1.3319,0,143,143,42,1,bleek,images/br_bleek.png,images/cb_bleek.png,0,,,,,,,,,,,,,,,,,,,,,,
,,,,,,00058,2023-10-13_11h26.32.410,vbt_B1_day2,2022.2.4,Win32,59.46363799,,,,,,,,,,,,,,,,,,,,,,,,,,,down,0,2.3015,,0.348148176,-0.247222222,1,0,0,1.1486,0,144,144,61,1,groen,images/br_groen.png,images/cb_groen.png,0,,,,,,,,,,,,,,,,,,,,,,
,,,,,,00058,2023-10-13_11h26.32.410,vbt_B1_day2,2022.2.4,Win32,59.46363799,,,,,,,,,,,,,,,,,,,,,,,,,,,down,0,15.3647,,0.441666667,-0.267592621,1,0,0,0.9492,0,145,145,136,1,waarbij,images/br_waarbij.png,images/cb_waarbij.png,1,waarbij,,,,,,,,,,,,,,,,,,,,,
,,,,,,00058,2023-10-13_11h26.32.410,vbt_B1_day2,2022.2.4,Win32,59.46363799,,,,,,,,,,,,,,,,,,,,,,,,,,,down,0,6.3045,,0.441666667,-0.267592621,1,0,0,1.2652,0,146,146,86,1,woning,images/br_woning.png,images/cb_woning.png,0,,,,,,,,,,,,,,,,,,,,,,
,,,,,,00058,2023-10-13_11h26.32.410,vbt_B1_day2,2022.2.4,Win32,59.46363799,,,,,,,,,,,,,,,,,,,,,,,,,,,down,0,8.2663,,0.344444444,-0.261111111,1,0,0,1.2319,0,147,147,142,1,snuiven,images/br_snuiven.png,images/cb_snuiven.png,0,,,,,,,,,,,,,,,,,,,,,,
,,,,,,00058,2023-10-13_11h26.32.410,vbt_B1_day2,2022.2.4,Win32,59.46363799,,,,,,,,,,,,,,,,,,,,,,,,,,,down,0,6.5727,,0.344444444,-0.261111111,1,0,0,1.2158,0,148,148,29,1,baas,images/br_baas.png,images/cb_baas.png,0,,,,,,,,,,,,,,,,,,,,,,
,,,,,,00058,2023-10-13_11h26.32.410,vbt_B1_day2,2022.2.4,Win32,59.46363799,,,,,,,,,,,,,,,,,,,,,,,,,,,down,0,11.6749,,0.194444444,0.030555556,1,0,0,1.3654,0,149,149,85,1,heilig,images/br_heilig.png,images/cb_heilig.png,0,,,,,,,,,,,,,,,,,,,,,,
,,,,,,00058,2023-10-13_11h26.32.410,vbt_B1_day2,2022.2.4,Win32,59.46363799,,,,,,,,,,,,,,,,,,,,,,,,,,,down,0,12.5903,,0.509259288,-0.184259288,1,0,0,1.2829,0,150,150,152,1,afnemen,images/br_afnemen.png,images/cb_afnemen.png,0,,,,,,,,,,,,,,,,,,,,,,
,,,,,,00058,2023-10-13_11h26.32.410,vbt_B1_day2,2022.2.4,Win32,59.46363799,,,,,,,,,,,,,,,,,,,,,,,,,,,down,0,7.9606,,0.396296353,-0.201851866,1,0,0,1.4991,0,151,151,139,1,stiekem,images/br_stiekem.png,images/cb_stiekem.png,1,stiekem,,,,,,,,,,,,,,,,,,,,,
,,,,,,00058,2023-10-13_11h26.32.410,vbt_B1_day2,2022.2.4,Win32,59.46363799,,,,,,,,,,,,,,,,,,,,,,,,,,,down,0,10.1591,,0.392592621,-0.186111111,1,0,0,1.1322,0,152,152,137,1,trekker,images/br_trekker.png,images/cb_trekker.png,1,trekker,,,,,,,,,,,,,,,,,,,,,
,,,,,,00058,2023-10-13_11h26.32.410,vbt_B1_day2,2022.2.4,Win32,59.46363799,,,,,,,,,,,,,,,,,,,,,,,,,,,down,0,4.9354,,0.284259288,-0.198148176,1,0,0,2.6809,0,153,153,5,1,blad,images/br_blad.png,images/cb_blad.png,0,,,,,,,,,,,,,,,,,,,,,,
,,,,,,00058,2023-10-13_11h26.32.410,vbt_B1_day2,2022.2.4,Win32,59.46363799,,,,,,,,,,,,,,,,,,,,,,,,,,,down,0,22.1319,,0.284259288,-0.198148176,1,0,0,2.115,0,154,154,60,1,jasje,images/br_jasje.png,images/cb_jasje.png,0,,,,,,,,,,,,,,,,,,,,,,
,,,,,,00058,2023-10-13_11h26.32.410,vbt_B1_day2,2022.2.4,Win32,59.46363799,,,,,,,,,,,,,,,,,,,,,,,,,,,down,0,5.0283,,0.264814843,-0.197222222,1,0,0,1.116,0,155,155,21,1,mist,images/br_mist.png,images/cb_mist.png,0,,,,,,,,,,,,,,,,,,,,,,
,,,,,,00058,2023-10-13_11h26.32.410,vbt_B1_day2,2022.2.4,Win32,59.46363799,,,,,,,,,,,,,,,,,,,,,,,,,,,down,0,8.7609,,0.293518575,-0.296296353,1,0,0,0.866,0,156,156,178,1,huisdier,images/br_huisdier.png,images/cb_huisdier.png,1,huisdier,,,,,,,,,,,,,,,,,,,,,
,,,,,,00058,2023-10-13_11h26.32.410,vbt_B1_day2,2022.2.4,Win32,59.46363799,,,,,,,,,,,,,,,,,,,,,,,,,,,down,0,3.6245,,0.161111111,-0.279629686,1,0,0,1.1654,0,157,157,112,1,lukken,images/br_lukken.png,images/cb_lukken.png,0,,,,,,,,,,,,,,,,,,,,,,
,,,,,,00058,2023-10-13_11h26.32.410,vbt_B1_day2,2022.2.4,Win32,59.46363799,,,,,,,,,,,,,,,,,,,,,,,,,,,down,0,3.9966,,0.342592621,-0.153703732,1,0,0,1.5986,0,158,158,66,1,lever,images/br_lever.png,images/cb_lever.png,0,,,,,,,,,,,,,,,,,,,,,,
,,,,,,00058,2023-10-13_11h26.32.410,vbt_B1_day2,2022.2.4,Win32,59.46363799,,,,,,,,,,,,,,,,,,,,,,,,,,,down,0,6.0971,,0.343518575,-0.153703732,1,0,0,1.0821,0,159,159,171,1,aarzelen,images/br_aarzelen.png,images/cb_aarzelen.png,0,,,,,,,,,,,,,,,,,,,,,,
,,,,,,00058,2023-10-13_11h26.32.410,vbt_B1_day2,2022.2.4,Win32,59.46363799,,,,,,,,,,,,,,,,,,,,,,,,,,,down,0,0.9744,,0.343518575,-0.153703732,1,0,0,0.9325,0,160,160,8,1,knie,images/br_knie.png,images/cb_knie.png,0,,,,,,,,,,,,,,,,,,,,,,
,,,,,,00058,2023-10-13_11h26.32.410,vbt_B1_day2,2022.2.4,Win32,59.46363799,,,,,,,,,,,,,,,,,,,,,,,,,,,down,0,4.4148,,0.345370399,-0.162962977,1,0,0,0.7994,0,161,161,98,1,kreeft,images/br_kreeft.png,images/cb_kreeft.png,1,kreeft,,,,,,,,,,,,,,,,,,,,,
,,,,,,00058,2023-10-13_11h26.32.410,vbt_B1_day2,2022.2.4,Win32,59.46363799,,,,,,,,,,,,,,,,,,,,,,,,,,,down,0,4.6334,,0.357407464,-0.164814843,1,0,0,0.983,0,162,162,59,1,kring,images/br_kring.png,images/cb_kring.png,1,kring,,,,,,,,,,,,,,,,,,,,,
,,,,,,00058,2023-10-13_11h26.32.410,vbt_B1_day2,2022.2.4,Win32,59.46363799,,,,,,,,,,,,,,,,,,,,,,,,,,,down,0,12.5438,,0.427777778,-0.168518533,1,0,0,1.2656,0,163,163,158,1,innemen,images/br_innemen.png,images/cb_innemen.png,0,,,,,,,,,,,,,,,,,,,,,,
,,,,,,00058,2023-10-13_11h26.32.410,vbt_B1_day2,2022.2.4,Win32,59.46363799,,,,,,,,,,,,,,,,,,,,,,,,,,,down,0,7.0444,,0.427777778,-0.168518533,1,0,0,1.0826,0,164,164,104,1,zweven,images/br_zweven.png,images/cb_zweven.png,0,,,,,,,,,,,,,,,,,,,,,,
,,,,,,00058,2023-10-13_11h26.32.410,vbt_B1_day2,2022.2.4,Win32,59.46363799,,,,,,,,,,,,,,,,,,,,,,,,,,,down,0,3.6144,,0.416666667,-0.168518533,1,0,0,0.9659,0,165,165,57,1,steek,images/br_steek.png,images/cb_steek.png,1,steek,,,,,,,,,,,,,,,,,,,,,
,,,,,,00058,2023-10-13_11h26.32.410,vbt_B1_day2,2022.2.4,Win32,59.46363799,,,,,,,,,,,,,,,,,,,,,,,,,,,down,0,7.7188,,0.416666667,-0.168518533,1,0,0,0.982,0,166,166,46,1,jagen,images/br_jagen.png,images/cb_jagen.png,0,,,,,,,,,,,,,,,,,,,,,,
,,,,,,00058,2023-10-13_11h26.32.410,vbt_B1_day2,2022.2.4,Win32,59.46363799,,,,,,,,,,,,,,,,,,,,,,,,,,,down,0,7.7804,,0.416666667,-0.168518533,1,0,0,1.1325,0,167,167,100,1,geduld,images/br_geduld.png,images/cb_geduld.png,0,,,,,,,,,,,,,,,,,,,,,,
,,,,,,00058,2023-10-13_11h26.32.410,vbt_B1_day2,2022.2.4,Win32,59.46363799,,,,,,,,,,,,,,,,,,,,,,,,,,,down,0,3.3702,,0.427777778,-0.169444444,1,0,0,4.3796,0,168,168,134,1,geliefd,images/br_geliefd.png,images/cb_geliefd.png,0,,,,,,,,,,,,,,,,,,,,,,
,,,,,,00058,2023-10-13_11h26.32.410,vbt_B1_day2,2022.2.4,Win32,59.46363799,,,,,,,,,,,,,,,,,,,,,,,,,,,down,0,7.6108,,0.426851908,-0.169444444,1,0,0,1.3486,0,169,169,106,1,zingen,images/br_zingen.png,images/cb_zingen.png,0,,,,,,,,,,,,,,,,,,,,,,
,,,,,,00058,2023-10-13_11h26.32.410,vbt_B1_day2,2022.2.4,Win32,59.46363799,,,,,,,,,,,,,,,,,,,,,,,,,,,down,0,2.3479,,0.426851908,-0.169444444,1,0,0,1.2485,0,170,170,70,1,ijdel,images/br_ijdel.png,images/cb_ijdel.png,0,,,,,,,,,,,,,,,,,,,,,,
,,,,,,00058,2023-10-13_11h26.32.410,vbt_B1_day2,2022.2.4,Win32,59.46363799,,,,,,,,,,,,,,,,,,,,,,,,,,,down,0,6.961,,0.426851908,-0.169444444,1,0,0,1.0156,0,171,171,4,1,moes,images/br_moes.png,images/cb_moes.png,0,,,,,,,,,,,,,,,,,,,,,,
,,,,,,00058,2023-10-13_11h26.32.410,vbt_B1_day2,2022.2.4,Win32,59.46363799,,,,,,,,,,,,,,,,,,,,,,,,,,,down,0,2.5828,,0.426851908,-0.169444444,1,0,0,1.432,0,172,172,113,1,koppen,images/br_koppen.png,images/cb_koppen.png,0,,,,,,,,,,,,,,,,,,,,,,
,,,,,,00058,2023-10-13_11h26.32.410,vbt_B1_day2,2022.2.4,Win32,59.46363799,,,,,,,,,,,,,,,,,,,,,,,,,,,down,0,4.564,,0.426851908,-0.169444444,1,0,0,1.1814,0,173,173,107,1,maling,images/br_maling.png,images/cb_maling.png,0,,,,,,,,,,,,,,,,,,,,,,
,,,,,,00058,2023-10-13_11h26.32.410,vbt_B1_day2,2022.2.4,Win32,59.46363799,,,,,,,,,,,,,,,,,,,,,,,,,,,down,0,1.5314,,0.426851908,-0.169444444,1,0,0,0.7495,0,174,174,33,1,vlek,images/br_vlek.png,images/cb_vlek.png,0,,,,,,,,,,,,,,,,,,,,,,
,,,,,,00058,2023-10-13_11h26.32.410,vbt_B1_day2,2022.2.4,Win32,59.46363799,,,,,,,,,,,,,,,,,,,,,,,,,,,down,0,5.3817,,0.426851908,-0.169444444,1,0,0,0.6823,0,175,175,124,1,bloeien,images/br_bloeien.png,images/cb_bloeien.png,0,,,,,,,,,,,,,,,,,,,,,,
,,,,,,00058,2023-10-13_11h26.32.410,vbt_B1_day2,2022.2.4,Win32,59.46363799,,,,,,,,,,,,,,,,,,,,,,,,,,,down,0,1.5738,,0.426851908,-0.169444444,1,0,0,0.5825,0,176,176,34,1,vorm,images/br_vorm.png,images/cb_vorm.png,0,,,,,,,,,,,,,,,,,,,,,,
,,,,,,00058,2023-10-13_11h26.32.410,vbt_B1_day2,2022.2.4,Win32,59.46363799,,,,,,,,,,,,,,,,,,,,,,,,,,,down,0,3.4474,,0.426851908,-0.169444444,1,0,0,0.6994,0,177,177,79,1,nodig,images/br_nodig.png,images/cb_nodig.png,0,,,,,,,,,,,,,,,,,,,,,,
,,,,,,00058,2023-10-13_11h26.32.410,vbt_B1_day2,2022.2.4,Win32,59.46363799,,,,,,,,,,,,,,,,,,,,,,,,,,,down,0,7.0358,,0.426851908,-0.169444444,1,0,0,0.7656,0,178,178,161,1,attentie,images/br_attentie.png,images/cb_attentie.png,0,,,,,,,,,,,,,,,,,,,,,,
,,,,,,00058,2023-10-13_11h26.32.410,vbt_B1_day2,2022.2.4,Win32,59.46363799,,,,,,,,,,,,,,,,,,,,,,,,,,,down,0,12.0568,,0.426851908,-0.169444444,1,0,0,0.8158,0,179,179,193,1,weeshuis,images/br_weeshuis.png,images/cb_weeshuis.png,0,,,,,,,,,,,,,,,,,,,,,,
,,,,,,00058,2023-10-13_11h26.32.410,vbt_B1_day2,2022.2.4,Win32,59.46363799,,,,,,,,,,,,,,,,,,,,,,,,,,,down,0,6.0514,,0.426851908,-0.169444444,1,0,0,2.9143,0,180,180,56,1,traag,images/br_traag.png,images/cb_traag.png,1,traag,,,,,,,,,,,,,,,,,,,,,
,,,,,,00058,2023-10-13_11h26.32.410,vbt_B1_day2,2022.2.4,Win32,59.46363799,,,,,,,,,,,,,,,,,,,,,,,,,,,down,0,4.6854,,0.426851908,-0.169444444,1,0,0,2.9143,0,181,181,89,1,slapen,images/br_slapen.png,images/cb_slapen.png,0,,,,,,,,,,,,,,,,,,,,,,
,,,,,,00058,2023-10-13_11h26.32.410,vbt_B1_day2,2022.2.4,Win32,59.46363799,,,,,,,,,,,,,,,,,,,,,,,,,,,down,0,6.4287,,0.426851908,-0.169444444,1,0,0,0.8659,0,182,182,123,1,hiervan,images/br_hiervan.png,images/cb_hiervan.png,0,,,,,,,,,,,,,,,,,,,,,,
,,,,,,00058,2023-10-13_11h26.32.410,vbt_B1_day2,2022.2.4,Win32,59.46363799,,,,,,,,,,,,,,,,,,,,,,,,,,,down,0,5.3342,,0.426851908,-0.169444444,1,0,0,0.8995,0,183,183,156,1,rechten,images/br_rechten.png,images/cb_rechten.png,0,,,,,,,,,,,,,,,,,,,,,,
,,,,,,00058,2023-10-13_11h26.32.410,vbt_B1_day2,2022.2.4,Win32,59.46363799,,,,,,,,,,,,,,,,,,,,,,,,,,,down,0,5.1904,,0.426851908,-0.169444444,1,0,0,0.8489,0,184,184,55,1,praat,images/br_praat.png,images/cb_praat.png,0,,,,,,,,,,,,,,,,,,,,,,
,,,,,,00058,2023-10-13_11h26.32.410,vbt_B1_day2,2022.2.4,Win32,59.46363799,,,,,,,,,,,,,,,,,,,,,,,,,,,down,0,18.0943,,0.426851908,-0.169444444,1,0,0,1.4321,0,185,185,147,1,komisch,images/br_komisch.png,images/cb_komisch.png,0,,,,,,,,,,,,,,,,,,,,,,
,,,,,,00058,2023-10-13_11h26.32.410,vbt_B1_day2,2022.2.4,Win32,59.46363799,,,,,,,,,,,,,,,,,,,,,,,,,,,down,0,6.2119,,0.429629686,-0.170370399,1,0,0,0.7824,0,186,186,99,1,koffie,images/br_koffie.png,images/cb_koffie.png,1,koffie,,,,,,,,,,,,,,,,,,,,,
,,,,,,00058,2023-10-13_11h26.32.410,vbt_B1_day2,2022.2.4,Win32,59.46363799,,,,,,,,,,,,,,,,,,,,,,,,,,,down,0,15.1543,,0.429629686,-0.170370399,1,0,0,1.5153,0,187,187,52,1,wagon,images/br_wagon.png,images/cb_wagon.png,0,,,,,,,,,,,,,,,,,,,,,,
,,,,,,00058,2023-10-13_11h26.32.410,vbt_B1_day2,2022.2.4,Win32,59.46363799,,,,,,,,,,,,,,,,,,,,,,,,,,,down,0,7.9324,,0.429629686,-0.170370399,1,0,0,2.0816,0,188,188,75,1,snoep,images/br_snoep.png,images/cb_snoep.png,0,,,,,,,,,,,,,,,,,,,,,,
,,,,,,00058,2023-10-13_11h26.32.410,vbt_B1_day2,2022.2.4,Win32,59.46363799,,,,,,,,,,,,,,,,,,,,,,,,,,,down,0,10.7093,,0.429629686,-0.170370399,1,0,0,1.8821,0,189,189,67,1,zwart,images/br_zwart.png,images/cb_zwart.png,0,,,,,,,,,,,,,,,,,,,,,,
,,,,,,00058,2023-10-13_11h26.32.410,vbt_B1_day2,2022.2.4,Win32,59.46363799,,,,,,,,,,,,,,,,,,,,,,,,,,,down,0,9.6297,,0.429629686,-0.170370399,1,0,0,1.3489,0,190,190,168,1,bisschop,images/br_bisschop.png,images/cb_bisschop.png,0,,,,,,,,,,,,,,,,,,,,,,
,,,,,,00058,2023-10-13_11h26.32.410,vbt_B1_day2,2022.2.4,Win32,59.46363799,,,,,,,,,,,,,,,,,,,,,,,,,,,down,0,5.163,,0.429629686,-0.170370399,1,0,0,1.1658,0,191,191,135,1,gedicht,images/br_gedicht.png,images/cb_gedicht.png,0,,,,,,,,,,,,,,,,,,,,,,
,,,,,,00058,2023-10-13_11h26.32.410,vbt_B1_day2,2022.2.4,Win32,59.46363799,,,,,,,,,,,,,,,,,,,,,,,,,,,down,0,12.2236,,0.429629686,-0.170370399,1,0,0,5.9621,0,192,192,111,1,ticket,images/br_ticket.png,images/cb_ticket.png,0,,,,,,,,,,,,,,,,,,,,,,
,,,,,,00058,2023-10-13_11h26.32.410,vbt_B1_day2,2022.2.4,Win32,59.46363799,,,,,,,,,,,,,,,,,,,,,,,,,,,down,0,6.7458,,0.429629686,-0.170370399,1,0,0,0.599,0,193,193,126,1,kasteel,images/br_kasteel.png,images/cb_kasteel.png,0,,,,,,,,,,,,,,,,,,,,,,
,,,,,,00058,2023-10-13_11h26.32.410,vbt_B1_day2,2022.2.4,Win32,59.46363799,,,,,,,,,,,,,,,,,,,,,,,,,,,down,0,3.7306,,0.429629686,-0.170370399,1,0,0,0.6826,0,194,194,166,1,strikken,images/br_strikken.png,images/cb_strikken.png,0,,,,,,,,,,,,,,,,,,,,,,
,,,,,,00058,2023-10-13_11h26.32.410,vbt_B1_day2,2022.2.4,Win32,59.46363799,,,,,,,,,,,,,,,,,,,,,,,,,,,down,0,4.5301,,0.428703732,-0.169444444,1,0,0,1.3487,0,195,195,198,1,bedoelen,images/br_bedoelen.png,images/cb_bedoelen.png,0,,,,,,,,,,,,,,,,,,,,,,
,,,,,,00058,2023-10-13_11h26.32.410,vbt_B1_day2,2022.2.4,Win32,59.46363799,,,,,,,,,,,,,,,,,,,,,,,,,,,down,0,12.8838,,0.428703732,-0.169444444,1,0,0,2.3318,0,196,196,162,1,uitdelen,images/br_uitdelen.png,images/cb_uitdelen.png,0,,,,,,,,,,,,,,,,,,,,,,
,,,,,,00058,2023-10-13_11h26.32.410,vbt_B1_day2,2022.2.4,Win32,59.46363799,,,,,,,,,,,,,,,,,,,,,,,,,,,down,0,3.509,,0.428703732,-0.169444444,1,0,0,0.716,0,197,197,146,1,opkomen,images/br_opkomen.png,images/cb_opkomen.png,0,,,,,,,,,,,,,,,,,,,,,,
,,,,,,00058,2023-10-13_11h26.32.410,vbt_B1_day2,2022.2.4,Win32,59.46363799,,,,,,,,,,,,,,,,,,,,,,,,,,,down,0,9.0825,,0.428703732,-0.169444444,1,0,0,1.1822,0,198,198,127,1,doodmoe,images/br_doodmoe.png,images/cb_doodmoe.png,0,,,,,,,,,,,,,,,,,,,,,,
,,,,,,00058,2023-10-13_11h26.32.410,vbt_B1_day2,2022.2.4,Win32,59.46363799,,,,,,,,,,,,,,,,,,,,,,,,,,,down,0,3.9134,,0.428703732,-0.169444444,1,0,0,0.6826,0,199,199,169,1,oprotten,images/br_oprotten.png,images/cb_oprotten.png,0,,,,,,,,,,,,,,,,,,,,,,
,,,,,,00058,2023-10-13_11h26.32.410,vbt_B1_day2,2022.2.4,Win32,59.46363799,,,,,,,,,,,,,,,,,,,,,,,,,,,,,,,,,,,,,,,,,,,,,,,0.301250713,-0.182436123,1,0,0,,,,,,,,,,,,,,,,
,,,,,,00058,2023-10-13_11h26.32.410,vbt_B1_day2,2022.2.4,Win32,59.46363799,,,,,,,,,,,,,,,,,,,,,,,,,,,,,,,,,,,,,,,,,,,,,,,,,,,,0.127243067,-0.069331158,1,0,0,,,,,,,,,,,
,,,,,,00058,2023-10-13_11h26.32.410,vbt_B1_day2,2022.2.4,Win32,59.46363799,,,,,,,,,,,,,,,,,,,,,,,,,,,,,,,,,,,,,,,,,,koorts,images/br_koorts.png,images/cb_koorts.png,,.....,,,,,,,,,,,0.427406199,-0.169385552,1,0,0,.....,0,0,0,50,1
,,,,,,00058,2023-10-13_11h26.32.410,vbt_B1_day2,2022.2.4,Win32,59.46363799,,,,,,,,,,,,,,,,,,,,,,,,,,,,,,,,,,,,,,,,,,krimmen,images/br_krimmen.png,images/cb_krimmen.png,,krimmen,,,,,,,,,,,0.427406199,-0.169385552,1,0,0,krimmen,0,1,1,35,1
,,,,,,00058,2023-10-13_11h26.32.410,vbt_B1_day2,2022.2.4,Win32,59.46363799,,,,,,,,,,,,,,,,,,,,,,,,,,,,,,,,,,,,,,,,,,zwager,images/br_zwager.png,images/cb_zwager.png,,zwager,,,,,,,,,,,0.427406199,-0.169385552,1,0,0,zwager,0,2,2,49,1
,,,,,,00058,2023-10-13_11h26.32.410,vbt_B1_day2,2022.2.4,Win32,59.46363799,,,,,,,,,,,,,,,,,,,,,,,,,,,,,,,,,,,,,,,,,,manieren,images/br_manieren.png,images/cb_manieren.png,,manieren,,,,,,,,,,,0.427406199,-0.169385552,1,0,0,manieren,0,3,3,56,1
,,,,,,00058,2023-10-13_11h26.32.410,vbt_B1_day2,2022.2.4,Win32,59.46363799,,,,,,,,,,,,,,,,,,,,,,,,,,,,,,,,,,,,,,,,,,flits,images/br_flits.png,images/cb_flits.png,,flits,,,,,,,,,,,0.396954933,-0.244426385,1,0,0,flits,0,4,4,4,1
,,,,,,00058,2023-10-13_11h26.32.410,vbt_B1_day2,2022.2.4,Win32,59.46363799,,,,,,,,,,,,,,,,,,,,,,,,,,,,,,,,,,,,,,,,,,goon,images/br_goon.png,images/cb_goon.png,,goon,,,,,,,,,,,0.395867352,-0.245513866,1,0,0,goon,0,5,5,23,1
,,,,,,00058,2023-10-13_11h26.32.410,vbt_B1_day2,2022.2.4,Win32,59.46363799,,,,,,,,,,,,,,,,,,,,,,,,,,,,,,,,,,,,,,,,,,prekken,images/br_prekken.png,images/cb_prekken.png,,prekken,,,,,,,,,,,0.395867352,-0.245513866,1,0,0,prekken,0,6,6,34,1
,,,,,,00058,2023-10-13_11h26.32.410,vbt_B1_day2,2022.2.4,Win32,59.46363799,,,,,,,,,,,,,,,,,,,,,,,,,,,,,,,,,,,,,,,,,,blad,images/br_blad.png,images/cb_blad.png,,blad,,,,,,,,,,,0.395867352,-0.245513866,1,0,0,blad,0,7,7,1,1
,,,,,,00058,2023-10-13_11h26.32.410,vbt_B1_day2,2022.2.4,Win32,59.46363799,,,,,,,,,,,,,,,,,,,,,,,,,,,,,,,,,,,,,,,,,,inzicht,images/br_inzicht.png,images/cb_inzicht.png,,i.....,,,,,,,,,,,0.395867352,-0.245513866,1,0,0,i.....,0,8,8,53,1
,,,,,,00058,2023-10-13_11h26.32.410,vbt_B1_day2,2022.2.4,Win32,59.46363799,,,,,,,,,,,,,,,,,,,,,,,,,,,,,,,,,,,,,,,,,,badon,images/br_badon.png,images/cb_badon.png,,ba.on,,,,,,,,,,,0.424143556,-0.173735726,1,0,0,ba.on,0,9,9,26,1
,,,,,,00058,2023-10-13_11h26.32.410,vbt_B1_day2,2022.2.4,Win32,59.46363799,,,,,,,,,,,,,,,,,,,,,,,,,,,,,,,,,,,,,,,,,,trots,images/br_trots.png,images/cb_trots.png,,trots,,,,,,,,,,,0.438281708,-0.232463295,1,0,0,trots,0,10,10,44,1
,,,,,,00058,2023-10-13_11h26.32.410,vbt_B1_day2,2022.2.4,Win32,59.46363799,,,,,,,,,,,,,,,,,,,,,,,,,,,,,,,,,,,,,,,,,,systeem,images/br_systeem.png,images/cb_systeem.png,,systeem,,,,,,,,,,,0.438281708,-0.232463295,1,0,0,systeem,0,11,11,54,1
,,,,,,00058,2023-10-13_11h26.32.410,vbt_B1_day2,2022.2.4,Win32,59.46363799,,,,,,,,,,,,,,,,,,,,,,,,,,,,,,,,,,,,,,,,,,wijve,images/br_wijve.png,images/cb_wijve.png,,wijve,,,,,,,,,,,0.438281708,-0.232463295,1,0,0,wijve,0,12,12,27,1
,,,,,,00058,2023-10-13_11h26.32.410,vbt_B1_day2,2022.2.4,Win32,59.46363799,,,,,,,,,,,,,,,,,,,,,,,,,,,,,,,,,,,,,,,,,,welzijn,images/br_welzijn.png,images/cb_welzijn.png,,wil.e..,,,,,,,,,,,0.438281708,-0.232463295,1,0,0,wil.e..,0,13,13,52,1
,,,,,,00058,2023-10-13_11h26.32.410,vbt_B1_day2,2022.2.4,Win32,59.46363799,,,,,,,,,,,,,,,,,,,,,,,,,,,,,,,,,,,,,,,,,,kabel,images/br_kabel.png,images/cb_kabel.png,,kabel,,,,,,,,,,,0.384991843,-0.16721044,1,0,0,kabel,0,14,14,7,1
,,,,,,00058,2023-10-13_11h26.32.410,vbt_B1_day2,2022.2.4,Win32,59.46363799,,,,,,,,,,,,,,,,,,,,,,,,,,,,,,,,,,,,,,,,,,ningen,images/br_ningen.png,images/cb_ningen.png,,ningen,,,,,,,,,,,0.384991843,-0.16721044,1,0,0,ningen,0,15,15,28,1
,,,,,,00058,2023-10-13_11h26.32.410,vbt_B1_day2,2022.2.4,Win32,59.46363799,,,,,,,,,,,,,,,,,,,,,,,,,,,,,,,,,,,,,,,,,,aanzien,images/br_aanzien.png,images/cb_aanzien.png,,aanzien,,,,,,,,,,,0.377379077,-0.227025591,1,0,0,aanzien,0,16,16,13,1
,,,,,,00058,2023-10-13_11h26.32.410,vbt_B1_day2,2022.2.4,Win32,59.46363799,,,,,,,,,,,,,,,,,,,,,,,,,,,,,,,,,,,,,,,,,,tweeling,images/br_tweeling.png,images/cb_tweeling.png,,sweeling,,,,,,,,,,,0.342577488,-0.158510093,1,0,0,sweeling,0,17,17,58,1
,,,,,,00058,2023-10-13_11h26.32.410,vbt_B1_day2,2022.2.4,Win32,59.46363799,,,,,,,,,,,,,,,,,,,,,,,,,,,,,,,,,,,,,,,,,,zegel,images/br_zegel.png,images/cb_zegel.png,,zegen,,,,,,,,,,,0.343665069,-0.149809696,1,0,0,zegen,0,18,18,46,1
,,,,,,00058,2023-10-13_11h26.32.410,vbt_B1_day2,2022.2.4,Win32,59.46363799,,,,,,,,,,,,,,,,,,,,,,,,,,,,,,,,,,,,,,,,,,jong,images/br_jong.png,images/cb_jong.png,,jong,,,,,,,,,,,0.366503568,-0.229200653,1,0,0,jong,0,19,19,43,1
,,,,,,00058,2023-10-13_11h26.32.410,vbt_B1_day2,2022.2.4,Win32,59.46363799,,,,,,,,,,,,,,,,,,,,,,,,,,,,,,,,,,,,,,,,,,feestdag,images/br_feestdag.png,images/cb_feestdag.png,,feestdag,,,,,,,,,,,0.336052202,-0.21397502,1,0,0,feestdag,0,20,20,17,1
,,,,,,00058,2023-10-13_11h26.32.410,vbt_B1_day2,2022.2.4,Win32,59.46363799,,,,,,,,,,,,,,,,,,,,,,,,,,,,,,,,,,,,,,,,,,negel,images/br_negel.png,images/cb_negel.png,,negel,,,,,,,,,,,0.445894574,-0.209624796,1,0,0,negel,0,21,21,24,1
,,,,,,00058,2023-10-13_11h26.32.410,vbt_B1_day2,2022.2.4,Win32,59.46363799,,,,,,,,,,,,,,,,,,,,,,,,,,,,,,,,,,,,,,,,,,doodmoe,images/br_doodmoe.png,images/cb_doodmoe.png,,doodmo.,,,,,,,,,,,0.42849378,-0.268352365,1,0,0,doodmo.,0,22,22,15,1
,,,,,,00058,2023-10-13_11h26.32.410,vbt_B1_day2,2022.2.4,Win32,59.46363799,,,,,,,,,,,,,,,,,,,,,,,,,,,,,,,,,,,,,,,,,,jagen,images/br_jagen.png,images/cb_jagen.png,,jagen,,,,,,,,,,,0.362153344,-0.221587886,1,0,0,jagen,0,23,23,6,1
,,,,,,00058,2023-10-13_11h26.32.410,vbt_B1_day2,2022.2.4,Win32,59.46363799,,,,,,,,,,,,,,,,,,,,,,,,,,,,,,,,,,,,,,,,,,heengeen,images/br_heengeen.png,images/cb_heengeen.png,,heengeen,,,,,,,,,,,0.338227364,-0.158510093,1,0,0,heengeen,0,24,24,38,1
,,,,,,00058,2023-10-13_11h26.32.410,vbt_B1_day2,2022.2.4,Win32,59.46363799,,,,,,,,,,,,,,,,,,,,,,,,,,,,,,,,,,,,,,,,,,remel,images/br_remel.png,images/cb_remel.png,,remel,,,,,,,,,,,0.386079424,-0.173735726,1,0,0,remel,0,25,25,25,1
,,,,,,00058,2023-10-13_11h26.32.410,vbt_B1_day2,2022.2.4,Win32,59.46363799,,,,,,,,,,,,,,,,,,,,,,,,,,,,,,,,,,,,,,,,,,sora,images/br_sora.png,images/cb_sora.png,,sora,,,,,,,,,,,0.381729201,-0.173735726,1,0,0,sora,0,26,26,22,1
,,,,,,00058,2023-10-13_11h26.32.410,vbt_B1_day2,2022.2.4,Win32,59.46363799,,,,,,,,,,,,,,,,,,,,,,,,,,,,,,,,,,,,,,,,,,anarchie,images/br_anarchie.png,images/cb_anarchie.png,,.........,,,,,,,,,,,0.382816781,-0.173735726,1,0,0,.........,0,27,27,16,1
,,,,,,00058,2023-10-13_11h26.32.410,vbt_B1_day2,2022.2.4,Win32,59.46363799,,,,,,,,,,,,,,,,,,,,,,,,,,,,,,,,,,,,,,,,,,lijnen,images/br_lijnen.png,images/cb_lijnen.png,,lijnen,,,,,,,,,,,0.388254486,-0.173735726,1,0,0,lijnen,0,28,28,51,1
,,,,,,00058,2023-10-13_11h26.32.410,vbt_B1_day2,2022.2.4,Win32,59.46363799,,,,,,,,,,,,,,,,,,,,,,,,,,,,,,,,,,,,,,,,,,dode,images/br_dode.png,images/cb_dode.png,,dode,,,,,,,,,,,0.388254486,-0.173735726,1,0,0,dode,0,29,29,41,1
,,,,,,00058,2023-10-13_11h26.32.410,vbt_B1_day2,2022.2.4,Win32,59.46363799,,,,,,,,,,,,,,,,,,,,,,,,,,,,,,,,,,,,,,,,,,diep,images/br_diep.png,images/cb_diep.png,,diep,,,,,,,,,,,0.388254486,-0.173735726,1,0,0,diep,0,30,30,2,1
,,,,,,00058,2023-10-13_11h26.32.410,vbt_B1_day2,2022.2.4,Win32,59.46363799,,,,,,,,,,,,,,,,,,,,,,,,,,,,,,,,,,,,,,,,,,piste,images/br_piste.png,images/cb_piste.png,,piste,,,,,,,,,,,0.388254486,-0.173735726,1,0,0,piste,0,31,31,5,1
,,,,,,00058,2023-10-13_11h26.32.410,vbt_B1_day2,2022.2.4,Win32,59.46363799,,,,,,,,,,,,,,,,,,,,,,,,,,,,,,,,,,,,,,,,,,kasteel,images/br_kasteel.png,images/cb_kasteel.png,,kasteel,,,,,,,,,,,0.388254486,-0.173735726,1,0,0,kasteel,0,32,32,14,1
,,,,,,00058,2023-10-13_11h26.32.410,vbt_B1_day2,2022.2.4,Win32,59.46363799,,,,,,,,,,,,,,,,,,,,,,,,,,,,,,,,,,,,,,,,,,plannen,images/br_plannen.png,images/cb_plannen.png,,plannen,,,,,,,,,,,0.388254486,-0.173735726,1,0,0,plannen,0,33,33,55,1
,,,,,,00058,2023-10-13_11h26.32.410,vbt_B1_day2,2022.2.4,Win32,59.46363799,,,,,,,,,,,,,,,,,,,,,,,,,,,,,,,,,,,,,,,,,,woning,images/br_woning.png,images/cb_woning.png,,woning,,,,,,,,,,,0.414355628,-0.20201198,1,0,0,woning,0,34,34,10,1
,,,,,,00058,2023-10-13_11h26.32.410,vbt_B1_day2,2022.2.4,Win32,59.46363799,,,,,,,,,,,,,,,,,,,,,,,,,,,,,,,,,,,,,,,,,,aanvraag,images/br_aanvraag.png,images/cb_aanvraag.png,,aanvr...,,,,,,,,,,,0.414355628,-0.20201198,1,0,0,aanvr...,0,35,35,57,1
,,,,,,00058,2023-10-13_11h26.32.410,vbt_B1_day2,2022.2.4,Win32,59.46363799,,,,,,,,,,,,,,,,,,,,,,,,,,,,,,,,,,,,,,,,,,bloeien,images/br_bloeien.png,images/cb_bloeien.png,,bloeien,,,,,,,,,,,0.414355628,-0.20201198,1,0,0,bloeien,0,36,36,12,1
,,,,,,00058,2023-10-13_11h26.32.410,vbt_B1_day2,2022.2.4,Win32,59.46363799,,,,,,,,,,,,,,,,,,,,,,,,,,,,,,,,,,,,,,,,,,zomers,images/br_zomers.png,images/cb_zomers.png,,zoemen,,,,,,,,,,,0.414355628,-0.20201198,1,0,0,zoemen,0,37,37,48,1
,,,,,,00058,2023-10-13_11h26.32.410,vbt_B1_day2,2022.2.4,Win32,59.46363799,,,,,,,,,,,,,,,,,,,,,,,,,,,,,,,,,,,,,,,,,,heilig,images/br_heilig.png,images/cb_heilig.png,,heilig,,,,,,,,,,,0.414355628,-0.20201198,1,0,0,heilig,0,38,38,9,1
,,,,,,00058,2023-10-13_11h26.32.410,vbt_B1_day2,2022.2.4,Win32,59.46363799,,,,,,,,,,,,,,,,,,,,,,,,,,,,,,,,,,,,,,,,,,ophuimen,images/br_ophuimen.png,images/cb_ophuimen.png,,ophui...,,,,,,,,,,,0.414355628,-0.20201198,1,0,0,ophui...,0,39,39,36,1
,,,,,,00058,2023-10-13_11h26.32.410,vbt_B1_day2,2022.2.4,Win32,59.46363799,,,,,,,,,,,,,,,,,,,,,,,,,,,,,,,,,,,,,,,,,,sjijfel,images/br_sjijfel.png,images/cb_sjijfel.png,,sjijf.,,,,,,,,,,,0.414355628,-0.20201198,1,0,0,sjijf.,0,40,40,33,1
,,,,,,00058,2023-10-13_11h26.32.410,vbt_B1_day2,2022.2.4,Win32,59.46363799,,,,,,,,,,,,,,,,,,,,,,,,,,,,,,,,,,,,,,,,,,strikken,images/br_strikken.png,images/cb_strikken.png,,strikken,,,,,,,,,,,0.414355628,-0.20201198,1,0,0,strikken,0,41,41,18,1
,,,,,,00058,2023-10-13_11h26.32.410,vbt_B1_day2,2022.2.4,Win32,59.46363799,,,,,,,,,,,,,,,,,,,,,,,,,,,,,,,,,,,,,,,,,,sifferd,images/br_sifferd.png,images/cb_sifferd.png,,siff...,,,,,,,,,,,0.414355628,-0.20201198,1,0,0,siff...,0,42,42,32,1
,,,,,,00058,2023-10-13_11h26.32.410,vbt_B1_day2,2022.2.4,Win32,59.46363799,,,,,,,,,,,,,,,,,,,,,,,,,,,,,,,,,,,,,,,,,,toeval,images/br_toeval.png,images/cb_toeval.png,,toeval,,,,,,,,,,,0.356715639,-0.172648195,1,0,0,toeval,0,43,43,11,1
,,,,,,00058,2023-10-13_11h26.32.410,vbt_B1_day2,2022.2.4,Win32,59.46363799,,,,,,,,,,,,,,,,,,,,,,,,,,,,,,,,,,,,,,,,,,opdatten,images/br_opdatten.png,images/cb_opdatten.png,,opdatten,,,,,,,,,,,0.376291496,-0.180261011,1,0,0,opdatten,0,44,44,37,1
,,,,,,00058,2023-10-13_11h26.32.410,vbt_B1_day2,2022.2.4,Win32,59.46363799,,,,,,,,,,,,,,,,,,,,,,,,,,,,,,,,,,,,,,,,,,bereuwen,images/br_bereuwen.png,images/cb_bereuwen.png,,bere...,,,,,,,,,,,0.376291496,-0.180261011,1,0,0,bere...,0,45,45,39,1
,,,,,,00058,2023-10-13_11h26.32.410,vbt_B1_day2,2022.2.4,Win32,59.46363799,,,,,,,,,,,,,,,,,,,,,,,,,,,,,,,,,,,,,,,,,,moes,images/br_moes.png,images/cb_moes.png,,moes,,,,,,,,,,,0.450244698,-0.228113171,1,0,0,moes,0,46,46,0,1
,,,,,,00058,2023-10-13_11h26.32.410,vbt_B1_day2,2022.2.4,Win32,59.46363799,,,,,,,,,,,,,,,,,,,,,,,,,,,,,,,,,,,,,,,,,,tand,images/br_tand.png,images/cb_tand.png,,tand,,,,,,,,,,,0.450244698,-0.228113171,1,0,0,tand,0,47,47,42,1
,,,,,,00058,2023-10-13_11h26.32.410,vbt_B1_day2,2022.2.4,Win32,59.46363799,,,,,,,,,,,,,,,,,,,,,,,,,,,,,,,,,,,,,,,,,,eenhoorn,images/br_eenhoorn.png,images/cb_eenhoorn.png,,eenhoorn,,,,,,,,,,,0.450244698,-0.228113171,1,0,0,eenhoorn,0,48,48,19,1
,,,,,,00058,2023-10-13_11h26.32.410,vbt_B1_day2,2022.2.4,Win32,59.46363799,,,,,,,,,,,,,,,,,,,,,,,,,,,,,,,,,,,,,,,,,,lurgen,images/br_lurgen.png,images/cb_lurgen.png,,lurgen,,,,,,,,,,,0.450244698,-0.228113171,1,0,0,lurgen,0,49,49,29,1
,,,,,,00058,2023-10-13_11h26.32.410,vbt_B1_day2,2022.2.4,Win32,59.46363799,,,,,,,,,,,,,,,,,,,,,,,,,,,,,,,,,,,,,,,,,,stes,images/br_stes.png,images/cb_stes.png,,stes,,,,,,,,,,,0.450244698,-0.228113171,1,0,0,stes,0,50,50,21,1
,,,,,,00058,2023-10-13_11h26.32.410,vbt_B1_day2,2022.2.4,Win32,59.46363799,,,,,,,,,,,,,,,,,,,,,,,,,,,,,,,,,,,,,,,,,,thema,images/br_thema.png,images/cb_thema.png,,thema,,,,,,,,,,,0.450244698,-0.228113171,1,0,0,thema,0,51,51,47,1
,,,,,,00058,2023-10-13_11h26.32.410,vbt_B1_day2,2022.2.4,Win32,59.46363799,,,,,,,,,,,,,,,,,,,,,,,,,,,,,,,,,,,,,,,,,,breuk,images/br_breuk.png,images/cb_breuk.png,,br..k,,,,,,,,,,,0.444806993,-0.229200653,1,0,0,br..k,0,52,52,45,1
,,,,,,00058,2023-10-13_11h26.32.410,vbt_B1_day2,2022.2.4,Win32,59.46363799,,,,,,,,,,,,,,,,,,,,,,,,,,,,,,,,,,,,,,,,,,lokken,images/br_lokken.png,images/cb_lokken.png,,lokken,,,,,,,,,,,0.421968494,-0.229200653,1,0,0,lokken,0,53,53,8,1
,,,,,,00058,2023-10-13_11h26.32.410,vbt_B1_day2,2022.2.4,Win32,59.46363799,,,,,,,,,,,,,,,,,,,,,,,,,,,,,,,,,,,,,,,,,,kenzis,images/br_kenzis.png,images/cb_kenzis.png,,ken...,,,,,,,,,,,0.421968494,-0.229200653,1,0,0,ken...,0,54,54,30,1
,,,,,,00058,2023-10-13_11h26.32.410,vbt_B1_day2,2022.2.4,Win32,59.46363799,,,,,,,,,,,,,,,,,,,,,,,,,,,,,,,,,,,,,,,,,,kijlen,images/br_kijlen.png,images/cb_kijlen.png,,kijlen,,,,,,,,,,,0.421968494,-0.229200653,1,0,0,kijlen,0,55,55,31,1
,,,,,,00058,2023-10-13_11h26.32.410,vbt_B1_day2,2022.2.4,Win32,59.46363799,,,,,,,,,,,,,,,,,,,,,,,,,,,,,,,,,,,,,,,,,,clan,images/br_clan.png,images/cb_clan.png,,clan,,,,,,,,,,,0.421968494,-0.229200653,1,0,0,clan,0,56,56,40,1
,,,,,,00058,2023-10-13_11h26.32.410,vbt_B1_day2,2022.2.4,Win32,59.46363799,,,,,,,,,,,,,,,,,,,,,,,,,,,,,,,,,,,,,,,,,,geld,images/br_geld.png,images/cb_geld.png,,geld,,,,,,,,,,,0.421968494,-0.229200653,1,0,0,geld,0,57,57,3,1
,,,,,,00058,2023-10-13_11h26.32.410,vbt_B1_day2,2022.2.4,Win32,59.46363799,,,,,,,,,,,,,,,,,,,,,,,,,,,,,,,,,,,,,,,,,,agressie,images/br_agressie.png,images/cb_agressie.png,,agressie,,,,,,,,,,,0.421968494,-0.229200653,1,0,0,agressie,0,58,58,59,1
,,,,,,00058,2023-10-13_11h26.32.410,vbt_B1_day2,2022.2.4,Win32,59.46363799,,,,,,,,,,,,,,,,,,,,,,,,,,,,,,,,,,,,,,,,,,joes,images/br_joes.png,images/cb_joes.png,,joes,,,,,,,,,,,0.421968494,-0.229200653,1,0,0,joes,0,59,59,20,1
,,,,,,00058,2023-10-13_11h26.32.410,vbt_B1_day2,2022.2.4,Win32,59.46363799,,,,,,,,,,,,,,,,,,,,,,,,,,,,,,,,,,,,,,,,,,,,,,,,,,,,,,,,,,,,,,,,,,,
