welcome_mouse.x,welcome_mouse.y,welcome_mouse.leftButton,welcome_mouse.midButton,welcome_mouse.rightButton,welcome_mouse.time,"ID",date,expName,psychopyVersion,OS,frameRate,refresh_mouse.x,refresh_mouse.y,refresh_mouse.leftButton,refresh_mouse.midButton,refresh_mouse.rightButton,refresh_mouse.time,braille_mouse.x,braille_mouse.y,braille_mouse.leftButton,braille_mouse.midButton,braille_mouse.rightButton,braille_mouse.time,trials.thisRepN,trials.thisTrialN,trials.thisN,trials.thisIndex,trials.ran,nlLet,brLet,cbLet,trainInstr_mouse.x,trainInstr_mouse.y,trainInstr_mouse.leftButton,trainInstr_mouse.midButton,trainInstr_mouse.rightButton,trainInstr_mouse.time,translation_key.keys,translation_key.corr,translation_key.rt,word_rsp.text,word_mouse.x,word_mouse.y,word_mouse.leftButton,word_mouse.midButton,word_mouse.rightButton,word_mouse.time,train_loop.thisRepN,train_loop.thisTrialN,train_loop.thisN,train_loop.thisIndex,train_loop.ran,nlWrd,brWrd,cbWrd,test,testResp,mouse.x,mouse.y,mouse.leftButton,mouse.midButton,mouse.rightButton,testInstr_mouse.x,testInstr_mouse.y,testInstr_mouse.leftButton,testInstr_mouse.midButton,testInstr_mouse.rightButton,test_mouse.x,test_mouse.y,test_mouse.leftButton,test_mouse.midButton,test_mouse.rightButton,test_response.text,test_loop.thisRepN,test_loop.thisTrialN,test_loop.thisN,test_loop.thisIndex,test_loop.ran
-0.102521701,-0.240477431,1,0,0,59.4849,00108,2023-11-26_18h44.01.023,vbt_B1_day2,2022.2.4,MacIntel,60.0024001,,,,,,,,,,,,,,,,,,,,,,,,,,,,,,,,,,,,,,,,,,,,,,,,,,,,,,,,,,,,,,,,,,,
,,,,,,00108,2023-11-26_18h44.01.023,vbt_B1_day2,2022.2.4,MacIntel,60.0024001,-0.102521701,-0.240477431,1,0,0,8.8835,,,,,,,,,,,,,,,,,,,,,,,,,,,,,,,,,,,,,,,,,,,,,,,,,,,,,,,,,,,,,
,,,,,,00108,2023-11-26_18h44.01.023,vbt_B1_day2,2022.2.4,MacIntel,60.0024001,,,,,,,-0.102521701,-0.240477431,1,0,0,1.3335,0,0,0,1,1,b,images/br_b.png,images/cb_b.png,,,,,,,,,,,,,,,,,,,,,,,,,,,,,,,,,,,,,,,,,,,,,,,
,,,,,,00108,2023-11-26_18h44.01.023,vbt_B1_day2,2022.2.4,MacIntel,60.0024001,,,,,,,-0.042604167,-0.152751736,1,0,0,0.8845,0,1,1,5,1,f,images/br_f.png,images/cb_f.png,,,,,,,,,,,,,,,,,,,,,,,,,,,,,,,,,,,,,,,,,,,,,,,
,,,,,,00108,2023-11-26_18h44.01.023,vbt_B1_day2,2022.2.4,MacIntel,60.0024001,,,,,,,-0.042604167,-0.152751736,1,0,0,2.5471,0,2,2,22,1,w,images/br_w.png,images/cb_w.png,,,,,,,,,,,,,,,,,,,,,,,,,,,,,,,,,,,,,,,,,,,,,,,
,,,,,,00108,2023-11-26_18h44.01.023,vbt_B1_day2,2022.2.4,MacIntel,60.0024001,,,,,,,-0.042604167,-0.152751736,1,0,0,0.9639,0,3,3,17,1,r,images/br_r.png,images/cb_r.png,,,,,,,,,,,,,,,,,,,,,,,,,,,,,,,,,,,,,,,,,,,,,,,
,,,,,,00108,2023-11-26_18h44.01.023,vbt_B1_day2,2022.2.4,MacIntel,60.0024001,,,,,,,-0.042352431,-0.152751736,1,0,0,0.5708,0,4,4,8,1,i,images/br_i.png,images/cb_i.png,,,,,,,,,,,,,,,,,,,,,,,,,,,,,,,,,,,,,,,,,,,,,,,
,,,,,,00108,2023-11-26_18h44.01.023,vbt_B1_day2,2022.2.4,MacIntel,60.0024001,,,,,,,-0.042352431,-0.152751736,1,0,0,1.0012,0,5,5,4,1,e,images/br_e.png,images/cb_e.png,,,,,,,,,,,,,,,,,,,,,,,,,,,,,,,,,,,,,,,,,,,,,,,
,,,,,,00108,2023-11-26_18h44.01.023,vbt_B1_day2,2022.2.4,MacIntel,60.0024001,,,,,,,-0.042352431,-0.15249566,1,0,0,1.4213,0,6,6,2,1,c,images/br_c.png,images/cb_c.png,,,,,,,,,,,,,,,,,,,,,,,,,,,,,,,,,,,,,,,,,,,,,,,
,,,,,,00108,2023-11-26_18h44.01.023,vbt_B1_day2,2022.2.4,MacIntel,60.0024001,,,,,,,-0.042100694,-0.15249566,1,0,0,1.0353,0,7,7,24,1,y,images/br_y.png,images/cb_y.png,,,,,,,,,,,,,,,,,,,,,,,,,,,,,,,,,,,,,,,,,,,,,,,
,,,,,,00108,2023-11-26_18h44.01.023,vbt_B1_day2,2022.2.4,MacIntel,60.0024001,,,,,,,-0.042100694,-0.15249566,1,0,0,0.9334,0,8,8,19,1,t,images/br_t.png,images/cb_t.png,,,,,,,,,,,,,,,,,,,,,,,,,,,,,,,,,,,,,,,,,,,,,,,
,,,,,,00108,2023-11-26_18h44.01.023,vbt_B1_day2,2022.2.4,MacIntel,60.0024001,,,,,,,-0.042100694,-0.15249566,1,0,0,3.6833,0,9,9,13,1,n,images/br_n.png,images/cb_n.png,,,,,,,,,,,,,,,,,,,,,,,,,,,,,,,,,,,,,,,,,,,,,,,
,,,,,,00108,2023-11-26_18h44.01.023,vbt_B1_day2,2022.2.4,MacIntel,60.0024001,,,,,,,-0.042100694,-0.15249566,1,0,0,1.77,0,10,10,10,1,k,images/br_k.png,images/cb_k.png,,,,,,,,,,,,,,,,,,,,,,,,,,,,,,,,,,,,,,,,,,,,,,,
,,,,,,00108,2023-11-26_18h44.01.023,vbt_B1_day2,2022.2.4,MacIntel,60.0024001,,,,,,,-0.042100694,-0.15249566,1,0,0,4.0178,0,11,11,7,1,h,images/br_h.png,images/cb_h.png,,,,,,,,,,,,,,,,,,,,,,,,,,,,,,,,,,,,,,,,,,,,,,,
,,,,,,00108,2023-11-26_18h44.01.023,vbt_B1_day2,2022.2.4,MacIntel,60.0024001,,,,,,,-0.042100694,-0.15249566,1,0,0,1.6513,0,12,12,25,1,z,images/br_z.png,images/cb_z.png,,,,,,,,,,,,,,,,,,,,,,,,,,,,,,,,,,,,,,,,,,,,,,,
,,,,,,00108,2023-11-26_18h44.01.023,vbt_B1_day2,2022.2.4,MacIntel,60.0024001,,,,,,,-0.042100694,-0.15249566,1,0,0,1.3821,0,13,13,18,1,s,images/br_s.png,images/cb_s.png,,,,,,,,,,,,,,,,,,,,,,,,,,,,,,,,,,,,,,,,,,,,,,,
,,,,,,00108,2023-11-26_18h44.01.023,vbt_B1_day2,2022.2.4,MacIntel,60.0024001,,,,,,,-0.042100694,-0.15249566,1,0,0,1.3369,0,14,14,3,1,d,images/br_d.png,images/cb_d.png,,,,,,,,,,,,,,,,,,,,,,,,,,,,,,,,,,,,,,,,,,,,,,,
,,,,,,00108,2023-11-26_18h44.01.023,vbt_B1_day2,2022.2.4,MacIntel,60.0024001,,,,,,,-0.042100694,-0.15249566,1,0,0,1.5355,0,15,15,21,1,v,images/br_v.png,images/cb_v.png,,,,,,,,,,,,,,,,,,,,,,,,,,,,,,,,,,,,,,,,,,,,,,,
,,,,,,00108,2023-11-26_18h44.01.023,vbt_B1_day2,2022.2.4,MacIntel,60.0024001,,,,,,,-0.042100694,-0.15249566,1,0,0,8.4019,0,16,16,20,1,u,images/br_u.png,images/cb_u.png,,,,,,,,,,,,,,,,,,,,,,,,,,,,,,,,,,,,,,,,,,,,,,,
,,,,,,00108,2023-11-26_18h44.01.023,vbt_B1_day2,2022.2.4,MacIntel,60.0024001,,,,,,,-0.042100694,-0.15249566,1,0,0,0.1199,0,17,17,0,1,a,images/br_a.png,images/cb_a.png,,,,,,,,,,,,,,,,,,,,,,,,,,,,,,,,,,,,,,,,,,,,,,,
,,,,,,00108,2023-11-26_18h44.01.023,vbt_B1_day2,2022.2.4,MacIntel,60.0024001,,,,,,,-0.042100694,-0.15249566,1,0,0,0.3668,0,18,18,11,1,l,images/br_l.png,images/cb_l.png,,,,,,,,,,,,,,,,,,,,,,,,,,,,,,,,,,,,,,,,,,,,,,,
,,,,,,00108,2023-11-26_18h44.01.023,vbt_B1_day2,2022.2.4,MacIntel,60.0024001,,,,,,,-0.042100694,-0.15249566,1,0,0,1.0161,0,19,19,6,1,g,images/br_g.png,images/cb_g.png,,,,,,,,,,,,,,,,,,,,,,,,,,,,,,,,,,,,,,,,,,,,,,,
,,,,,,00108,2023-11-26_18h44.01.023,vbt_B1_day2,2022.2.4,MacIntel,60.0024001,,,,,,,-0.042100694,-0.15249566,1,0,0,0.4345,0,20,20,15,1,p,images/br_p.png,images/cb_p.png,,,,,,,,,,,,,,,,,,,,,,,,,,,,,,,,,,,,,,,,,,,,,,,
,,,,,,00108,2023-11-26_18h44.01.023,vbt_B1_day2,2022.2.4,MacIntel,60.0024001,,,,,,,-0.042100694,-0.15249566,1,0,0,2.6346,0,21,21,12,1,m,images/br_m.png,images/cb_m.png,,,,,,,,,,,,,,,,,,,,,,,,,,,,,,,,,,,,,,,,,,,,,,,
,,,,,,00108,2023-11-26_18h44.01.023,vbt_B1_day2,2022.2.4,MacIntel,60.0024001,,,,,,,-0.042100694,-0.15249566,1,0,0,0.7695,0,22,22,23,1,x,images/br_x.png,images/cb_x.png,,,,,,,,,,,,,,,,,,,,,,,,,,,,,,,,,,,,,,,,,,,,,,,
,,,,,,00108,2023-11-26_18h44.01.023,vbt_B1_day2,2022.2.4,MacIntel,60.0024001,,,,,,,-0.042100694,-0.15249566,1,0,0,3.0669,0,23,23,9,1,j,images/br_j.png,images/cb_j.png,,,,,,,,,,,,,,,,,,,,,,,,,,,,,,,,,,,,,,,,,,,,,,,
,,,,,,00108,2023-11-26_18h44.01.023,vbt_B1_day2,2022.2.4,MacIntel,60.0024001,,,,,,,-0.042100694,-0.15249566,1,0,0,1.0845,0,24,24,14,1,o,images/br_o.png,images/cb_o.png,,,,,,,,,,,,,,,,,,,,,,,,,,,,,,,,,,,,,,,,,,,,,,,
,,,,,,00108,2023-11-26_18h44.01.023,vbt_B1_day2,2022.2.4,MacIntel,60.0024001,,,,,,,-0.042100694,-0.15249566,1,0,0,1.249,0,25,25,16,1,q,images/br_q.png,images/cb_q.png,,,,,,,,,,,,,,,,,,,,,,,,,,,,,,,,,,,,,,,,,,,,,,,
,,,,,,00108,2023-11-26_18h44.01.023,vbt_B1_day2,2022.2.4,MacIntel,60.0024001,,,,,,,,,,,,,,,,,,,,,0.011636285,-0.100989583,1,0,0,26.4323,,,,,,,,,,,,,,,,,,,,,,,,,,,,,,,,,,,,,,,,,
,,,,,,00108,2023-11-26_18h44.01.023,vbt_B1_day2,2022.2.4,MacIntel,60.0024001,,,,,,,,,,,,,,,,,,,,,,,,,,,down,0,6.0132,,0.011636285,-0.100989583,1,0,0,2.9325,0,0,0,2,1,jaar,images/br_jaar.png,images/cb_jaar.png,0,,,,,,,,,,,,,,,,,,,,,,
,,,,,,00108,2023-11-26_18h44.01.023,vbt_B1_day2,2022.2.4,MacIntel,60.0024001,,,,,,,,,,,,,,,,,,,,,,,,,,,down,0,44.4974,,0.201011285,-0.031514757,1,0,0,10.7004,0,1,1,161,1,attentie,images/br_attentie.png,images/cb_attentie.png,0,,,,,,,,,,,,,,,,,,,,,,
,,,,,,00108,2023-11-26_18h44.01.023,vbt_B1_day2,2022.2.4,MacIntel,60.0024001,,,,,,,,,,,,,,,,,,,,,,,,,,,down,0,3.5233,,0.055750868,-0.025134549,1,0,0,0.9326,0,2,2,28,1,stal,images/br_stal.png,images/cb_stal.png,0,,,,,,,,,,,,,,,,,,,,,,
,,,,,,00108,2023-11-26_18h44.01.023,vbt_B1_day2,2022.2.4,MacIntel,60.0024001,,,,,,,,,,,,,,,,,,,,,,,,,,,down,0,6.4261,,0.042421875,-0.02265625,1,0,0,0.8168,0,3,3,73,1,volop,images/br_volop.png,images/cb_volop.png,0,,,,,,,,,,,,,,,,,,,,,,
,,,,,,00108,2023-11-26_18h44.01.023,vbt_B1_day2,2022.2.4,MacIntel,60.0024001,,,,,,,,,,,,,,,,,,,,,,,,,,,down,0,26.6377,,0.125390625,-0.073072917,1,0,0,18.3183,0,4,4,34,1,vorm,images/br_vorm.png,images/cb_vorm.png,0,,,,,,,,,,,,,,,,,,,,,,
,,,,,,00108,2023-11-26_18h44.01.023,vbt_B1_day2,2022.2.4,MacIntel,60.0024001,,,,,,,,,,,,,,,,,,,,,,,,,,,down,0,8.7039,,0.157400174,-0.00125434,1,0,0,6.7681,0,5,5,190,1,goedkoop,images/br_goedkoop.png,images/cb_goedkoop.png,0,,,,,,,,,,,,,,,,,,,,,,
,,,,,,00108,2023-11-26_18h44.01.023,vbt_B1_day2,2022.2.4,MacIntel,60.0024001,,,,,,,,,,,,,,,,,,,,,,,,,,,down,0,14.7422,,0.05812934,-0.041631944,1,0,0,4.9672,0,6,6,15,1,soda,images/br_soda.png,images/cb_soda.png,0,,,,,,,,,,,,,,,,,,,,,,
,,,,,,00108,2023-11-26_18h44.01.023,vbt_B1_day2,2022.2.4,MacIntel,60.0024001,,,,,,,,,,,,,,,,,,,,,,,,,,,down,0,30.7996,,0.182825521,0.005065104,1,0,0,7.4679,0,7,7,104,1,zweven,images/br_zweven.png,images/cb_zweven.png,0,,,,,,,,,,,,,,,,,,,,,,
,,,,,,00108,2023-11-26_18h44.01.023,vbt_B1_day2,2022.2.4,MacIntel,60.0024001,,,,,,,,,,,,,,,,,,,,,,,,,,,down,0,7.4235,,0.23452691,-0.095542535,1,0,0,0.7173,0,8,8,72,1,strak,images/br_strak.png,images/cb_strak.png,0,,,,,,,,,,,,,,,,,,,,,,
,,,,,,00108,2023-11-26_18h44.01.023,vbt_B1_day2,2022.2.4,MacIntel,60.0024001,,,,,,,,,,,,,,,,,,,,,,,,,,,down,0,28.6824,,0.150130208,-0.020125868,1,0,0,2.7326,0,9,9,187,1,opkijken,images/br_opkijken.png,images/cb_opkijken.png,0,,,,,,,,,,,,,,,,,,,,,,
,,,,,,00108,2023-11-26_18h44.01.023,vbt_B1_day2,2022.2.4,MacIntel,60.0024001,,,,,,,,,,,,,,,,,,,,,,,,,,,down,0,26.3767,,-0.076948785,-0.173220486,1,0,0,15.2414,0,10,10,3,1,mand,images/br_mand.png,images/cb_mand.png,0,,,,,,,,,,,,,,,,,,,,,,
,,,,,,00108,2023-11-26_18h44.01.023,vbt_B1_day2,2022.2.4,MacIntel,60.0024001,,,,,,,,,,,,,,,,,,,,,,,,,,,down,0,10.3448,,0.184900174,-0.003802083,1,0,0,0.6345,0,11,11,95,1,vreten,images/br_vreten.png,images/cb_vreten.png,0,,,,,,,,,,,,,,,,,,,,,,
,,,,,,00108,2023-11-26_18h44.01.023,vbt_B1_day2,2022.2.4,MacIntel,60.0024001,,,,,,,,,,,,,,,,,,,,,,,,,,,down,0,7.2802,,0.108528646,-0.010069444,1,0,0,0.5988,0,12,12,27,1,dans,images/br_dans.png,images/cb_dans.png,0,,,,,,,,,,,,,,,,,,,,,,
,,,,,,00108,2023-11-26_18h44.01.023,vbt_B1_day2,2022.2.4,MacIntel,60.0024001,,,,,,,,,,,,,,,,,,,,,,,,,,,down,0,11.0372,,-0.002864583,-0.166536458,1,0,0,2.1519,0,13,13,106,1,zingen,images/br_zingen.png,images/cb_zingen.png,0,,,,,,,,,,,,,,,,,,,,,,
,,,,,,00108,2023-11-26_18h44.01.023,vbt_B1_day2,2022.2.4,MacIntel,60.0024001,,,,,,,,,,,,,,,,,,,,,,,,,,,down,0,1.0337,,0.070295139,-0.055724826,1,0,0,0.923,0,14,14,84,1,lokken,images/br_lokken.png,images/cb_lokken.png,0,,,,,,,,,,,,,,,,,,,,,,
,,,,,,00108,2023-11-26_18h44.01.023,vbt_B1_day2,2022.2.4,MacIntel,60.0024001,,,,,,,,,,,,,,,,,,,,,,,,,,,down,0,19.0697,,-0.072113715,-0.066679688,1,0,0,11.0017,0,15,15,183,1,getuigen,images/br_getuigen.png,images/cb_getuigen.png,0,,,,,,,,,,,,,,,,,,,,,,
,,,,,,00108,2023-11-26_18h44.01.023,vbt_B1_day2,2022.2.4,MacIntel,60.0024001,,,,,,,,,,,,,,,,,,,,,,,,,,,down,0,3.1386,,0.114353299,-0.003311632,1,0,0,0.6335,0,16,16,46,1,jagen,images/br_jagen.png,images/cb_jagen.png,0,,,,,,,,,,,,,,,,,,,,,,
,,,,,,00108,2023-11-26_18h44.01.023,vbt_B1_day2,2022.2.4,MacIntel,60.0024001,,,,,,,,,,,,,,,,,,,,,,,,,,,down,0,7.2957,,0.081015625,0.008211806,1,0,0,0.598,0,17,17,37,1,mijn,images/br_mijn.png,images/cb_mijn.png,0,,,,,,,,,,,,,,,,,,,,,,
,,,,,,00108,2023-11-26_18h44.01.023,vbt_B1_day2,2022.2.4,MacIntel,60.0024001,,,,,,,,,,,,,,,,,,,,,,,,,,,down,0,9.4113,,0.093702257,-0.035772569,1,0,0,0.8657,0,18,18,7,1,geld,images/br_geld.png,images/cb_geld.png,0,,,,,,,,,,,,,,,,,,,,,,
,,,,,,00108,2023-11-26_18h44.01.023,vbt_B1_day2,2022.2.4,MacIntel,60.0024001,,,,,,,,,,,,,,,,,,,,,,,,,,,down,0,4.4918,,0.120915799,-0.037052951,1,0,0,0.7843,0,19,19,87,1,toeval,images/br_toeval.png,images/cb_toeval.png,0,,,,,,,,,,,,,,,,,,,,,,
,,,,,,00108,2023-11-26_18h44.01.023,vbt_B1_day2,2022.2.4,MacIntel,60.0024001,,,,,,,,,,,,,,,,,,,,,,,,,,,down,0,5.7699,,0.228450521,-0.174900174,1,0,0,0.6832,0,20,20,51,1,samen,images/br_samen.png,images/cb_samen.png,0,,,,,,,,,,,,,,,,,,,,,,
,,,,,,00108,2023-11-26_18h44.01.023,vbt_B1_day2,2022.2.4,MacIntel,60.0024001,,,,,,,,,,,,,,,,,,,,,,,,,,,down,0,30.5413,,0.084726563,-0.019613715,1,0,0,0.6851,0,21,21,168,1,bisschop,images/br_bisschop.png,images/cb_bisschop.png,0,,,,,,,,,,,,,,,,,,,,,,
,,,,,,00108,2023-11-26_18h44.01.023,vbt_B1_day2,2022.2.4,MacIntel,60.0024001,,,,,,,,,,,,,,,,,,,,,,,,,,,down,0,9.0749,,0.030486111,0.002560764,1,0,0,0.6169,0,22,22,89,1,slapen,images/br_slapen.png,images/cb_slapen.png,0,,,,,,,,,,,,,,,,,,,,,,
,,,,,,00108,2023-11-26_18h44.01.023,vbt_B1_day2,2022.2.4,MacIntel,60.0024001,,,,,,,,,,,,,,,,,,,,,,,,,,,down,0,18.8401,,0.075868056,-0.015998264,1,0,0,0.5537,0,23,23,45,1,piste,images/br_piste.png,images/cb_piste.png,0,,,,,,,,,,,,,,,,,,,,,,
,,,,,,00108,2023-11-26_18h44.01.023,vbt_B1_day2,2022.2.4,MacIntel,60.0024001,,,,,,,,,,,,,,,,,,,,,,,,,,,down,0,3.169,,0.138988715,-0.001653646,1,0,0,0.6847,0,24,24,64,1,wegen,images/br_wegen.png,images/cb_wegen.png,0,,,,,,,,,,,,,,,,,,,,,,
,,,,,,00108,2023-11-26_18h44.01.023,vbt_B1_day2,2022.2.4,MacIntel,60.0024001,,,,,,,,,,,,,,,,,,,,,,,,,,,down,0,6.2677,,0.122486979,-0.007404514,1,0,0,0.6194,0,25,25,114,1,vullen,images/br_vullen.png,images/cb_vullen.png,0,,,,,,,,,,,,,,,,,,,,,,
,,,,,,00108,2023-11-26_18h44.01.023,vbt_B1_day2,2022.2.4,MacIntel,60.0024001,,,,,,,,,,,,,,,,,,,,,,,,,,,down,0,29.6152,,0.389084201,-0.038159722,1,0,0,9.4376,0,26,26,136,1,waarbij,images/br_waarbij.png,images/cb_waarbij.png,1,waarbijwaarbij,,,,,,,,,,,,,,,,,,,,,
,,,,,,00108,2023-11-26_18h44.01.023,vbt_B1_day2,2022.2.4,MacIntel,60.0024001,,,,,,,,,,,,,,,,,,,,,,,,,,,down,0,8.3342,,0.004348958,0.006536458,1,0,0,0.5191,0,27,27,42,1,bleek,images/br_bleek.png,images/cb_bleek.png,0,,,,,,,,,,,,,,,,,,,,,,
,,,,,,00108,2023-11-26_18h44.01.023,vbt_B1_day2,2022.2.4,MacIntel,60.0024001,,,,,,,,,,,,,,,,,,,,,,,,,,,down,0,20.205,,-0.021102431,-0.046323785,1,0,0,2.7497,0,28,28,126,1,kasteel,images/br_kasteel.png,images/cb_kasteel.png,0,,,,,,,,,,,,,,,,,,,,,,
,,,,,,00108,2023-11-26_18h44.01.023,vbt_B1_day2,2022.2.4,MacIntel,60.0024001,,,,,,,,,,,,,,,,,,,,,,,,,,,down,0,5.8225,,0.085907118,0.005633681,1,0,0,0.8365,0,29,29,107,1,maling,images/br_maling.png,images/cb_maling.png,0,,,,,,,,,,,,,,,,,,,,,,
,,,,,,00108,2023-11-26_18h44.01.023,vbt_B1_day2,2022.2.4,MacIntel,60.0024001,,,,,,,,,,,,,,,,,,,,,,,,,,,down,0,9.2386,,0.139900174,-0.007864583,1,0,0,1.2178,0,30,30,75,1,snoep,images/br_snoep.png,images/cb_snoep.png,0,,,,,,,,,,,,,,,,,,,,,,
,,,,,,00108,2023-11-26_18h44.01.023,vbt_B1_day2,2022.2.4,MacIntel,60.0024001,,,,,,,,,,,,,,,,,,,,,,,,,,,down,0,4.9824,,0.143272569,0.013103299,1,0,0,0.6334,0,31,31,133,1,seizoen,images/br_seizoen.png,images/cb_seizoen.png,0,,,,,,,,,,,,,,,,,,,,,,
,,,,,,00108,2023-11-26_18h44.01.023,vbt_B1_day2,2022.2.4,MacIntel,60.0024001,,,,,,,,,,,,,,,,,,,,,,,,,,,down,0,3.986,,0.030677083,-0.009392361,1,0,0,0.5844,0,32,32,81,1,dubbel,images/br_dubbel.png,images/cb_dubbel.png,0,,,,,,,,,,,,,,,,,,,,,,
,,,,,,00108,2023-11-26_18h44.01.023,vbt_B1_day2,2022.2.4,MacIntel,60.0024001,,,,,,,,,,,,,,,,,,,,,,,,,,,down,0,2.722,,0.019457465,-0.025043403,1,0,0,0.483,0,33,33,5,1,blad,images/br_blad.png,images/cb_blad.png,0,,,,,,,,,,,,,,,,,,,,,,
,,,,,,00108,2023-11-26_18h44.01.023,vbt_B1_day2,2022.2.4,MacIntel,60.0024001,,,,,,,,,,,,,,,,,,,,,,,,,,,down,0,5.1332,,0.095013021,-0.01359809,1,0,0,0.588,0,34,34,48,1,steel,images/br_steel.png,images/cb_steel.png,0,,,,,,,,,,,,,,,,,,,,,,
,,,,,,00108,2023-11-26_18h44.01.023,vbt_B1_day2,2022.2.4,MacIntel,60.0024001,,,,,,,,,,,,,,,,,,,,,,,,,,,down,0,7.7705,,-0.016436632,-0.063090278,1,0,0,1.1039,0,35,35,162,1,uitdelen,images/br_uitdelen.png,images/cb_uitdelen.png,0,,,,,,,,,,,,,,,,,,,,,,
,,,,,,00108,2023-11-26_18h44.01.023,vbt_B1_day2,2022.2.4,MacIntel,60.0024001,,,,,,,,,,,,,,,,,,,,,,,,,,,down,0,78.6152,,-0.077087674,-0.002222222,1,0,0,0.9159,0,36,36,199,1,beseffen,images/br_beseffen.png,images/cb_beseffen.png,0,,,,,,,,,,,,,,,,,,,,,,
,,,,,,00108,2023-11-26_18h44.01.023,vbt_B1_day2,2022.2.4,MacIntel,60.0024001,,,,,,,,,,,,,,,,,,,,,,,,,,,down,0,17.6893,,-0.033619792,0.021414931,1,0,0,1.0329,0,37,37,194,1,driemaal,images/br_driemaal.png,images/cb_driemaal.png,0,,,,,,,,,,,,,,,,,,,,,,
,,,,,,00108,2023-11-26_18h44.01.023,vbt_B1_day2,2022.2.4,MacIntel,60.0024001,,,,,,,,,,,,,,,,,,,,,,,,,,,down,0,26.4933,,0.028519965,0.006480035,1,0,0,0.686,0,38,38,180,1,openbaar,images/br_openbaar.png,images/cb_openbaar.png,0,,,,,,,,,,,,,,,,,,,,,,
,,,,,,00108,2023-11-26_18h44.01.023,vbt_B1_day2,2022.2.4,MacIntel,60.0024001,,,,,,,,,,,,,,,,,,,,,,,,,,,down,0,3.7405,,0.15718316,0.003919271,1,0,0,0.6659,0,39,39,132,1,grappen,images/br_grappen.png,images/cb_grappen.png,0,,,,,,,,,,,,,,,,,,,,,,
,,,,,,00108,2023-11-26_18h44.01.023,vbt_B1_day2,2022.2.4,MacIntel,60.0024001,,,,,,,,,,,,,,,,,,,,,,,,,,,down,0,23.2378,,0.157838542,-0.031653646,1,0,0,0.6365,0,40,40,30,1,uien,images/br_uien.png,images/cb_uien.png,0,,,,,,,,,,,,,,,,,,,,,,
,,,,,,00108,2023-11-26_18h44.01.023,vbt_B1_day2,2022.2.4,MacIntel,60.0024001,,,,,,,,,,,,,,,,,,,,,,,,,,,down,0,4.4527,,0.143771701,-0.016514757,1,0,0,0.5,0,41,41,66,1,lever,images/br_lever.png,images/cb_lever.png,0,,,,,,,,,,,,,,,,,,,,,,
,,,,,,00108,2023-11-26_18h44.01.023,vbt_B1_day2,2022.2.4,MacIntel,60.0024001,,,,,,,,,,,,,,,,,,,,,,,,,,,down,0,7.9879,,0.264227431,-0.055325521,1,0,0,1.2713,0,42,42,59,1,kring,images/br_kring.png,images/cb_kring.png,1,kring,,,,,,,,,,,,,,,,,,,,,
,,,,,,00108,2023-11-26_18h44.01.023,vbt_B1_day2,2022.2.4,MacIntel,60.0024001,,,,,,,,,,,,,,,,,,,,,,,,,,,down,0,18.3908,,0.290282118,0.012478299,1,0,0,0.5846,0,43,43,173,1,apparaat,images/br_apparaat.png,images/cb_apparaat.png,0,,,,,,,,,,,,,,,,,,,,,,
,,,,,,00108,2023-11-26_18h44.01.023,vbt_B1_day2,2022.2.4,MacIntel,60.0024001,,,,,,,,,,,,,,,,,,,,,,,,,,,down,0,24.4419,,-0.032586806,-0.030360243,1,0,0,1.4503,0,44,44,116,1,besmet,images/br_besmet.png,images/cb_besmet.png,0,,,,,,,,,,,,,,,,,,,,,,
,,,,,,00108,2023-11-26_18h44.01.023,vbt_B1_day2,2022.2.4,MacIntel,60.0024001,,,,,,,,,,,,,,,,,,,,,,,,,,,down,0,4.2465,,0.070256076,-0.018567708,1,0,0,0.6134,0,45,45,71,1,bever,images/br_bever.png,images/cb_bever.png,0,,,,,,,,,,,,,,,,,,,,,,
,,,,,,00108,2023-11-26_18h44.01.023,vbt_B1_day2,2022.2.4,MacIntel,60.0024001,,,,,,,,,,,,,,,,,,,,,,,,,,,down,0,12.1363,,0.080013021,0.025855035,1,0,0,0.5672,0,46,46,172,1,weigeren,images/br_weigeren.png,images/cb_weigeren.png,0,,,,,,,,,,,,,,,,,,,,,,
,,,,,,00108,2023-11-26_18h44.01.023,vbt_B1_day2,2022.2.4,MacIntel,60.0024001,,,,,,,,,,,,,,,,,,,,,,,,,,,down,0,23.7441,,-0.027304688,0.015381944,1,0,0,0.5674,0,47,47,167,1,eenhoorn,images/br_eenhoorn.png,images/cb_eenhoorn.png,0,,,,,,,,,,,,,,,,,,,,,,
,,,,,,00108,2023-11-26_18h44.01.023,vbt_B1_day2,2022.2.4,MacIntel,60.0024001,,,,,,,,,,,,,,,,,,,,,,,,,,,down,0,6.7207,,0.233723958,-0.005221354,1,0,0,0.4681,0,48,48,146,1,opkomen,images/br_opkomen.png,images/cb_opkomen.png,0,,,,,,,,,,,,,,,,,,,,,,
,,,,,,00108,2023-11-26_18h44.01.023,vbt_B1_day2,2022.2.4,MacIntel,60.0024001,,,,,,,,,,,,,,,,,,,,,,,,,,,down,0,11.4878,,0.080277778,-0.004856771,1,0,0,0.4839,0,49,49,196,1,nakijken,images/br_nakijken.png,images/cb_nakijken.png,0,,,,,,,,,,,,,,,,,,,,,,
,,,,,,00108,2023-11-26_18h44.01.023,vbt_B1_day2,2022.2.4,MacIntel,60.0024001,,,,,,,,,,,,,,,,,,,,,,,,,,,down,0,37.5995,,0.248871528,-0.000455729,1,0,0,0.5002,0,50,50,169,1,oprotten,images/br_oprotten.png,images/cb_oprotten.png,0,,,,,,,,,,,,,,,,,,,,,,
,,,,,,00108,2023-11-26_18h44.01.023,vbt_B1_day2,2022.2.4,MacIntel,60.0024001,,,,,,,,,,,,,,,,,,,,,,,,,,,down,0,3.3156,,0.248871528,0.002322049,1,0,0,0.6155,0,51,51,97,1,loyaal,images/br_loyaal.png,images/cb_loyaal.png,1,loyaal,,,,,,,,,,,,,,,,,,,,,
,,,,,,00108,2023-11-26_18h44.01.023,vbt_B1_day2,2022.2.4,MacIntel,60.0024001,,,,,,,,,,,,,,,,,,,,,,,,,,,down,0,4.3615,,0.248871528,0.002322049,1,0,0,0.5687,0,52,52,17,1,taal,images/br_taal.png,images/cb_taal.png,1,taal,,,,,,,,,,,,,,,,,,,,,
,,,,,,00108,2023-11-26_18h44.01.023,vbt_B1_day2,2022.2.4,MacIntel,60.0024001,,,,,,,,,,,,,,,,,,,,,,,,,,,down,0,15.4604,,0.248871528,0.002322049,1,0,0,0.5503,0,53,53,127,1,doodmoe,images/br_doodmoe.png,images/cb_doodmoe.png,0,,,,,,,,,,,,,,,,,,,,,,
,,,,,,00108,2023-11-26_18h44.01.023,vbt_B1_day2,2022.2.4,MacIntel,60.0024001,,,,,,,,,,,,,,,,,,,,,,,,,,,down,0,7.742,,0.248519965,0.006037326,1,0,0,0.5346,0,54,54,177,1,maaltijd,images/br_maaltijd.png,images/cb_maaltijd.png,1,maaltijd,,,,,,,,,,,,,,,,,,,,,
,,,,,,00108,2023-11-26_18h44.01.023,vbt_B1_day2,2022.2.4,MacIntel,60.0024001,,,,,,,,,,,,,,,,,,,,,,,,,,,down,0,12.3021,,0.082690972,-0.021970486,1,0,0,0.4325,0,55,55,90,1,geluid,images/br_geluid.png,images/cb_geluid.png,0,,,,,,,,,,,,,,,,,,,,,,
,,,,,,00108,2023-11-26_18h44.01.023,vbt_B1_day2,2022.2.4,MacIntel,60.0024001,,,,,,,,,,,,,,,,,,,,,,,,,,,down,0,4.6858,,0.052747396,9.98264E-05,1,0,0,0.5004,0,56,56,61,1,groen,images/br_groen.png,images/cb_groen.png,0,,,,,,,,,,,,,,,,,,,,,,
,,,,,,00108,2023-11-26_18h44.01.023,vbt_B1_day2,2022.2.4,MacIntel,60.0024001,,,,,,,,,,,,,,,,,,,,,,,,,,,down,0,5.1669,,0.085264757,-0.026171875,1,0,0,0.519,0,57,57,68,1,schat,images/br_schat.png,images/cb_schat.png,0,,,,,,,,,,,,,,,,,,,,,,
,,,,,,00108,2023-11-26_18h44.01.023,vbt_B1_day2,2022.2.4,MacIntel,60.0024001,,,,,,,,,,,,,,,,,,,,,,,,,,,down,0,14.3088,,0.000342882,0.016545139,1,0,0,0.4498,0,58,58,145,1,invloed,images/br_invloed.png,images/cb_invloed.png,0,,,,,,,,,,,,,,,,,,,,,,
,,,,,,00108,2023-11-26_18h44.01.023,vbt_B1_day2,2022.2.4,MacIntel,60.0024001,,,,,,,,,,,,,,,,,,,,,,,,,,,down,0,11.3221,,0.238294271,-0.00953125,1,0,0,0.4321,0,59,59,193,1,weeshuis,images/br_weeshuis.png,images/cb_weeshuis.png,0,,,,,,,,,,,,,,,,,,,,,,
,,,,,,00108,2023-11-26_18h44.01.023,vbt_B1_day2,2022.2.4,MacIntel,60.0024001,,,,,,,,,,,,,,,,,,,,,,,,,,,down,0,9.3185,,0.206944444,-0.063090278,1,0,0,0.3996,0,60,60,138,1,akkoord,images/br_akkoord.png,images/cb_akkoord.png,1,akkoord,,,,,,,,,,,,,,,,,,,,,
,,,,,,00108,2023-11-26_18h44.01.023,vbt_B1_day2,2022.2.4,MacIntel,60.0024001,,,,,,,,,,,,,,,,,,,,,,,,,,,down,0,15.1041,,0.206944444,-0.063090278,1,0,0,0.6025,0,61,61,181,1,toegeven,images/br_toegeven.png,images/cb_toegeven.png,0,,,,,,,,,,,,,,,,,,,,,,
,,,,,,00108,2023-11-26_18h44.01.023,vbt_B1_day2,2022.2.4,MacIntel,60.0024001,,,,,,,,,,,,,,,,,,,,,,,,,,,down,0,9.7047,,0.11546441,-0.002465278,1,0,0,0.4324,0,62,62,198,1,bedoelen,images/br_bedoelen.png,images/cb_bedoelen.png,0,,,,,,,,,,,,,,,,,,,,,,
,,,,,,00108,2023-11-26_18h44.01.023,vbt_B1_day2,2022.2.4,MacIntel,60.0024001,,,,,,,,,,,,,,,,,,,,,,,,,,,down,0,9.6755,,0.11546441,-0.002465278,1,0,0,0.6169,0,63,63,178,1,huisdier,images/br_huisdier.png,images/cb_huisdier.png,1,huisdier,,,,,,,,,,,,,,,,,,,,,
,,,,,,00108,2023-11-26_18h44.01.023,vbt_B1_day2,2022.2.4,MacIntel,60.0024001,,,,,,,,,,,,,,,,,,,,,,,,,,,down,0,14.4759,,0.114756944,-0.015455729,1,0,0,0.4499,0,64,64,171,1,aarzelen,images/br_aarzelen.png,images/cb_aarzelen.png,0,,,,,,,,,,,,,,,,,,,,,,
,,,,,,00108,2023-11-26_18h44.01.023,vbt_B1_day2,2022.2.4,MacIntel,60.0024001,,,,,,,,,,,,,,,,,,,,,,,,,,,down,0,8.3376,,0.121306424,-0.017417535,1,0,0,0.8511,0,65,65,91,1,gezond,images/br_gezond.png,images/cb_gezond.png,0,,,,,,,,,,,,,,,,,,,,,,
,,,,,,00108,2023-11-26_18h44.01.023,vbt_B1_day2,2022.2.4,MacIntel,60.0024001,,,,,,,,,,,,,,,,,,,,,,,,,,,down,0,3.6115,,0.010355903,-0.013932292,1,0,0,0.5329,0,66,66,4,1,moes,images/br_moes.png,images/cb_moes.png,0,,,,,,,,,,,,,,,,,,,,,,
,,,,,,00108,2023-11-26_18h44.01.023,vbt_B1_day2,2022.2.4,MacIntel,60.0024001,,,,,,,,,,,,,,,,,,,,,,,,,,,down,0,4.4196,,0.010355903,-0.014487847,1,0,0,0.434,0,67,67,10,1,leek,images/br_leek.png,images/cb_leek.png,0,,,,,,,,,,,,,,,,,,,,,,
,,,,,,00108,2023-11-26_18h44.01.023,vbt_B1_day2,2022.2.4,MacIntel,60.0024001,,,,,,,,,,,,,,,,,,,,,,,,,,,down,0,0.5394,,0.010355903,-0.014487847,1,0,0,0.4523,0,68,68,13,1,kaal,images/br_kaal.png,images/cb_kaal.png,0,,,,,,,,,,,,,,,,,,,,,,
,,,,,,00108,2023-11-26_18h44.01.023,vbt_B1_day2,2022.2.4,MacIntel,60.0024001,,,,,,,,,,,,,,,,,,,,,,,,,,,down,0,4.6044,,-0.000924479,0.001488715,1,0,0,0.5005,0,69,69,160,1,daarheen,images/br_daarheen.png,images/cb_daarheen.png,0,,,,,,,,,,,,,,,,,,,,,,
,,,,,,00108,2023-11-26_18h44.01.023,vbt_B1_day2,2022.2.4,MacIntel,60.0024001,,,,,,,,,,,,,,,,,,,,,,,,,,,down,0,12.8602,,0.22858941,-0.012482639,1,0,0,0.5167,0,70,70,154,1,aflopen,images/br_aflopen.png,images/cb_aflopen.png,0,,,,,,,,,,,,,,,,,,,,,,
,,,,,,00108,2023-11-26_18h44.01.023,vbt_B1_day2,2022.2.4,MacIntel,60.0024001,,,,,,,,,,,,,,,,,,,,,,,,,,,down,0,7.155,,0.01312934,-0.031445313,1,0,0,0.4488,0,71,71,43,1,klauw,images/br_klauw.png,images/cb_klauw.png,0,,,,,,,,,,,,,,,,,,,,,,
,,,,,,00108,2023-11-26_18h44.01.023,vbt_B1_day2,2022.2.4,MacIntel,60.0024001,,,,,,,,,,,,,,,,,,,,,,,,,,,down,0,20.957,,0.079644097,-0.014583333,1,0,0,2.4999,0,72,72,147,1,komisch,images/br_komisch.png,images/cb_komisch.png,0,,,,,,,,,,,,,,,,,,,,,,
,,,,,,00108,2023-11-26_18h44.01.023,vbt_B1_day2,2022.2.4,MacIntel,60.0024001,,,,,,,,,,,,,,,,,,,,,,,,,,,down,0,4.372,,-0.004982639,-0.02953559,1,0,0,0.398,0,73,73,35,1,lust,images/br_lust.png,images/cb_lust.png,0,,,,,,,,,,,,,,,,,,,,,,
,,,,,,00108,2023-11-26_18h44.01.023,vbt_B1_day2,2022.2.4,MacIntel,60.0024001,,,,,,,,,,,,,,,,,,,,,,,,,,,down,0,1.8677,,-0.028181424,0.083528646,1,0,0,0.4173,0,74,74,113,1,koppen,images/br_koppen.png,images/cb_koppen.png,0,,,,,,,,,,,,,,,,,,,,,,
,,,,,,00108,2023-11-26_18h44.01.023,vbt_B1_day2,2022.2.4,MacIntel,60.0024001,,,,,,,,,,,,,,,,,,,,,,,,,,,down,0,15.8256,,0.121167535,-0.007921007,1,0,0,0.4488,0,75,75,143,1,hechten,images/br_hechten.png,images/cb_hechten.png,0,,,,,,,,,,,,,,,,,,,,,,
,,,,,,00108,2023-11-26_18h44.01.023,vbt_B1_day2,2022.2.4,MacIntel,60.0024001,,,,,,,,,,,,,,,,,,,,,,,,,,,down,0,4.6728,,-0.030737847,0.003090278,1,0,0,0.4512,0,76,76,134,1,geliefd,images/br_geliefd.png,images/cb_geliefd.png,0,,,,,,,,,,,,,,,,,,,,,,
,,,,,,00108,2023-11-26_18h44.01.023,vbt_B1_day2,2022.2.4,MacIntel,60.0024001,,,,,,,,,,,,,,,,,,,,,,,,,,,down,0,1.6993,,0.02780816,-0.017647569,1,0,0,0.4495,0,77,77,78,1,leren,images/br_leren.png,images/cb_leren.png,0,,,,,,,,,,,,,,,,,,,,,,
,,,,,,00108,2023-11-26_18h44.01.023,vbt_B1_day2,2022.2.4,MacIntel,60.0024001,,,,,,,,,,,,,,,,,,,,,,,,,,,down,0,11.0315,,-0.005082465,0.003823785,1,0,0,0.5188,0,78,78,175,1,heengaan,images/br_heengaan.png,images/cb_heengaan.png,0,,,,,,,,,,,,,,,,,,,,,,
,,,,,,00108,2023-11-26_18h44.01.023,vbt_B1_day2,2022.2.4,MacIntel,60.0024001,,,,,,,,,,,,,,,,,,,,,,,,,,,down,0,4.308,,-0.028832465,-0.005668403,1,0,0,0.5007,0,79,79,70,1,ijdel,images/br_ijdel.png,images/cb_ijdel.png,0,,,,,,,,,,,,,,,,,,,,,,
,,,,,,00108,2023-11-26_18h44.01.023,vbt_B1_day2,2022.2.4,MacIntel,60.0024001,,,,,,,,,,,,,,,,,,,,,,,,,,,down,0,28.4719,,0.135447049,-0.010837674,1,0,0,0.6157,0,80,80,142,1,snuiven,images/br_snuiven.png,images/cb_snuiven.png,0,,,,,,,,,,,,,,,,,,,,,,
,,,,,,00108,2023-11-26_18h44.01.023,vbt_B1_day2,2022.2.4,MacIntel,60.0024001,,,,,,,,,,,,,,,,,,,,,,,,,,,down,0,8.186,,0.002087674,0.005099826,1,0,0,0.75,0,81,81,117,1,kennis,images/br_kennis.png,images/cb_kennis.png,0,,,,,,,,,,,,,,,,,,,,,,
,,,,,,00108,2023-11-26_18h44.01.023,vbt_B1_day2,2022.2.4,MacIntel,60.0024001,,,,,,,,,,,,,,,,,,,,,,,,,,,down,0,5.9752,,-0.095855035,-0.025863715,1,0,0,0.4825,0,82,82,12,1,kust,images/br_kust.png,images/cb_kust.png,0,,,,,,,,,,,,,,,,,,,,,,
,,,,,,00108,2023-11-26_18h44.01.023,vbt_B1_day2,2022.2.4,MacIntel,60.0024001,,,,,,,,,,,,,,,,,,,,,,,,,,,down,0,7.3035,,-0.152508681,0.008315972,1,0,0,0.464,0,83,83,53,1,baron,images/br_baron.png,images/cb_baron.png,0,,,,,,,,,,,,,,,,,,,,,,
,,,,,,00108,2023-11-26_18h44.01.023,vbt_B1_day2,2022.2.4,MacIntel,60.0024001,,,,,,,,,,,,,,,,,,,,,,,,,,,down,0,13.0407,,-0.057682292,-0.014179687,1,0,0,0.5846,0,84,84,144,1,eetlust,images/br_eetlust.png,images/cb_eetlust.png,0,,,,,,,,,,,,,,,,,,,,,,
,,,,,,00108,2023-11-26_18h44.01.023,vbt_B1_day2,2022.2.4,MacIntel,60.0024001,,,,,,,,,,,,,,,,,,,,,,,,,,,down,0,7.3782,,0.074765625,-0.009661458,1,0,0,0.3802,0,85,85,188,1,strekken,images/br_strekken.png,images/cb_strekken.png,0,,,,,,,,,,,,,,,,,,,,,,
,,,,,,00108,2023-11-26_18h44.01.023,vbt_B1_day2,2022.2.4,MacIntel,60.0024001,,,,,,,,,,,,,,,,,,,,,,,,,,,down,0,13.7085,,-0.038459201,-0.014335937,1,0,0,1.1681,0,86,86,109,1,totaal,images/br_totaal.png,images/cb_totaal.png,0,,,,,,,,,,,,,,,,,,,,,,
,,,,,,00108,2023-11-26_18h44.01.023,vbt_B1_day2,2022.2.4,MacIntel,60.0024001,,,,,,,,,,,,,,,,,,,,,,,,,,,down,0,29.5963,,-0.059301215,-0.081054688,1,0,0,0.5664,0,87,87,164,1,anarchie,images/br_anarchie.png,images/cb_anarchie.png,0,,,,,,,,,,,,,,,,,,,,,,
,,,,,,00108,2023-11-26_18h44.01.023,vbt_B1_day2,2022.2.4,MacIntel,60.0024001,,,,,,,,,,,,,,,,,,,,,,,,,,,down,0,4.7203,,-0.020451389,-0.010733507,1,0,0,0.6026,0,88,88,115,1,kleren,images/br_kleren.png,images/cb_kleren.png,0,,,,,,,,,,,,,,,,,,,,,,
,,,,,,00108,2023-11-26_18h44.01.023,vbt_B1_day2,2022.2.4,MacIntel,60.0024001,,,,,,,,,,,,,,,,,,,,,,,,,,,down,0,8.6562,,0.042421875,-0.001453993,1,0,0,0.4323,0,89,89,82,1,muziek,images/br_muziek.png,images/cb_muziek.png,0,,,,,,,,,,,,,,,,,,,,,,
,,,,,,00108,2023-11-26_18h44.01.023,vbt_B1_day2,2022.2.4,MacIntel,60.0024001,,,,,,,,,,,,,,,,,,,,,,,,,,,down,0,4.5893,,-0.045664062,-0.025863715,1,0,0,0.4497,0,90,90,23,1,zout,images/br_zout.png,images/cb_zout.png,0,,,,,,,,,,,,,,,,,,,,,,
,,,,,,00108,2023-11-26_18h44.01.023,vbt_B1_day2,2022.2.4,MacIntel,60.0024001,,,,,,,,,,,,,,,,,,,,,,,,,,,down,0,5.7197,,0.161957465,-0.006909722,1,0,0,0.4986,0,91,91,170,1,schatten,images/br_schatten.png,images/cb_schatten.png,0,,,,,,,,,,,,,,,,,,,,,,
,,,,,,00108,2023-11-26_18h44.01.023,vbt_B1_day2,2022.2.4,MacIntel,60.0024001,,,,,,,,,,,,,,,,,,,,,,,,,,,down,0,10.0214,,0.08219184,-0.002625868,1,0,0,0.5697,0,92,92,40,1,schep,images/br_schep.png,images/cb_schep.png,0,,,,,,,,,,,,,,,,,,,,,,
,,,,,,00108,2023-11-26_18h44.01.023,vbt_B1_day2,2022.2.4,MacIntel,60.0024001,,,,,,,,,,,,,,,,,,,,,,,,,,,down,0,10.3866,,-0.044440104,-0.011692708,1,0,0,0.4507,0,93,93,185,1,mijnheer,images/br_mijnheer.png,images/cb_mijnheer.png,0,,,,,,,,,,,,,,,,,,,,,,
,,,,,,00108,2023-11-26_18h44.01.023,vbt_B1_day2,2022.2.4,MacIntel,60.0024001,,,,,,,,,,,,,,,,,,,,,,,,,,,down,0,3.9567,,0.017261285,-0.014075521,1,0,0,0.4308,0,94,94,110,1,zuster,images/br_zuster.png,images/cb_zuster.png,0,,,,,,,,,,,,,,,,,,,,,,
,,,,,,00108,2023-11-26_18h44.01.023,vbt_B1_day2,2022.2.4,MacIntel,60.0024001,,,,,,,,,,,,,,,,,,,,,,,,,,,down,0,2.235,,-0.106302083,-0.001579861,1,0,0,0.5188,0,95,95,38,1,baai,images/br_baai.png,images/cb_baai.png,0,,,,,,,,,,,,,,,,,,,,,,
,,,,,,00108,2023-11-26_18h44.01.023,vbt_B1_day2,2022.2.4,MacIntel,60.0024001,,,,,,,,,,,,,,,,,,,,,,,,,,,down,0,4.5931,,0.229709201,-0.024505208,1,0,0,0.5346,0,96,96,16,1,ziek,images/br_ziek.png,images/cb_ziek.png,1,ziek,,,,,,,,,,,,,,,,,,,,,
,,,,,,00108,2023-11-26_18h44.01.023,vbt_B1_day2,2022.2.4,MacIntel,60.0024001,,,,,,,,,,,,,,,,,,,,,,,,,,,down,0,2.8259,,0.007751736,-0.004075521,1,0,0,0.5842,0,97,97,33,1,vlek,images/br_vlek.png,images/cb_vlek.png,0,,,,,,,,,,,,,,,,,,,,,,
,,,,,,00108,2023-11-26_18h44.01.023,vbt_B1_day2,2022.2.4,MacIntel,60.0024001,,,,,,,,,,,,,,,,,,,,,,,,,,,down,0,7.065,,0.176831597,-0.02750434,1,0,0,0.4495,0,98,98,195,1,middelen,images/br_middelen.png,images/cb_middelen.png,0,,,,,,,,,,,,,,,,,,,,,,
,,,,,,00108,2023-11-26_18h44.01.023,vbt_B1_day2,2022.2.4,MacIntel,60.0024001,,,,,,,,,,,,,,,,,,,,,,,,,,,down,0,8.717,,-0.005108507,0.008780382,1,0,0,0.599,0,99,99,94,1,oceaan,images/br_oceaan.png,images/cb_oceaan.png,0,,,,,,,,,,,,,,,,,,,,,,
,,,,,,00108,2023-11-26_18h44.01.023,vbt_B1_day2,2022.2.4,MacIntel,60.0024001,,,,,,,,,,,,,,,,,,,,,,,,,,,down,0,19.3888,,-0.158758681,0.01094184,1,0,0,0.4148,0,100,100,65,1,parel,images/br_parel.png,images/cb_parel.png,0,,,,,,,,,,,,,,,,,,,,,,
,,,,,,00108,2023-11-26_18h44.01.023,vbt_B1_day2,2022.2.4,MacIntel,60.0024001,,,,,,,,,,,,,,,,,,,,,,,,,,,down,0,7.6247,,0.109184028,0.003059896,1,0,0,0.4188,0,101,101,121,1,twijfel,images/br_twijfel.png,images/cb_twijfel.png,0,,,,,,,,,,,,,,,,,,,,,,
,,,,,,00108,2023-11-26_18h44.01.023,vbt_B1_day2,2022.2.4,MacIntel,60.0024001,,,,,,,,,,,,,,,,,,,,,,,,,,,down,0,3.9407,,0.031970486,-0.011423611,1,0,0,0.5029,0,102,102,62,1,knaap,images/br_knaap.png,images/cb_knaap.png,0,,,,,,,,,,,,,,,,,,,,,,
,,,,,,00108,2023-11-26_18h44.01.023,vbt_B1_day2,2022.2.4,MacIntel,60.0024001,,,,,,,,,,,,,,,,,,,,,,,,,,,down,0,7.8181,,0.016371528,0.004444444,1,0,0,4.0177,0,103,103,9,1,hier,images/br_hier.png,images/cb_hier.png,0,,,,,,,,,,,,,,,,,,,,,,
,,,,,,00108,2023-11-26_18h44.01.023,vbt_B1_day2,2022.2.4,MacIntel,60.0024001,,,,,,,,,,,,,,,,,,,,,,,,,,,down,0,29.2134,,-0.131553819,-0.039592014,1,0,0,1.0367,0,104,104,47,1,kabel,images/br_kabel.png,images/cb_kabel.png,0,,,,,,,,,,,,,,,,,,,,,,
,,,,,,00108,2023-11-26_18h44.01.023,vbt_B1_day2,2022.2.4,MacIntel,60.0024001,,,,,,,,,,,,,,,,,,,,,,,,,,,down,0,21.2156,,0.250538194,-0.056184896,1,0,0,0.4836,0,105,105,56,1,traag,images/br_traag.png,images/cb_traag.png,1,traag,,,,,,,,,,,,,,,,,,,,,
,,,,,,00108,2023-11-26_18h44.01.023,vbt_B1_day2,2022.2.4,MacIntel,60.0024001,,,,,,,,,,,,,,,,,,,,,,,,,,,down,0,11.4537,,0.250538194,-0.056184896,1,0,0,0.5353,0,106,106,139,1,stiekem,images/br_stiekem.png,images/cb_stiekem.png,1,stiekemstiekem,,,,,,,,,,,,,,,,,,,,,
,,,,,,00108,2023-11-26_18h44.01.023,vbt_B1_day2,2022.2.4,MacIntel,60.0024001,,,,,,,,,,,,,,,,,,,,,,,,,,,down,0,16.154,,-0.042048611,-0.000538194,1,0,0,0.3819,0,107,107,88,1,boeien,images/br_boeien.png,images/cb_boeien.png,0,,,,,,,,,,,,,,,,,,,,,,
,,,,,,00108,2023-11-26_18h44.01.023,vbt_B1_day2,2022.2.4,MacIntel,60.0024001,,,,,,,,,,,,,,,,,,,,,,,,,,,down,0,3.5263,,0.147795139,0.184887153,1,0,0,1.1012,0,108,108,57,1,steek,images/br_steek.png,images/cb_steek.png,1,steek,,,,,,,,,,,,,,,,,,,,,
,,,,,,00108,2023-11-26_18h44.01.023,vbt_B1_day2,2022.2.4,MacIntel,60.0024001,,,,,,,,,,,,,,,,,,,,,,,,,,,down,0,4.157,,-0.0090625,0.005742187,1,0,0,0.4665,0,109,109,103,1,joggen,images/br_joggen.png,images/cb_joggen.png,0,,,,,,,,,,,,,,,,,,,,,,
,,,,,,00108,2023-11-26_18h44.01.023,vbt_B1_day2,2022.2.4,MacIntel,60.0024001,,,,,,,,,,,,,,,,,,,,,,,,,,,down,0,0.7035,,0.053398437,-0.005928819,1,0,0,0.4669,0,110,110,1,1,zaal,images/br_zaal.png,images/cb_zaal.png,0,,,,,,,,,,,,,,,,,,,,,,
,,,,,,00108,2023-11-26_18h44.01.023,vbt_B1_day2,2022.2.4,MacIntel,60.0024001,,,,,,,,,,,,,,,,,,,,,,,,,,,down,0,6.7029,,0.061293403,0.003663194,1,0,0,0.4155,0,111,111,152,1,afnemen,images/br_afnemen.png,images/cb_afnemen.png,0,,,,,,,,,,,,,,,,,,,,,,
,,,,,,00108,2023-11-26_18h44.01.023,vbt_B1_day2,2022.2.4,MacIntel,60.0024001,,,,,,,,,,,,,,,,,,,,,,,,,,,down,0,10.9349,,-0.009917535,0.006640625,1,0,0,0.4005,0,112,112,44,1,flits,images/br_flits.png,images/cb_flits.png,0,,,,,,,,,,,,,,,,,,,,,,
,,,,,,00108,2023-11-26_18h44.01.023,vbt_B1_day2,2022.2.4,MacIntel,60.0024001,,,,,,,,,,,,,,,,,,,,,,,,,,,down,0,3.972,,0.035190972,-0.005638021,1,0,0,0.434,0,113,113,140,1,blijven,images/br_blijven.png,images/cb_blijven.png,0,,,,,,,,,,,,,,,,,,,,,,
,,,,,,00108,2023-11-26_18h44.01.023,vbt_B1_day2,2022.2.4,MacIntel,60.0024001,,,,,,,,,,,,,,,,,,,,,,,,,,,down,0,9.8448,,0.018819444,-0.002443576,1,0,0,0.4833,0,114,114,131,1,opzicht,images/br_opzicht.png,images/cb_opzicht.png,0,,,,,,,,,,,,,,,,,,,,,,
,,,,,,00108,2023-11-26_18h44.01.023,vbt_B1_day2,2022.2.4,MacIntel,60.0024001,,,,,,,,,,,,,,,,,,,,,,,,,,,down,0,10.3041,,0.014622396,-0.018893229,1,0,0,0.4013,0,115,115,26,1,leuk,images/br_leuk.png,images/cb_leuk.png,0,,,,,,,,,,,,,,,,,,,,,,
,,,,,,00108,2023-11-26_18h44.01.023,vbt_B1_day2,2022.2.4,MacIntel,60.0024001,,,,,,,,,,,,,,,,,,,,,,,,,,,down,0,12.4903,,0.058146701,-0.009383681,1,0,0,0.5158,0,116,116,192,1,schaamte,images/br_schaamte.png,images/cb_schaamte.png,0,,,,,,,,,,,,,,,,,,,,,,
,,,,,,00108,2023-11-26_18h44.01.023,vbt_B1_day2,2022.2.4,MacIntel,60.0024001,,,,,,,,,,,,,,,,,,,,,,,,,,,down,0,6.8766,,-0.021922743,0.00312934,1,0,0,0.4835,0,117,117,102,1,legaal,images/br_legaal.png,images/cb_legaal.png,0,,,,,,,,,,,,,,,,,,,,,,
,,,,,,00108,2023-11-26_18h44.01.023,vbt_B1_day2,2022.2.4,MacIntel,60.0024001,,,,,,,,,,,,,,,,,,,,,,,,,,,down,0,3.17,,0.039817708,0.004244792,1,0,0,0.6176,0,118,118,141,1,knielen,images/br_knielen.png,images/cb_knielen.png,0,,,,,,,,,,,,,,,,,,,,,,
,,,,,,00108,2023-11-26_18h44.01.023,vbt_B1_day2,2022.2.4,MacIntel,60.0024001,,,,,,,,,,,,,,,,,,,,,,,,,,,down,0,13.239,,0.009262153,-0.008472222,1,0,0,0.4499,0,119,119,130,1,keihard,images/br_keihard.png,images/cb_keihard.png,0,,,,,,,,,,,,,,,,,,,,,,
,,,,,,00108,2023-11-26_18h44.01.023,vbt_B1_day2,2022.2.4,MacIntel,60.0024001,,,,,,,,,,,,,,,,,,,,,,,,,,,down,0,7.6309,,0.131740451,0.009618056,1,0,0,0.4202,0,120,120,174,1,stemming,images/br_stemming.png,images/cb_stemming.png,0,,,,,,,,,,,,,,,,,,,,,,
,,,,,,00108,2023-11-26_18h44.01.023,vbt_B1_day2,2022.2.4,MacIntel,60.0024001,,,,,,,,,,,,,,,,,,,,,,,,,,,down,0,17.4095,,0.086423611,-0.016506076,1,0,0,0.4174,0,121,121,63,1,flirt,images/br_flirt.png,images/cb_flirt.png,0,,,,,,,,,,,,,,,,,,,,,,
,,,,,,00108,2023-11-26_18h44.01.023,vbt_B1_day2,2022.2.4,MacIntel,60.0024001,,,,,,,,,,,,,,,,,,,,,,,,,,,down,0,97.0945,,-0.117955729,-0.037586806,1,0,0,0.4984,0,122,122,80,1,kanjer,images/br_kanjer.png,images/cb_kanjer.png,0,,,,,,,,,,,,,,,,,,,,,,
,,,,,,00108,2023-11-26_18h44.01.023,vbt_B1_day2,2022.2.4,MacIntel,60.0024001,,,,,,,,,,,,,,,,,,,,,,,,,,,down,0,6.5043,,-0.117955729,-0.037586806,1,0,0,0.4502,0,123,123,32,1,palm,images/br_palm.png,images/cb_palm.png,0,,,,,,,,,,,,,,,,,,,,,,
,,,,,,00108,2023-11-26_18h44.01.023,vbt_B1_day2,2022.2.4,MacIntel,60.0024001,,,,,,,,,,,,,,,,,,,,,,,,,,,down,0,0.0765,,0.133402778,-0.020711806,1,0,0,0.45,0,124,124,39,1,laag,images/br_laag.png,images/cb_laag.png,0,,,,,,,,,,,,,,,,,,,,,,
,,,,,,00108,2023-11-26_18h44.01.023,vbt_B1_day2,2022.2.4,MacIntel,60.0024001,,,,,,,,,,,,,,,,,,,,,,,,,,,down,0,13.5277,,0.039197049,-0.011536458,1,0,0,0.4659,0,125,125,158,1,innemen,images/br_innemen.png,images/cb_innemen.png,0,,,,,,,,,,,,,,,,,,,,,,
,,,,,,00108,2023-11-26_18h44.01.023,vbt_B1_day2,2022.2.4,MacIntel,60.0024001,,,,,,,,,,,,,,,,,,,,,,,,,,,down,0,2.7057,,0.02546441,-0.016280382,1,0,0,0.55,0,126,126,31,1,poes,images/br_poes.png,images/cb_poes.png,0,,,,,,,,,,,,,,,,,,,,,,
,,,,,,00108,2023-11-26_18h44.01.023,vbt_B1_day2,2022.2.4,MacIntel,60.0024001,,,,,,,,,,,,,,,,,,,,,,,,,,,down,0,3.217,,0.205729167,-0.015164931,1,0,0,0.4871,0,127,127,86,1,woning,images/br_woning.png,images/cb_woning.png,0,,,,,,,,,,,,,,,,,,,,,,
,,,,,,00108,2023-11-26_18h44.01.023,vbt_B1_day2,2022.2.4,MacIntel,60.0024001,,,,,,,,,,,,,,,,,,,,,,,,,,,down,0,24.0947,,0.093151042,-0.01875,1,0,0,0.5018,0,128,128,111,1,ticket,images/br_ticket.png,images/cb_ticket.png,0,,,,,,,,,,,,,,,,,,,,,,
,,,,,,00108,2023-11-26_18h44.01.023,vbt_B1_day2,2022.2.4,MacIntel,60.0024001,,,,,,,,,,,,,,,,,,,,,,,,,,,down,0,16.7743,,0.039340278,0.013741319,1,0,0,0.5177,0,129,129,8,1,knie,images/br_knie.png,images/cb_knie.png,0,,,,,,,,,,,,,,,,,,,,,,
,,,,,,00108,2023-11-26_18h44.01.023,vbt_B1_day2,2022.2.4,MacIntel,60.0024001,,,,,,,,,,,,,,,,,,,,,,,,,,,down,0,3.852,,0.209522569,0.082990451,1,0,0,0.9041,0,130,130,58,1,tekst,images/br_tekst.png,images/cb_tekst.png,1,tekst,,,,,,,,,,,,,,,,,,,,,
,,,,,,00108,2023-11-26_18h44.01.023,vbt_B1_day2,2022.2.4,MacIntel,60.0024001,,,,,,,,,,,,,,,,,,,,,,,,,,,down,0,5.5247,,0.059079861,-0.013927951,1,0,0,0.4347,0,131,131,77,1,woede,images/br_woede.png,images/cb_woede.png,0,,,,,,,,,,,,,,,,,,,,,,
,,,,,,00108,2023-11-26_18h44.01.023,vbt_B1_day2,2022.2.4,MacIntel,60.0024001,,,,,,,,,,,,,,,,,,,,,,,,,,,down,0,6.1837,,0.199748264,-0.03109375,1,0,0,0.4677,0,132,132,137,1,trekker,images/br_trekker.png,images/cb_trekker.png,1,trekker,,,,,,,,,,,,,,,,,,,,,
,,,,,,00108,2023-11-26_18h44.01.023,vbt_B1_day2,2022.2.4,MacIntel,60.0024001,,,,,,,,,,,,,,,,,,,,,,,,,,,down,0,2.9163,,0.310572917,-0.012469618,1,0,0,1.1016,0,133,133,18,1,blik,images/br_blik.png,images/cb_blik.png,1,blik,,,,,,,,,,,,,,,,,,,,,
,,,,,,00108,2023-11-26_18h44.01.023,vbt_B1_day2,2022.2.4,MacIntel,60.0024001,,,,,,,,,,,,,,,,,,,,,,,,,,,down,0,7.7453,,0.153806424,0.004149306,1,0,0,0.6666,0,134,134,25,1,plek,images/br_plek.png,images/cb_plek.png,0,,,,,,,,,,,,,,,,,,,,,,
,,,,,,00108,2023-11-26_18h44.01.023,vbt_B1_day2,2022.2.4,MacIntel,60.0024001,,,,,,,,,,,,,,,,,,,,,,,,,,,down,0,5.409,,0.048832465,-0.009639757,1,0,0,0.4177,0,135,135,157,1,uitlaat,images/br_uitlaat.png,images/cb_uitlaat.png,0,,,,,,,,,,,,,,,,,,,,,,
,,,,,,00108,2023-11-26_18h44.01.023,vbt_B1_day2,2022.2.4,MacIntel,60.0024001,,,,,,,,,,,,,,,,,,,,,,,,,,,down,0,15.6401,,0.022491319,-0.011788194,1,0,0,0.4002,0,136,136,123,1,hiervan,images/br_hiervan.png,images/cb_hiervan.png,0,,,,,,,,,,,,,,,,,,,,,,
,,,,,,00108,2023-11-26_18h44.01.023,vbt_B1_day2,2022.2.4,MacIntel,60.0024001,,,,,,,,,,,,,,,,,,,,,,,,,,,down,0,15.1536,,0.207782118,-0.039032118,1,0,0,0.601,0,137,137,135,1,gedicht,images/br_gedicht.png,images/cb_gedicht.png,0,,,,,,,,,,,,,,,,,,,,,,
,,,,,,00108,2023-11-26_18h44.01.023,vbt_B1_day2,2022.2.4,MacIntel,60.0024001,,,,,,,,,,,,,,,,,,,,,,,,,,,down,0,27.2011,,0.115195312,-0.024791667,1,0,0,0.5343,0,138,138,93,1,waarop,images/br_waarop.png,images/cb_waarop.png,0,,,,,,,,,,,,,,,,,,,,,,
,,,,,,00108,2023-11-26_18h44.01.023,vbt_B1_day2,2022.2.4,MacIntel,60.0024001,,,,,,,,,,,,,,,,,,,,,,,,,,,down,0,20.3538,,0.041931424,-0.005902778,1,0,0,0.3823,0,139,139,124,1,bloeien,images/br_bloeien.png,images/cb_bloeien.png,0,,,,,,,,,,,,,,,,,,,,,,
,,,,,,00108,2023-11-26_18h44.01.023,vbt_B1_day2,2022.2.4,MacIntel,60.0024001,,,,,,,,,,,,,,,,,,,,,,,,,,,down,0,5.7672,,0.064913194,0.056380208,1,0,0,0.5667,0,140,140,74,1,graaf,images/br_graaf.png,images/cb_graaf.png,0,,,,,,,,,,,,,,,,,,,,,,
,,,,,,00108,2023-11-26_18h44.01.023,vbt_B1_day2,2022.2.4,MacIntel,60.0024001,,,,,,,,,,,,,,,,,,,,,,,,,,,down,0,13.9593,,0.118980035,-0.039921875,1,0,0,0.5186,0,141,141,159,1,sufferd,images/br_sufferd.png,images/cb_sufferd.png,0,,,,,,,,,,,,,,,,,,,,,,
,,,,,,00108,2023-11-26_18h44.01.023,vbt_B1_day2,2022.2.4,MacIntel,60.0024001,,,,,,,,,,,,,,,,,,,,,,,,,,,down,0,9.2022,,0.085729167,-0.01969184,1,0,0,0.4532,0,142,142,151,1,aanzoek,images/br_aanzoek.png,images/cb_aanzoek.png,0,,,,,,,,,,,,,,,,,,,,,,
,,,,,,00108,2023-11-26_18h44.01.023,vbt_B1_day2,2022.2.4,MacIntel,60.0024001,,,,,,,,,,,,,,,,,,,,,,,,,,,down,0,9.566,,0.082243924,-0.033736979,1,0,0,0.5814,0,143,143,29,1,baas,images/br_baas.png,images/cb_baas.png,0,,,,,,,,,,,,,,,,,,,,,,
,,,,,,00108,2023-11-26_18h44.01.023,vbt_B1_day2,2022.2.4,MacIntel,60.0024001,,,,,,,,,,,,,,,,,,,,,,,,,,,down,0,4.3839,,0.297092014,-0.077929687,1,0,0,0.4963,0,144,144,128,1,prikken,images/br_prikken.png,images/cb_prikken.png,0,,,,,,,,,,,,,,,,,,,,,,
,,,,,,00108,2023-11-26_18h44.01.023,vbt_B1_day2,2022.2.4,MacIntel,60.0024001,,,,,,,,,,,,,,,,,,,,,,,,,,,down,0,5.6755,,0.220238715,-0.008476562,1,0,0,0.3996,0,145,145,189,1,aanraden,images/br_aanraden.png,images/cb_aanraden.png,0,,,,,,,,,,,,,,,,,,,,,,
,,,,,,00108,2023-11-26_18h44.01.023,vbt_B1_day2,2022.2.4,MacIntel,60.0024001,,,,,,,,,,,,,,,,,,,,,,,,,,,down,0,16.7051,,0.130286458,-0.03359809,1,0,0,0.4006,0,146,146,108,1,excuus,images/br_excuus.png,images/cb_excuus.png,0,,,,,,,,,,,,,,,,,,,,,,
,,,,,,00108,2023-11-26_18h44.01.023,vbt_B1_day2,2022.2.4,MacIntel,60.0024001,,,,,,,,,,,,,,,,,,,,,,,,,,,down,0,9.1174,,0.180481771,0.110008681,1,0,0,0.3842,0,147,147,148,1,smullen,images/br_smullen.png,images/cb_smullen.png,0,,,,,,,,,,,,,,,,,,,,,,
,,,,,,00108,2023-11-26_18h44.01.023,vbt_B1_day2,2022.2.4,MacIntel,60.0024001,,,,,,,,,,,,,,,,,,,,,,,,,,,down,0,5.9652,,0.180481771,0.110008681,1,0,0,0.4835,0,148,148,50,1,stoom,images/br_stoom.png,images/cb_stoom.png,0,,,,,,,,,,,,,,,,,,,,,,
,,,,,,00108,2023-11-26_18h44.01.023,vbt_B1_day2,2022.2.4,MacIntel,60.0024001,,,,,,,,,,,,,,,,,,,,,,,,,,,down,0,7.5376,,-0.069587674,-0.001679687,1,0,0,0.3498,0,149,149,150,1,gegeven,images/br_gegeven.png,images/cb_gegeven.png,0,,,,,,,,,,,,,,,,,,,,,,
,,,,,,00108,2023-11-26_18h44.01.023,vbt_B1_day2,2022.2.4,MacIntel,60.0024001,,,,,,,,,,,,,,,,,,,,,,,,,,,down,0,4.5696,,0.060290799,0.070638021,1,0,0,0.4668,0,150,150,14,1,rijp,images/br_rijp.png,images/cb_rijp.png,0,,,,,,,,,,,,,,,,,,,,,,
,,,,,,00108,2023-11-26_18h44.01.023,vbt_B1_day2,2022.2.4,MacIntel,60.0024001,,,,,,,,,,,,,,,,,,,,,,,,,,,down,0,15.9191,,-0.050850694,-0.028710937,1,0,0,0.3829,0,151,151,163,1,schuilen,images/br_schuilen.png,images/cb_schuilen.png,0,,,,,,,,,,,,,,,,,,,,,,
,,,,,,00108,2023-11-26_18h44.01.023,vbt_B1_day2,2022.2.4,MacIntel,60.0024001,,,,,,,,,,,,,,,,,,,,,,,,,,,down,0,2.6958,,0.100954861,0.042152778,1,0,0,1.1663,0,152,152,96,1,slagen,images/br_slagen.png,images/cb_slagen.png,1,slagen,,,,,,,,,,,,,,,,,,,,,
,,,,,,00108,2023-11-26_18h44.01.023,vbt_B1_day2,2022.2.4,MacIntel,60.0024001,,,,,,,,,,,,,,,,,,,,,,,,,,,down,0,8.3884,,0.017317708,-0.008667535,1,0,0,0.4528,0,153,153,55,1,praat,images/br_praat.png,images/cb_praat.png,0,,,,,,,,,,,,,,,,,,,,,,
,,,,,,00108,2023-11-26_18h44.01.023,vbt_B1_day2,2022.2.4,MacIntel,60.0024001,,,,,,,,,,,,,,,,,,,,,,,,,,,down,0,10.2387,,0.100065104,0.003181424,1,0,0,0.4029,0,154,154,191,1,opheffen,images/br_opheffen.png,images/cb_opheffen.png,0,,,,,,,,,,,,,,,,,,,,,,
,,,,,,00108,2023-11-26_18h44.01.023,vbt_B1_day2,2022.2.4,MacIntel,60.0024001,,,,,,,,,,,,,,,,,,,,,,,,,,,down,0,7.5854,,0.094674479,-0.004266493,1,0,0,0.4514,0,155,155,165,1,feestdag,images/br_feestdag.png,images/cb_feestdag.png,0,,,,,,,,,,,,,,,,,,,,,,
,,,,,,00108,2023-11-26_18h44.01.023,vbt_B1_day2,2022.2.4,MacIntel,60.0024001,,,,,,,,,,,,,,,,,,,,,,,,,,,down,0,125.6607,,0.060507813,-0.026467014,1,0,0,0.4334,0,156,156,83,1,mening,images/br_mening.png,images/cb_mening.png,0,,,,,,,,,,,,,,,,,,,,,,
,,,,,,00108,2023-11-26_18h44.01.023,vbt_B1_day2,2022.2.4,MacIntel,60.0024001,,,,,,,,,,,,,,,,,,,,,,,,,,,down,0,5.8681,,0.25219184,0.034205729,1,0,0,0.8501,0,157,157,99,1,koffie,images/br_koffie.png,images/cb_koffie.png,1,koffie,,,,,,,,,,,,,,,,,,,,,
,,,,,,00108,2023-11-26_18h44.01.023,vbt_B1_day2,2022.2.4,MacIntel,60.0024001,,,,,,,,,,,,,,,,,,,,,,,,,,,down,0,3.651,,0.050902778,-0.019908854,1,0,0,0.452,0,158,158,105,1,wijlen,images/br_wijlen.png,images/cb_wijlen.png,0,,,,,,,,,,,,,,,,,,,,,,
,,,,,,00108,2023-11-26_18h44.01.023,vbt_B1_day2,2022.2.4,MacIntel,60.0024001,,,,,,,,,,,,,,,,,,,,,,,,,,,down,0,14.3781,,0.050902778,-0.019908854,1,0,0,0.5002,0,159,159,119,1,liefje,images/br_liefje.png,images/cb_liefje.png,0,,,,,,,,,,,,,,,,,,,,,,
,,,,,,00108,2023-11-26_18h44.01.023,vbt_B1_day2,2022.2.4,MacIntel,60.0024001,,,,,,,,,,,,,,,,,,,,,,,,,,,down,0,11.2264,,0.050902778,-0.019908854,1,0,0,0.4826,0,160,160,155,1,gerucht,images/br_gerucht.png,images/cb_gerucht.png,0,,,,,,,,,,,,,,,,,,,,,,
,,,,,,00108,2023-11-26_18h44.01.023,vbt_B1_day2,2022.2.4,MacIntel,60.0024001,,,,,,,,,,,,,,,,,,,,,,,,,,,down,0,7.0835,,0.003763021,-0.041979167,1,0,0,0.7696,0,161,161,125,1,aanzien,images/br_aanzien.png,images/cb_aanzien.png,0,,,,,,,,,,,,,,,,,,,,,,
,,,,,,00108,2023-11-26_18h44.01.023,vbt_B1_day2,2022.2.4,MacIntel,60.0024001,,,,,,,,,,,,,,,,,,,,,,,,,,,down,0,0.6991,,0.003763021,-0.041979167,1,0,0,0.5666,0,162,162,0,1,slak,images/br_slak.png,images/cb_slak.png,0,,,,,,,,,,,,,,,,,,,,,,
,,,,,,00108,2023-11-26_18h44.01.023,vbt_B1_day2,2022.2.4,MacIntel,60.0024001,,,,,,,,,,,,,,,,,,,,,,,,,,,down,0,7.1435,,0.003763021,-0.044448785,1,0,0,0.45,0,163,163,98,1,kreeft,images/br_kreeft.png,images/cb_kreeft.png,1,kreeft,,,,,,,,,,,,,,,,,,,,,
,,,,,,00108,2023-11-26_18h44.01.023,vbt_B1_day2,2022.2.4,MacIntel,60.0024001,,,,,,,,,,,,,,,,,,,,,,,,,,,down,0,8.4794,,0.119257813,-0.010269097,1,0,0,0.5321,0,164,164,156,1,rechten,images/br_rechten.png,images/cb_rechten.png,0,,,,,,,,,,,,,,,,,,,,,,
,,,,,,00108,2023-11-26_18h44.01.023,vbt_B1_day2,2022.2.4,MacIntel,60.0024001,,,,,,,,,,,,,,,,,,,,,,,,,,,down,0,20.9826,,-0.011688368,-0.018224826,1,0,0,0.4344,0,165,165,69,1,waken,images/br_waken.png,images/cb_waken.png,0,,,,,,,,,,,,,,,,,,,,,,
,,,,,,00108,2023-11-26_18h44.01.023,vbt_B1_day2,2022.2.4,MacIntel,60.0024001,,,,,,,,,,,,,,,,,,,,,,,,,,,down,0,9.4731,,0.072738715,-0.022434896,1,0,0,0.4319,0,166,166,129,1,verhaal,images/br_verhaal.png,images/cb_verhaal.png,0,,,,,,,,,,,,,,,,,,,,,,
,,,,,,00108,2023-11-26_18h44.01.023,vbt_B1_day2,2022.2.4,MacIntel,60.0024001,,,,,,,,,,,,,,,,,,,,,,,,,,,down,0,5.2527,,0.134943576,-0.04375,1,0,0,0.4365,0,167,167,76,1,afval,images/br_afval.png,images/cb_afval.png,0,,,,,,,,,,,,,,,,,,,,,,
,,,,,,00108,2023-11-26_18h44.01.023,vbt_B1_day2,2022.2.4,MacIntel,60.0024001,,,,,,,,,,,,,,,,,,,,,,,,,,,down,0,17.1065,,0.083602431,0.003211806,1,0,0,0.5164,0,168,168,79,1,nodig,images/br_nodig.png,images/cb_nodig.png,0,,,,,,,,,,,,,,,,,,,,,,
,,,,,,00108,2023-11-26_18h44.01.023,vbt_B1_day2,2022.2.4,MacIntel,60.0024001,,,,,,,,,,,,,,,,,,,,,,,,,,,down,0,3.8396,,0.083602431,0.003211806,1,0,0,0.5644,0,169,169,149,1,redding,images/br_redding.png,images/cb_redding.png,0,,,,,,,,,,,,,,,,,,,,,,
,,,,,,00108,2023-11-26_18h44.01.023,vbt_B1_day2,2022.2.4,MacIntel,60.0024001,,,,,,,,,,,,,,,,,,,,,,,,,,,down,0,3.051,,0.187317708,-0.012921007,1,0,0,0.4201,0,170,170,122,1,waarvan,images/br_waarvan.png,images/cb_waarvan.png,0,,,,,,,,,,,,,,,,,,,,,,
,,,,,,00108,2023-11-26_18h44.01.023,vbt_B1_day2,2022.2.4,MacIntel,60.0024001,,,,,,,,,,,,,,,,,,,,,,,,,,,down,0,7.0245,,0.023676215,-0.020959201,1,0,0,0.4635,0,171,171,49,1,laken,images/br_laken.png,images/cb_laken.png,0,,,,,,,,,,,,,,,,,,,,,,
,,,,,,00108,2023-11-26_18h44.01.023,vbt_B1_day2,2022.2.4,MacIntel,60.0024001,,,,,,,,,,,,,,,,,,,,,,,,,,,down,0,3.3511,,0.040299479,-0.000585937,1,0,0,0.502,0,172,172,36,1,vuur,images/br_vuur.png,images/cb_vuur.png,0,,,,,,,,,,,,,,,,,,,,,,
,,,,,,00108,2023-11-26_18h44.01.023,vbt_B1_day2,2022.2.4,MacIntel,60.0024001,,,,,,,,,,,,,,,,,,,,,,,,,,,down,0,6.9208,,0.264244792,0.007894965,1,0,0,0.4697,0,173,173,184,1,aandelen,images/br_aandelen.png,images/cb_aandelen.png,0,,,,,,,,,,,,,,,,,,,,,,
,,,,,,00108,2023-11-26_18h44.01.023,vbt_B1_day2,2022.2.4,MacIntel,60.0024001,,,,,,,,,,,,,,,,,,,,,,,,,,,down,0,6.3455,,0.102643229,-0.014283854,1,0,0,0.4177,0,174,174,100,1,geduld,images/br_geduld.png,images/cb_geduld.png,0,,,,,,,,,,,,,,,,,,,,,,
,,,,,,00108,2023-11-26_18h44.01.023,vbt_B1_day2,2022.2.4,MacIntel,60.0024001,,,,,,,,,,,,,,,,,,,,,,,,,,,down,0,7.8869,,0.138463542,0.006896701,1,0,0,2.7474,0,175,175,6,1,diep,images/br_diep.png,images/cb_diep.png,0,,,,,,,,,,,,,,,,,,,,,,
,,,,,,00108,2023-11-26_18h44.01.023,vbt_B1_day2,2022.2.4,MacIntel,60.0024001,,,,,,,,,,,,,,,,,,,,,,,,,,,down,0,5.0693,,0.140681424,-0.003315972,1,0,0,0.465,0,176,176,166,1,strikken,images/br_strikken.png,images/cb_strikken.png,0,,,,,,,,,,,,,,,,,,,,,,
,,,,,,00108,2023-11-26_18h44.01.023,vbt_B1_day2,2022.2.4,MacIntel,60.0024001,,,,,,,,,,,,,,,,,,,,,,,,,,,down,0,5.7707,,-0.072139757,-0.012486979,1,0,0,0.5868,0,177,177,118,1,vinger,images/br_vinger.png,images/cb_vinger.png,0,,,,,,,,,,,,,,,,,,,,,,
,,,,,,00108,2023-11-26_18h44.01.023,vbt_B1_day2,2022.2.4,MacIntel,60.0024001,,,,,,,,,,,,,,,,,,,,,,,,,,,down,0,3.4039,,-0.072139757,-0.012486979,1,0,0,0.4648,0,178,178,21,1,mist,images/br_mist.png,images/cb_mist.png,0,,,,,,,,,,,,,,,,,,,,,,
,,,,,,00108,2023-11-26_18h44.01.023,vbt_B1_day2,2022.2.4,MacIntel,60.0024001,,,,,,,,,,,,,,,,,,,,,,,,,,,down,0,3.5561,,-0.072139757,-0.012486979,1,0,0,0.467,0,179,179,54,1,gebit,images/br_gebit.png,images/cb_gebit.png,0,,,,,,,,,,,,,,,,,,,,,,
,,,,,,00108,2023-11-26_18h44.01.023,vbt_B1_day2,2022.2.4,MacIntel,60.0024001,,,,,,,,,,,,,,,,,,,,,,,,,,,down,0,3.4146,,-0.072139757,-0.012486979,1,0,0,0.3804,0,180,180,24,1,jurk,images/br_jurk.png,images/cb_jurk.png,0,,,,,,,,,,,,,,,,,,,,,,
,,,,,,00108,2023-11-26_18h44.01.023,vbt_B1_day2,2022.2.4,MacIntel,60.0024001,,,,,,,,,,,,,,,,,,,,,,,,,,,down,0,4.3046,,0.03968316,-0.018138021,1,0,0,0.4134,0,181,181,85,1,heilig,images/br_heilig.png,images/cb_heilig.png,0,,,,,,,,,,,,,,,,,,,,,,
,,,,,,00108,2023-11-26_18h44.01.023,vbt_B1_day2,2022.2.4,MacIntel,60.0024001,,,,,,,,,,,,,,,,,,,,,,,,,,,down,0,3.2267,,0.03968316,-0.018138021,1,0,0,0.4839,0,182,182,20,1,site,images/br_site.png,images/cb_site.png,0,,,,,,,,,,,,,,,,,,,,,,
,,,,,,00108,2023-11-26_18h44.01.023,vbt_B1_day2,2022.2.4,MacIntel,60.0024001,,,,,,,,,,,,,,,,,,,,,,,,,,,down,0,9.0772,,0.27671875,-0.052413194,1,0,0,0.7806,0,183,183,197,1,spanning,images/br_spanning.png,images/cb_spanning.png,0,,,,,,,,,,,,,,,,,,,,,,
,,,,,,00108,2023-11-26_18h44.01.023,vbt_B1_day2,2022.2.4,MacIntel,60.0024001,,,,,,,,,,,,,,,,,,,,,,,,,,,down,0,2.4943,,0.064023438,-0.035286458,1,0,0,0.6638,0,184,184,112,1,lukken,images/br_lukken.png,images/cb_lukken.png,0,,,,,,,,,,,,,,,,,,,,,,
,,,,,,00108,2023-11-26_18h44.01.023,vbt_B1_day2,2022.2.4,MacIntel,60.0024001,,,,,,,,,,,,,,,,,,,,,,,,,,,down,0,13.9813,,0.120407986,-0.036132813,1,0,0,0.4479,0,185,185,52,1,wagon,images/br_wagon.png,images/cb_wagon.png,0,,,,,,,,,,,,,,,,,,,,,,
,,,,,,00108,2023-11-26_18h44.01.023,vbt_B1_day2,2022.2.4,MacIntel,60.0024001,,,,,,,,,,,,,,,,,,,,,,,,,,,down,0,67.7775,,-0.054231771,-0.012803819,1,0,0,0.4513,0,186,186,182,1,bijkomen,images/br_bijkomen.png,images/cb_bijkomen.png,0,,,,,,,,,,,,,,,,,,,,,,
,,,,,,00108,2023-11-26_18h44.01.023,vbt_B1_day2,2022.2.4,MacIntel,60.0024001,,,,,,,,,,,,,,,,,,,,,,,,,,,down,0,7.5682,,0.107278646,-0.022374132,1,0,0,0.4851,0,187,187,153,1,vervoer,images/br_vervoer.png,images/cb_vervoer.png,0,,,,,,,,,,,,,,,,,,,,,,
,,,,,,00108,2023-11-26_18h44.01.023,vbt_B1_day2,2022.2.4,MacIntel,60.0024001,,,,,,,,,,,,,,,,,,,,,,,,,,,down,0,7.5606,,-0.000551215,-0.014652778,1,0,0,0.4865,0,188,188,60,1,jasje,images/br_jasje.png,images/cb_jasje.png,0,,,,,,,,,,,,,,,,,,,,,,
,,,,,,00108,2023-11-26_18h44.01.023,vbt_B1_day2,2022.2.4,MacIntel,60.0024001,,,,,,,,,,,,,,,,,,,,,,,,,,,down,0,9.3566,,0.264440104,0.086644965,1,0,0,1.297,0,189,189,179,1,woestijn,images/br_woestijn.png,images/cb_woestijn.png,1,woestijn,,,,,,,,,,,,,,,,,,,,,
,,,,,,00108,2023-11-26_18h44.01.023,vbt_B1_day2,2022.2.4,MacIntel,60.0024001,,,,,,,,,,,,,,,,,,,,,,,,,,,down,0,8.3699,,-0.083953993,-0.017052951,1,0,0,0.5352,0,190,190,120,1,klimmen,images/br_klimmen.png,images/cb_klimmen.png,0,,,,,,,,,,,,,,,,,,,,,,
,,,,,,00108,2023-11-26_18h44.01.023,vbt_B1_day2,2022.2.4,MacIntel,60.0024001,,,,,,,,,,,,,,,,,,,,,,,,,,,down,0,188.1964,,0.055164931,-0.023988715,1,0,0,0.4836,0,191,191,41,1,maken,images/br_maken.png,images/cb_maken.png,0,,,,,,,,,,,,,,,,,,,,,,
,,,,,,00108,2023-11-26_18h44.01.023,vbt_B1_day2,2022.2.4,MacIntel,60.0024001,,,,,,,,,,,,,,,,,,,,,,,,,,,down,0,13.0961,,0.046783854,-0.012335069,1,0,0,0.4857,0,192,192,92,1,geheim,images/br_geheim.png,images/cb_geheim.png,0,,,,,,,,,,,,,,,,,,,,,,
,,,,,,00108,2023-11-26_18h44.01.023,vbt_B1_day2,2022.2.4,MacIntel,60.0024001,,,,,,,,,,,,,,,,,,,,,,,,,,,down,0,4.3349,,0.038242187,-0.007738715,1,0,0,0.3824,0,193,193,11,1,mode,images/br_mode.png,images/cb_mode.png,0,,,,,,,,,,,,,,,,,,,,,,
,,,,,,00108,2023-11-26_18h44.01.023,vbt_B1_day2,2022.2.4,MacIntel,60.0024001,,,,,,,,,,,,,,,,,,,,,,,,,,,down,0,7.2705,,-0.045143229,-0.02406684,1,0,0,0.4985,0,194,194,22,1,stof,images/br_stof.png,images/cb_stof.png,0,,,,,,,,,,,,,,,,,,,,,,
,,,,,,00108,2023-11-26_18h44.01.023,vbt_B1_day2,2022.2.4,MacIntel,60.0024001,,,,,,,,,,,,,,,,,,,,,,,,,,,down,0,16.3192,,0.110321181,0.04500434,1,0,0,0.919,0,195,195,176,1,techniek,images/br_techniek.png,images/cb_techniek.png,1,techniek,,,,,,,,,,,,,,,,,,,,,
,,,,,,00108,2023-11-26_18h44.01.023,vbt_B1_day2,2022.2.4,MacIntel,60.0024001,,,,,,,,,,,,,,,,,,,,,,,,,,,down,0,2.7012,,0.031688368,-0.041419271,1,0,0,0.3839,0,196,196,101,1,staren,images/br_staren.png,images/cb_staren.png,0,,,,,,,,,,,,,,,,,,,,,,
,,,,,,00108,2023-11-26_18h44.01.023,vbt_B1_day2,2022.2.4,MacIntel,60.0024001,,,,,,,,,,,,,,,,,,,,,,,,,,,down,0,7.0087,,0.031132812,-0.043085937,1,0,0,0.4349,0,197,197,19,1,geit,images/br_geit.png,images/cb_geit.png,1,geit,,,,,,,,,,,,,,,,,,,,,
,,,,,,00108,2023-11-26_18h44.01.023,vbt_B1_day2,2022.2.4,MacIntel,60.0024001,,,,,,,,,,,,,,,,,,,,,,,,,,,down,0,10.0799,,0.077977431,-0.035412326,1,0,0,0.4508,0,198,198,67,1,zwart,images/br_zwart.png,images/cb_zwart.png,0,,,,,,,,,,,,,,,,,,,,,,
,,,,,,00108,2023-11-26_18h44.01.023,vbt_B1_day2,2022.2.4,MacIntel,60.0024001,,,,,,,,,,,,,,,,,,,,,,,,,,,down,0,4.7102,,0.198155382,-0.022434896,1,0,0,0.3999,0,199,199,186,1,voorraad,images/br_voorraad.png,images/cb_voorraad.png,0,,,,,,,,,,,,,,,,,,,,,,
,,,,,,00108,2023-11-26_18h44.01.023,vbt_B1_day2,2022.2.4,MacIntel,60.0024001,,,,,,,,,,,,,,,,,,,,,,,,,,,,,,,,,,,,,,,,,,,,,,,0.065863715,-0.063328993,1,0,0,,,,,,,,,,,,,,,,
,,,,,,00108,2023-11-26_18h44.01.023,vbt_B1_day2,2022.2.4,MacIntel,60.0024001,,,,,,,,,,,,,,,,,,,,,,,,,,,,,,,,,,,,,,,,,,,,,,,,,,,,-0.05171441,-0.217517361,1,0,0,,,,,,,,,,,
,,,,,,00108,2023-11-26_18h44.01.023,vbt_B1_day2,2022.2.4,MacIntel,60.0024001,,,,,,,,,,,,,,,,,,,,,,,,,,,,,,,,,,,,,,,,,,tweeling,images/br_tweeling.png,images/cb_tweeling.png,,tweele...,,,,,,,,,,,0.075056424,0.136054687,1,0,0,tweele...,0,0,0,58,1
,,,,,,00108,2023-11-26_18h44.01.023,vbt_B1_day2,2022.2.4,MacIntel,60.0024001,,,,,,,,,,,,,,,,,,,,,,,,,,,,,,,,,,,,,,,,,,kasteel,images/br_kasteel.png,images/cb_kasteel.png,,kasteel,,,,,,,,,,,0.131931424,0.067170139,1,0,0,kasteel,0,1,1,14,1
,,,,,,00108,2023-11-26_18h44.01.023,vbt_B1_day2,2022.2.4,MacIntel,60.0024001,,,,,,,,,,,,,,,,,,,,,,,,,,,,,,,,,,,,,,,,,,agressie,images/br_agressie.png,images/cb_agressie.png,,agr,,,,,,,,,,,-0.004353299,-0.019869792,1,0,0,agr,0,2,2,59,1
,,,,,,00108,2023-11-26_18h44.01.023,vbt_B1_day2,2022.2.4,MacIntel,60.0024001,,,,,,,,,,,,,,,,,,,,,,,,,,,,,,,,,,,,,,,,,,aanzien,images/br_aanzien.png,images/cb_aanzien.png,,aanzien,,,,,,,,,,,0.113572049,0.009605035,1,0,0,aanzien,0,3,3,13,1
,,,,,,00108,2023-11-26_18h44.01.023,vbt_B1_day2,2022.2.4,MacIntel,60.0024001,,,,,,,,,,,,,,,,,,,,,,,,,,,,,,,,,,,,,,,,,,jagen,images/br_jagen.png,images/cb_jagen.png,,jagen,,,,,,,,,,,0.073237847,-0.026189236,1,0,0,jagen,0,4,4,6,1
,,,,,,00108,2023-11-26_18h44.01.023,vbt_B1_day2,2022.2.4,MacIntel,60.0024001,,,,,,,,,,,,,,,,,,,,,,,,,,,,,,,,,,,,,,,,,,badon,images/br_badon.png,images/cb_badon.png,,badon,,,,,,,,,,,0.037612847,-0.046888021,1,0,0,badon,0,5,5,26,1
,,,,,,00108,2023-11-26_18h44.01.023,vbt_B1_day2,2022.2.4,MacIntel,60.0024001,,,,,,,,,,,,,,,,,,,,,,,,,,,,,,,,,,,,,,,,,,bereuwen,images/br_bereuwen.png,images/cb_bereuwen.png,,beruiw..,,,,,,,,,,,0.132977431,0.068294271,1,0,0,beruiw..,0,6,6,39,1
,,,,,,00108,2023-11-26_18h44.01.023,vbt_B1_day2,2022.2.4,MacIntel,60.0024001,,,,,,,,,,,,,,,,,,,,,,,,,,,,,,,,,,,,,,,,,,goon,images/br_goon.png,images/cb_goon.png,,goon,,,,,,,,,,,0.22827691,0.011818576,1,0,0,goon,0,7,7,23,1
,,,,,,00108,2023-11-26_18h44.01.023,vbt_B1_day2,2022.2.4,MacIntel,60.0024001,,,,,,,,,,,,,,,,,,,,,,,,,,,,,,,,,,,,,,,,,,strikken,images/br_strikken.png,images/cb_strikken.png,,strikken,,,,,,,,,,,0.218611111,-0.037313368,1,0,0,strikken,0,8,8,18,1
,,,,,,00108,2023-11-26_18h44.01.023,vbt_B1_day2,2022.2.4,MacIntel,60.0024001,,,,,,,,,,,,,,,,,,,,,,,,,,,,,,,,,,,,,,,,,,eenhoorn,images/br_eenhoorn.png,images/cb_eenhoorn.png,,eenhoorn,,,,,,,,,,,0.249561632,-0.054153646,1,0,0,eenhoorn,0,9,9,19,1
,,,,,,00108,2023-11-26_18h44.01.023,vbt_B1_day2,2022.2.4,MacIntel,60.0024001,,,,,,,,,,,,,,,,,,,,,,,,,,,,,,,,,,,,,,,,,,clan,images/br_clan.png,images/cb_clan.png,,chla,,,,,,,,,,,-0.05515625,-0.014674479,1,0,0,chla,0,10,10,40,1
,,,,,,00108,2023-11-26_18h44.01.023,vbt_B1_day2,2022.2.4,MacIntel,60.0024001,,,,,,,,,,,,,,,,,,,,,,,,,,,,,,,,,,,,,,,,,,manieren,images/br_manieren.png,images/cb_manieren.png,,manie....,,,,,,,,,,,0.240368924,-0.027178819,1,0,0,manie....,0,11,11,56,1
,,,,,,00108,2023-11-26_18h44.01.023,vbt_B1_day2,2022.2.4,MacIntel,60.0024001,,,,,,,,,,,,,,,,,,,,,,,,,,,,,,,,,,,,,,,,,,heilig,images/br_heilig.png,images/cb_heilig.png,,heilig,,,,,,,,,,,0.236918403,0.004288194,1,0,0,heilig,0,12,12,9,1
,,,,,,00108,2023-11-26_18h44.01.023,vbt_B1_day2,2022.2.4,MacIntel,60.0024001,,,,,,,,,,,,,,,,,,,,,,,,,,,,,,,,,,,,,,,,,,zomers,images/br_zomers.png,images/cb_zomers.png,,zomers,,,,,,,,,,,0.206132813,-0.003233507,1,0,0,zomers,0,13,13,48,1
,,,,,,00108,2023-11-26_18h44.01.023,vbt_B1_day2,2022.2.4,MacIntel,60.0024001,,,,,,,,,,,,,,,,,,,,,,,,,,,,,,,,,,,,,,,,,,koorts,images/br_koorts.png,images/cb_koorts.png,,koorts,,,,,,,,,,,0.241588542,-0.037981771,1,0,0,koorts,0,14,14,50,1
,,,,,,00108,2023-11-26_18h44.01.023,vbt_B1_day2,2022.2.4,MacIntel,60.0024001,,,,,,,,,,,,,,,,,,,,,,,,,,,,,,,,,,,,,,,,,,bloeien,images/br_bloeien.png,images/cb_bloeien.png,,bloeien,,,,,,,,,,,0.270703125,0.02234375,1,0,0,bloeien,0,15,15,12,1
,,,,,,00108,2023-11-26_18h44.01.023,vbt_B1_day2,2022.2.4,MacIntel,60.0024001,,,,,,,,,,,,,,,,,,,,,,,,,,,,,,,,,,,,,,,,,,sora,images/br_sora.png,images/cb_sora.png,,sofa,,,,,,,,,,,0.111992188,-0.017022569,1,0,0,sofa,0,16,16,22,1
,,,,,,00108,2023-11-26_18h44.01.023,vbt_B1_day2,2022.2.4,MacIntel,60.0024001,,,,,,,,,,,,,,,,,,,,,,,,,,,,,,,,,,,,,,,,,,piste,images/br_piste.png,images/cb_piste.png,,piste,,,,,,,,,,,0.217751736,-0.048029514,1,0,0,piste,0,17,17,5,1
,,,,,,00108,2023-11-26_18h44.01.023,vbt_B1_day2,2022.2.4,MacIntel,60.0024001,,,,,,,,,,,,,,,,,,,,,,,,,,,,,,,,,,,,,,,,,,dode,images/br_dode.png,images/cb_dode.png,,dode,,,,,,,,,,,0.18577691,0.018958333,1,0,0,dode,0,18,18,41,1
,,,,,,00108,2023-11-26_18h44.01.023,vbt_B1_day2,2022.2.4,MacIntel,60.0024001,,,,,,,,,,,,,,,,,,,,,,,,,,,,,,,,,,,,,,,,,,prekken,images/br_prekken.png,images/cb_prekken.png,,prikken,,,,,,,,,,,0.253962674,-0.032539063,1,0,0,prikken,0,19,19,34,1
,,,,,,00108,2023-11-26_18h44.01.023,vbt_B1_day2,2022.2.4,MacIntel,60.0024001,,,,,,,,,,,,,,,,,,,,,,,,,,,,,,,,,,,,,,,,,,breuk,images/br_breuk.png,images/cb_breuk.png,,briuk,,,,,,,,,,,-0.028012153,-0.011258681,1,0,0,briuk,0,20,20,45,1
,,,,,,00108,2023-11-26_18h44.01.023,vbt_B1_day2,2022.2.4,MacIntel,60.0024001,,,,,,,,,,,,,,,,,,,,,,,,,,,,,,,,,,,,,,,,,,trots,images/br_trots.png,images/cb_trots.png,,trots,,,,,,,,,,,0.290008681,-0.053836806,1,0,0,trots,0,21,21,44,1
,,,,,,00108,2023-11-26_18h44.01.023,vbt_B1_day2,2022.2.4,MacIntel,60.0024001,,,,,,,,,,,,,,,,,,,,,,,,,,,,,,,,,,,,,,,,,,aanvraag,images/br_aanvraag.png,images/cb_aanvraag.png,,aanvra,,,,,,,,,,,0.032860243,-0.023007812,1,0,0,aanvra,0,22,22,57,1
,,,,,,00108,2023-11-26_18h44.01.023,vbt_B1_day2,2022.2.4,MacIntel,60.0024001,,,,,,,,,,,,,,,,,,,,,,,,,,,,,,,,,,,,,,,,,,doodmoe,images/br_doodmoe.png,images/cb_doodmoe.png,,doodmol,,,,,,,,,,,0.029748264,-0.010907118,1,0,0,doodmol,0,23,23,15,1
,,,,,,00108,2023-11-26_18h44.01.023,vbt_B1_day2,2022.2.4,MacIntel,60.0024001,,,,,,,,,,,,,,,,,,,,,,,,,,,,,,,,,,,,,,,,,,diep,images/br_diep.png,images/cb_diep.png,,diep,,,,,,,,,,,-0.019244792,-0.006653646,1,0,0,diep,0,24,24,2,1
,,,,,,00108,2023-11-26_18h44.01.023,vbt_B1_day2,2022.2.4,MacIntel,60.0024001,,,,,,,,,,,,,,,,,,,,,,,,,,,,,,,,,,,,,,,,,,flits,images/br_flits.png,images/cb_flits.png,,flits,,,,,,,,,,,0.026323785,-0.020633681,1,0,0,flits,0,25,25,4,1
,,,,,,00108,2023-11-26_18h44.01.023,vbt_B1_day2,2022.2.4,MacIntel,60.0024001,,,,,,,,,,,,,,,,,,,,,,,,,,,,,,,,,,,,,,,,,,toeval,images/br_toeval.png,images/cb_toeval.png,,tlo,,,,,,,,,,,-0.173411458,-0.021223958,1,0,0,tlo,0,26,26,11,1
,,,,,,00108,2023-11-26_18h44.01.023,vbt_B1_day2,2022.2.4,MacIntel,60.0024001,,,,,,,,,,,,,,,,,,,,,,,,,,,,,,,,,,,,,,,,,,geld,images/br_geld.png,images/cb_geld.png,,geld,,,,,,,,,,,-0.173411458,-0.021223958,1,0,0,geld,0,27,27,3,1
,,,,,,00108,2023-11-26_18h44.01.023,vbt_B1_day2,2022.2.4,MacIntel,60.0024001,,,,,,,,,,,,,,,,,,,,,,,,,,,,,,,,,,,,,,,,,,lurgen,images/br_lurgen.png,images/cb_lurgen.png,,lurgen,,,,,,,,,,,-0.173411458,-0.021223958,1,0,0,lurgen,0,28,28,29,1
,,,,,,00108,2023-11-26_18h44.01.023,vbt_B1_day2,2022.2.4,MacIntel,60.0024001,,,,,,,,,,,,,,,,,,,,,,,,,,,,,,,,,,,,,,,,,,moes,images/br_moes.png,images/cb_moes.png,,moes,,,,,,,,,,,0.098585069,-0.010794271,1,0,0,moes,0,29,29,0,1
,,,,,,00108,2023-11-26_18h44.01.023,vbt_B1_day2,2022.2.4,MacIntel,60.0024001,,,,,,,,,,,,,,,,,,,,,,,,,,,,,,,,,,,,,,,,,,kabel,images/br_kabel.png,images/cb_kabel.png,,kabel,,,,,,,,,,,0.041961806,-0.017673611,1,0,0,kabel,0,30,30,7,1
,,,,,,00108,2023-11-26_18h44.01.023,vbt_B1_day2,2022.2.4,MacIntel,60.0024001,,,,,,,,,,,,,,,,,,,,,,,,,,,,,,,,,,,,,,,,,,thema,images/br_thema.png,images/cb_thema.png,,their,,,,,,,,,,,0.015711806,-0.00219184,1,0,0,their,0,31,31,47,1
,,,,,,00108,2023-11-26_18h44.01.023,vbt_B1_day2,2022.2.4,MacIntel,60.0024001,,,,,,,,,,,,,,,,,,,,,,,,,,,,,,,,,,,,,,,,,,krimmen,images/br_krimmen.png,images/cb_krimmen.png,,krimmen,,,,,,,,,,,0.132508681,-0.01374566,1,0,0,krimmen,0,32,32,35,1
,,,,,,00108,2023-11-26_18h44.01.023,vbt_B1_day2,2022.2.4,MacIntel,60.0024001,,,,,,,,,,,,,,,,,,,,,,,,,,,,,,,,,,,,,,,,,,wijve,images/br_wijve.png,images/cb_wijve.png,,wijve,,,,,,,,,,,0.030190972,-0.01640625,1,0,0,wijve,0,33,33,27,1
,,,,,,00108,2023-11-26_18h44.01.023,vbt_B1_day2,2022.2.4,MacIntel,60.0024001,,,,,,,,,,,,,,,,,,,,,,,,,,,,,,,,,,,,,,,,,,plannen,images/br_plannen.png,images/cb_plannen.png,,plannen,,,,,,,,,,,0.060112847,-0.016345486,1,0,0,plannen,0,34,34,55,1
,,,,,,00108,2023-11-26_18h44.01.023,vbt_B1_day2,2022.2.4,MacIntel,60.0024001,,,,,,,,,,,,,,,,,,,,,,,,,,,,,,,,,,,,,,,,,,zegel,images/br_zegel.png,images/cb_zegel.png,,zegel,,,,,,,,,,,-0.003294271,-0.055034722,1,0,0,zegel,0,35,35,46,1
,,,,,,00108,2023-11-26_18h44.01.023,vbt_B1_day2,2022.2.4,MacIntel,60.0024001,,,,,,,,,,,,,,,,,,,,,,,,,,,,,,,,,,,,,,,,,,opdatten,images/br_opdatten.png,images/cb_opdatten.png,,opdatten,,,,,,,,,,,0.057309028,-0.009826389,1,0,0,opdatten,0,36,36,37,1
,,,,,,00108,2023-11-26_18h44.01.023,vbt_B1_day2,2022.2.4,MacIntel,60.0024001,,,,,,,,,,,,,,,,,,,,,,,,,,,,,,,,,,,,,,,,,,zwager,images/br_zwager.png,images/cb_zwager.png,,zwager,,,,,,,,,,,0.03640625,-0.015360243,1,0,0,zwager,0,37,37,49,1
,,,,,,00108,2023-11-26_18h44.01.023,vbt_B1_day2,2022.2.4,MacIntel,60.0024001,,,,,,,,,,,,,,,,,,,,,,,,,,,,,,,,,,,,,,,,,,lokken,images/br_lokken.png,images/cb_lokken.png,,lokken,,,,,,,,,,,0.03640625,-0.015360243,1,0,0,lokken,0,38,38,8,1
,,,,,,00108,2023-11-26_18h44.01.023,vbt_B1_day2,2022.2.4,MacIntel,60.0024001,,,,,,,,,,,,,,,,,,,,,,,,,,,,,,,,,,,,,,,,,,jong,images/br_jong.png,images/cb_jong.png,,dong,,,,,,,,,,,0.03640625,-0.015360243,1,0,0,dong,0,39,39,43,1
,,,,,,00108,2023-11-26_18h44.01.023,vbt_B1_day2,2022.2.4,MacIntel,60.0024001,,,,,,,,,,,,,,,,,,,,,,,,,,,,,,,,,,,,,,,,,,sjijfel,images/br_sjijfel.png,images/cb_sjijfel.png,,sjok,,,,,,,,,,,0.03640625,-0.015360243,1,0,0,sjok,0,40,40,33,1
,,,,,,00108,2023-11-26_18h44.01.023,vbt_B1_day2,2022.2.4,MacIntel,60.0024001,,,,,,,,,,,,,,,,,,,,,,,,,,,,,,,,,,,,,,,,,,negel,images/br_negel.png,images/cb_negel.png,,negel,,,,,,,,,,,0.03640625,-0.015360243,1,0,0,negel,0,41,41,24,1
,,,,,,00108,2023-11-26_18h44.01.023,vbt_B1_day2,2022.2.4,MacIntel,60.0024001,,,,,,,,,,,,,,,,,,,,,,,,,,,,,,,,,,,,,,,,,,ophuimen,images/br_ophuimen.png,images/cb_ophuimen.png,,op,,,,,,,,,,,-0.166176215,-0.034947917,1,0,0,op,0,42,42,36,1
,,,,,,00108,2023-11-26_18h44.01.023,vbt_B1_day2,2022.2.4,MacIntel,60.0024001,,,,,,,,,,,,,,,,,,,,,,,,,,,,,,,,,,,,,,,,,,systeem,images/br_systeem.png,images/cb_systeem.png,,systeem,,,,,,,,,,,-0.06531684,-0.014322917,1,0,0,systeem,0,43,43,54,1
,,,,,,00108,2023-11-26_18h44.01.023,vbt_B1_day2,2022.2.4,MacIntel,60.0024001,,,,,,,,,,,,,,,,,,,,,,,,,,,,,,,,,,,,,,,,,,tand,images/br_tand.png,images/cb_tand.png,,tand,,,,,,,,,,,-0.037868924,-0.013355035,1,0,0,tand,0,44,44,42,1
,,,,,,00108,2023-11-26_18h44.01.023,vbt_B1_day2,2022.2.4,MacIntel,60.0024001,,,,,,,,,,,,,,,,,,,,,,,,,,,,,,,,,,,,,,,,,,ningen,images/br_ningen.png,images/cb_ningen.png,,ning,,,,,,,,,,,-0.037868924,-0.013355035,1,0,0,ning,0,45,45,28,1
,,,,,,00108,2023-11-26_18h44.01.023,vbt_B1_day2,2022.2.4,MacIntel,60.0024001,,,,,,,,,,,,,,,,,,,,,,,,,,,,,,,,,,,,,,,,,,woning,images/br_woning.png,images/cb_woning.png,,woning,,,,,,,,,,,-0.037868924,-0.013355035,1,0,0,woning,0,46,46,10,1
,,,,,,00108,2023-11-26_18h44.01.023,vbt_B1_day2,2022.2.4,MacIntel,60.0024001,,,,,,,,,,,,,,,,,,,,,,,,,,,,,,,,,,,,,,,,,,remel,images/br_remel.png,images/cb_remel.png,,remel,,,,,,,,,,,-0.037868924,-0.013355035,1,0,0,remel,0,47,47,25,1
,,,,,,00108,2023-11-26_18h44.01.023,vbt_B1_day2,2022.2.4,MacIntel,60.0024001,,,,,,,,,,,,,,,,,,,,,,,,,,,,,,,,,,,,,,,,,,lijnen,images/br_lijnen.png,images/cb_lijnen.png,,lijnen,,,,,,,,,,,0.03109809,-0.002282986,1,0,0,lijnen,0,48,48,51,1
,,,,,,00108,2023-11-26_18h44.01.023,vbt_B1_day2,2022.2.4,MacIntel,60.0024001,,,,,,,,,,,,,,,,,,,,,,,,,,,,,,,,,,,,,,,,,,inzicht,images/br_inzicht.png,images/cb_inzicht.png,,inz,,,,,,,,,,,-0.046019965,-0.014713542,1,0,0,inz,0,49,49,53,1
,,,,,,00108,2023-11-26_18h44.01.023,vbt_B1_day2,2022.2.4,MacIntel,60.0024001,,,,,,,,,,,,,,,,,,,,,,,,,,,,,,,,,,,,,,,,,,blad,images/br_blad.png,images/cb_blad.png,,blad,,,,,,,,,,,0.031028646,-0.039266493,1,0,0,blad,0,50,50,1,1
,,,,,,00108,2023-11-26_18h44.01.023,vbt_B1_day2,2022.2.4,MacIntel,60.0024001,,,,,,,,,,,,,,,,,,,,,,,,,,,,,,,,,,,,,,,,,,kijlen,images/br_kijlen.png,images/cb_kijlen.png,,kielen,,,,,,,,,,,0.015238715,-0.019110243,1,0,0,kielen,0,51,51,31,1
,,,,,,00108,2023-11-26_18h44.01.023,vbt_B1_day2,2022.2.4,MacIntel,60.0024001,,,,,,,,,,,,,,,,,,,,,,,,,,,,,,,,,,,,,,,,,,feestdag,images/br_feestdag.png,images/cb_feestdag.png,,feest,,,,,,,,,,,0.013467882,-0.028967014,1,0,0,feest,0,52,52,17,1
,,,,,,00108,2023-11-26_18h44.01.023,vbt_B1_day2,2022.2.4,MacIntel,60.0024001,,,,,,,,,,,,,,,,,,,,,,,,,,,,,,,,,,,,,,,,,,kenzis,images/br_kenzis.png,images/cb_kenzis.png,,kenzes,,,,,,,,,,,0.013467882,-0.028967014,1,0,0,kenzes,0,53,53,30,1
,,,,,,00108,2023-11-26_18h44.01.023,vbt_B1_day2,2022.2.4,MacIntel,60.0024001,,,,,,,,,,,,,,,,,,,,,,,,,,,,,,,,,,,,,,,,,,stes,images/br_stes.png,images/cb_stes.png,,stes,,,,,,,,,,,0.017864583,-0.005299479,1,0,0,stes,0,54,54,21,1
,,,,,,00108,2023-11-26_18h44.01.023,vbt_B1_day2,2022.2.4,MacIntel,60.0024001,,,,,,,,,,,,,,,,,,,,,,,,,,,,,,,,,,,,,,,,,,anarchie,images/br_anarchie.png,images/cb_anarchie.png,,ana,,,,,,,,,,,-0.177829861,-0.007096354,1,0,0,ana,0,55,55,16,1
,,,,,,00108,2023-11-26_18h44.01.023,vbt_B1_day2,2022.2.4,MacIntel,60.0024001,,,,,,,,,,,,,,,,,,,,,,,,,,,,,,,,,,,,,,,,,,welzijn,images/br_welzijn.png,images/cb_welzijn.png,,wilz,,,,,,,,,,,-0.159301215,0.036228299,1,0,0,wilz,0,56,56,52,1
,,,,,,00108,2023-11-26_18h44.01.023,vbt_B1_day2,2022.2.4,MacIntel,60.0024001,,,,,,,,,,,,,,,,,,,,,,,,,,,,,,,,,,,,,,,,,,joes,images/br_joes.png,images/cb_joes.png,,joes,,,,,,,,,,,0.03484809,0.001866319,1,0,0,joes,0,57,57,20,1
,,,,,,00108,2023-11-26_18h44.01.023,vbt_B1_day2,2022.2.4,MacIntel,60.0024001,,,,,,,,,,,,,,,,,,,,,,,,,,,,,,,,,,,,,,,,,,sifferd,images/br_sifferd.png,images/cb_sifferd.png,,siff,,,,,,,,,,,-0.070286458,-0.00625,1,0,0,siff,0,58,58,32,1
,,,,,,00108,2023-11-26_18h44.01.023,vbt_B1_day2,2022.2.4,MacIntel,60.0024001,,,,,,,,,,,,,,,,,,,,,,,,,,,,,,,,,,,,,,,,,,heengeen,images/br_heengeen.png,images/cb_heengeen.png,,heen,,,,,,,,,,,-0.057586806,-0.007226563,1,0,0,heen,0,59,59,38,1
,,,,,,00108,2023-11-26_18h44.01.023,vbt_B1_day2,2022.2.4,MacIntel,60.0024001,,,,,,,,,,,,,,,,,,,,,,,,,,,,,,,,,,,,,,,,,,,,,,,,,,,,,,,,,,,,,,,,,,,
