welcome_mouse.x,welcome_mouse.y,welcome_mouse.leftButton,welcome_mouse.midButton,welcome_mouse.rightButton,welcome_mouse.time,"ID",date,expName,psychopyVersion,OS,frameRate,refresh_mouse.x,refresh_mouse.y,refresh_mouse.leftButton,refresh_mouse.midButton,refresh_mouse.rightButton,refresh_mouse.time,braille_mouse.x,braille_mouse.y,braille_mouse.leftButton,braille_mouse.midButton,braille_mouse.rightButton,braille_mouse.time,trials.thisRepN,trials.thisTrialN,trials.thisN,trials.thisIndex,trials.ran,nlLet,brLet,cbLet,trainInstr_mouse.x,trainInstr_mouse.y,trainInstr_mouse.leftButton,trainInstr_mouse.midButton,trainInstr_mouse.rightButton,trainInstr_mouse.time,translation_key.keys,translation_key.corr,translation_key.rt,word_rsp.text,word_mouse.x,word_mouse.y,word_mouse.leftButton,word_mouse.midButton,word_mouse.rightButton,word_mouse.time,train_loop.thisRepN,train_loop.thisTrialN,train_loop.thisN,train_loop.thisIndex,train_loop.ran,nlWrd,brWrd,cbWrd,test,testResp,mouse.x,mouse.y,mouse.leftButton,mouse.midButton,mouse.rightButton,testInstr_mouse.x,testInstr_mouse.y,testInstr_mouse.leftButton,testInstr_mouse.midButton,testInstr_mouse.rightButton,test_mouse.x,test_mouse.y,test_mouse.leftButton,test_mouse.midButton,test_mouse.rightButton,test_response.text,test_loop.thisRepN,test_loop.thisTrialN,test_loop.thisN,test_loop.thisIndex,test_loop.ran
-0.217592578,-0.255555556,1,0,0,12.705,00077,2023-10-27_10h28.59.969,vbt_B1_day2,2022.2.4,Win32,121.9512195,,,,,,,,,,,,,,,,,,,,,,,,,,,,,,,,,,,,,,,,,,,,,,,,,,,,,,,,,,,,,,,,,,,
,,,,,,00077,2023-10-27_10h28.59.969,vbt_B1_day2,2022.2.4,Win32,121.9512195,-0.217592578,-0.255555556,1,0,0,10.4214,,,,,,,,,,,,,,,,,,,,,,,,,,,,,,,,,,,,,,,,,,,,,,,,,,,,,,,,,,,,,
,,,,,,00077,2023-10-27_10h28.59.969,vbt_B1_day2,2022.2.4,Win32,121.9512195,,,,,,,-0.217592578,-0.255555556,1,0,0,1.7408,0,0,0,0,1,a,images/br_a.png,images/cb_a.png,,,,,,,,,,,,,,,,,,,,,,,,,,,,,,,,,,,,,,,,,,,,,,,
,,,,,,00077,2023-10-27_10h28.59.969,vbt_B1_day2,2022.2.4,Win32,121.9512195,,,,,,,-0.217592578,-0.255555556,1,0,0,0.3547,0,1,1,14,1,o,images/br_o.png,images/cb_o.png,,,,,,,,,,,,,,,,,,,,,,,,,,,,,,,,,,,,,,,,,,,,,,,
,,,,,,00077,2023-10-27_10h28.59.969,vbt_B1_day2,2022.2.4,Win32,121.9512195,,,,,,,-0.217592578,-0.255555556,1,0,0,0.5349,0,2,2,19,1,t,images/br_t.png,images/cb_t.png,,,,,,,,,,,,,,,,,,,,,,,,,,,,,,,,,,,,,,,,,,,,,,,
,,,,,,00077,2023-10-27_10h28.59.969,vbt_B1_day2,2022.2.4,Win32,121.9512195,,,,,,,-0.217592578,-0.255555556,1,0,0,0.5171,0,3,3,4,1,e,images/br_e.png,images/cb_e.png,,,,,,,,,,,,,,,,,,,,,,,,,,,,,,,,,,,,,,,,,,,,,,,
,,,,,,00077,2023-10-27_10h28.59.969,vbt_B1_day2,2022.2.4,Win32,121.9512195,,,,,,,-0.217592578,-0.255555556,1,0,0,0.2549,0,4,4,23,1,x,images/br_x.png,images/cb_x.png,,,,,,,,,,,,,,,,,,,,,,,,,,,,,,,,,,,,,,,,,,,,,,,
,,,,,,00077,2023-10-27_10h28.59.969,vbt_B1_day2,2022.2.4,Win32,121.9512195,,,,,,,-0.217592578,-0.255555556,1,0,0,1.6237,0,5,5,15,1,p,images/br_p.png,images/cb_p.png,,,,,,,,,,,,,,,,,,,,,,,,,,,,,,,,,,,,,,,,,,,,,,,
,,,,,,00077,2023-10-27_10h28.59.969,vbt_B1_day2,2022.2.4,Win32,121.9512195,,,,,,,-0.217592578,-0.255555556,1,0,0,2.1655,0,6,6,17,1,r,images/br_r.png,images/cb_r.png,,,,,,,,,,,,,,,,,,,,,,,,,,,,,,,,,,,,,,,,,,,,,,,
,,,,,,00077,2023-10-27_10h28.59.969,vbt_B1_day2,2022.2.4,Win32,121.9512195,,,,,,,-0.21851849,-0.25,1,0,0,4.2387,0,7,7,20,1,u,images/br_u.png,images/cb_u.png,,,,,,,,,,,,,,,,,,,,,,,,,,,,,,,,,,,,,,,,,,,,,,,
,,,,,,00077,2023-10-27_10h28.59.969,vbt_B1_day2,2022.2.4,Win32,121.9512195,,,,,,,-0.21851849,-0.25,1,0,0,0.3661,0,8,8,8,1,i,images/br_i.png,images/cb_i.png,,,,,,,,,,,,,,,,,,,,,,,,,,,,,,,,,,,,,,,,,,,,,,,
,,,,,,00077,2023-10-27_10h28.59.969,vbt_B1_day2,2022.2.4,Win32,121.9512195,,,,,,,-0.21851849,-0.25,1,0,0,1.4408,0,9,9,25,1,z,images/br_z.png,images/cb_z.png,,,,,,,,,,,,,,,,,,,,,,,,,,,,,,,,,,,,,,,,,,,,,,,
,,,,,,00077,2023-10-27_10h28.59.969,vbt_B1_day2,2022.2.4,Win32,121.9512195,,,,,,,-0.21851849,-0.25,1,0,0,0.758,0,10,10,6,1,g,images/br_g.png,images/cb_g.png,,,,,,,,,,,,,,,,,,,,,,,,,,,,,,,,,,,,,,,,,,,,,,,
,,,,,,00077,2023-10-27_10h28.59.969,vbt_B1_day2,2022.2.4,Win32,121.9512195,,,,,,,-0.21851849,-0.25,1,0,0,1.3576,0,11,11,2,1,c,images/br_c.png,images/cb_c.png,,,,,,,,,,,,,,,,,,,,,,,,,,,,,,,,,,,,,,,,,,,,,,,
,,,,,,00077,2023-10-27_10h28.59.969,vbt_B1_day2,2022.2.4,Win32,121.9512195,,,,,,,-0.21851849,-0.25,1,0,0,2.4823,0,12,12,18,1,s,images/br_s.png,images/cb_s.png,,,,,,,,,,,,,,,,,,,,,,,,,,,,,,,,,,,,,,,,,,,,,,,
,,,,,,00077,2023-10-27_10h28.59.969,vbt_B1_day2,2022.2.4,Win32,121.9512195,,,,,,,-0.21851849,-0.25,1,0,0,3.606,0,13,13,22,1,w,images/br_w.png,images/cb_w.png,,,,,,,,,,,,,,,,,,,,,,,,,,,,,,,,,,,,,,,,,,,,,,,
,,,,,,00077,2023-10-27_10h28.59.969,vbt_B1_day2,2022.2.4,Win32,121.9512195,,,,,,,-0.21851849,-0.25,1,0,0,2.0572,0,14,14,1,1,b,images/br_b.png,images/cb_b.png,,,,,,,,,,,,,,,,,,,,,,,,,,,,,,,,,,,,,,,,,,,,,,,
,,,,,,00077,2023-10-27_10h28.59.969,vbt_B1_day2,2022.2.4,Win32,121.9512195,,,,,,,-0.21851849,-0.25,1,0,0,5.6051,0,15,15,3,1,d,images/br_d.png,images/cb_d.png,,,,,,,,,,,,,,,,,,,,,,,,,,,,,,,,,,,,,,,,,,,,,,,
,,,,,,00077,2023-10-27_10h28.59.969,vbt_B1_day2,2022.2.4,Win32,121.9512195,,,,,,,-0.21851849,-0.25,1,0,0,0.1918,0,16,16,11,1,l,images/br_l.png,images/cb_l.png,,,,,,,,,,,,,,,,,,,,,,,,,,,,,,,,,,,,,,,,,,,,,,,
,,,,,,00077,2023-10-27_10h28.59.969,vbt_B1_day2,2022.2.4,Win32,121.9512195,,,,,,,-0.21851849,-0.25,1,0,0,4.3179,0,17,17,5,1,f,images/br_f.png,images/cb_f.png,,,,,,,,,,,,,,,,,,,,,,,,,,,,,,,,,,,,,,,,,,,,,,,
,,,,,,00077,2023-10-27_10h28.59.969,vbt_B1_day2,2022.2.4,Win32,121.9512195,,,,,,,-0.21851849,-0.25,1,0,0,3.0732,0,18,18,10,1,k,images/br_k.png,images/cb_k.png,,,,,,,,,,,,,,,,,,,,,,,,,,,,,,,,,,,,,,,,,,,,,,,
,,,,,,00077,2023-10-27_10h28.59.969,vbt_B1_day2,2022.2.4,Win32,121.9512195,,,,,,,-0.21851849,-0.25,1,0,0,2.2741,0,19,19,13,1,n,images/br_n.png,images/cb_n.png,,,,,,,,,,,,,,,,,,,,,,,,,,,,,,,,,,,,,,,,,,,,,,,
,,,,,,00077,2023-10-27_10h28.59.969,vbt_B1_day2,2022.2.4,Win32,121.9512195,,,,,,,-0.21851849,-0.25,1,0,0,4.0811,0,20,20,21,1,v,images/br_v.png,images/cb_v.png,,,,,,,,,,,,,,,,,,,,,,,,,,,,,,,,,,,,,,,,,,,,,,,
,,,,,,00077,2023-10-27_10h28.59.969,vbt_B1_day2,2022.2.4,Win32,121.9512195,,,,,,,-0.21851849,-0.25,1,0,0,4.7641,0,21,21,16,1,q,images/br_q.png,images/cb_q.png,,,,,,,,,,,,,,,,,,,,,,,,,,,,,,,,,,,,,,,,,,,,,,,
,,,,,,00077,2023-10-27_10h28.59.969,vbt_B1_day2,2022.2.4,Win32,121.9512195,,,,,,,-0.21851849,-0.25,1,0,0,4.1227,0,22,22,12,1,m,images/br_m.png,images/cb_m.png,,,,,,,,,,,,,,,,,,,,,,,,,,,,,,,,,,,,,,,,,,,,,,,
,,,,,,00077,2023-10-27_10h28.59.969,vbt_B1_day2,2022.2.4,Win32,121.9512195,,,,,,,-0.220370356,-0.233333333,1,0,0,6.8128,0,23,23,24,1,y,images/br_y.png,images/cb_y.png,,,,,,,,,,,,,,,,,,,,,,,,,,,,,,,,,,,,,,,,,,,,,,,
,,,,,,00077,2023-10-27_10h28.59.969,vbt_B1_day2,2022.2.4,Win32,121.9512195,,,,,,,-0.220370356,-0.233333333,1,0,0,14.7168,0,24,24,7,1,h,images/br_h.png,images/cb_h.png,,,,,,,,,,,,,,,,,,,,,,,,,,,,,,,,,,,,,,,,,,,,,,,
,,,,,,00077,2023-10-27_10h28.59.969,vbt_B1_day2,2022.2.4,Win32,121.9512195,,,,,,,-0.220370356,-0.233333333,1,0,0,10.8357,0,25,25,9,1,j,images/br_j.png,images/cb_j.png,,,,,,,,,,,,,,,,,,,,,,,,,,,,,,,,,,,,,,,,,,,,,,,
,,,,,,00077,2023-10-27_10h28.59.969,vbt_B1_day2,2022.2.4,Win32,121.9512195,,,,,,,,,,,,,,,,,,,,,-0.220370356,-0.233333333,1,0,0,28.8963,,,,,,,,,,,,,,,,,,,,,,,,,,,,,,,,,,,,,,,,,
,,,,,,00077,2023-10-27_10h28.59.969,vbt_B1_day2,2022.2.4,Win32,121.9512195,,,,,,,,,,,,,,,,,,,,,,,,,,,down,0,19.409,,-0.220370356,-0.233333333,1,0,0,8.9866,0,0,0,162,1,uitdelen,images/br_uitdelen.png,images/cb_uitdelen.png,0,,,,,,,,,,,,,,,,,,,,,,
,,,,,,00077,2023-10-27_10h28.59.969,vbt_B1_day2,2022.2.4,Win32,121.9512195,,,,,,,,,,,,,,,,,,,,,,,,,,,down,0,2.2409,,-0.220370356,-0.233333333,1,0,0,1.6488,0,1,1,13,1,kaal,images/br_kaal.png,images/cb_kaal.png,0,,,,,,,,,,,,,,,,,,,,,,
,,,,,,00077,2023-10-27_10h28.59.969,vbt_B1_day2,2022.2.4,Win32,121.9512195,,,,,,,,,,,,,,,,,,,,,,,,,,,down,0,14.7834,,-0.21851849,-0.233333333,1,0,0,13.342,0,2,2,192,1,schaamte,images/br_schaamte.png,images/cb_schaamte.png,0,,,,,,,,,,,,,,,,,,,,,,
,,,,,,00077,2023-10-27_10h28.59.969,vbt_B1_day2,2022.2.4,Win32,121.9512195,,,,,,,,,,,,,,,,,,,,,,,,,,,down,0,17.0325,,-0.21851849,-0.233333333,1,0,0,2.3147,0,3,3,23,1,zout,images/br_zout.png,images/cb_zout.png,0,,,,,,,,,,,,,,,,,,,,,,
,,,,,,00077,2023-10-27_10h28.59.969,vbt_B1_day2,2022.2.4,Win32,121.9512195,,,,,,,,,,,,,,,,,,,,,,,,,,,down,0,5.9642,,-0.21851849,-0.233333333,1,0,0,2.0737,0,4,4,19,1,geit,images/br_geit.png,images/cb_geit.png,1,geit,,,,,,,,,,,,,,,,,,,,,
,,,,,,00077,2023-10-27_10h28.59.969,vbt_B1_day2,2022.2.4,Win32,121.9512195,,,,,,,,,,,,,,,,,,,,,,,,,,,down,0,31.0745,,-0.21851849,-0.233333333,1,0,0,10.9236,0,5,5,191,1,opheffen,images/br_opheffen.png,images/cb_opheffen.png,0,,,,,,,,,,,,,,,,,,,,,,
,,,,,,00077,2023-10-27_10h28.59.969,vbt_B1_day2,2022.2.4,Win32,121.9512195,,,,,,,,,,,,,,,,,,,,,,,,,,,down,0,8.1553,,-0.21851849,-0.233333333,1,0,0,5.1845,0,6,6,186,1,voorraad,images/br_voorraad.png,images/cb_voorraad.png,0,,,,,,,,,,,,,,,,,,,,,,
,,,,,,00077,2023-10-27_10h28.59.969,vbt_B1_day2,2022.2.4,Win32,121.9512195,,,,,,,,,,,,,,,,,,,,,,,,,,,down,0,30.7438,,-0.21851849,-0.235185242,1,0,0,10.9502,0,7,7,110,1,zuster,images/br_zuster.png,images/cb_zuster.png,0,,,,,,,,,,,,,,,,,,,,,,
,,,,,,00077,2023-10-27_10h28.59.969,vbt_B1_day2,2022.2.4,Win32,121.9512195,,,,,,,,,,,,,,,,,,,,,,,,,,,down,0,5.245,,-0.21851849,-0.235185242,1,0,0,12.4343,0,8,8,159,1,sufferd,images/br_sufferd.png,images/cb_sufferd.png,0,,,,,,,,,,,,,,,,,,,,,,
,,,,,,00077,2023-10-27_10h28.59.969,vbt_B1_day2,2022.2.4,Win32,121.9512195,,,,,,,,,,,,,,,,,,,,,,,,,,,down,0,8.3703,,-0.21851849,-0.235185242,1,0,0,2.6897,0,9,9,97,1,loyaal,images/br_loyaal.png,images/cb_loyaal.png,1,Loyaal,,,,,,,,,,,,,,,,,,,,,
,,,,,,00077,2023-10-27_10h28.59.969,vbt_B1_day2,2022.2.4,Win32,121.9512195,,,,,,,,,,,,,,,,,,,,,,,,,,,down,0,6.2322,,-0.399074046,-0.175,1,0,0,6.4536,0,10,10,46,1,jagen,images/br_jagen.png,images/cb_jagen.png,0,,,,,,,,,,,,,,,,,,,,,,
,,,,,,00077,2023-10-27_10h28.59.969,vbt_B1_day2,2022.2.4,Win32,121.9512195,,,,,,,,,,,,,,,,,,,,,,,,,,,down,0,23.2718,,-0.399074046,-0.175,1,0,0,4.5058,0,11,11,183,1,getuigen,images/br_getuigen.png,images/cb_getuigen.png,0,,,,,,,,,,,,,,,,,,,,,,
,,,,,,00077,2023-10-27_10h28.59.969,vbt_B1_day2,2022.2.4,Win32,121.9512195,,,,,,,,,,,,,,,,,,,,,,,,,,,down,0,14.7754,,-0.399074046,-0.173148176,1,0,0,12.8922,0,12,12,6,1,diep,images/br_diep.png,images/cb_diep.png,0,,,,,,,,,,,,,,,,,,,,,,
,,,,,,00077,2023-10-27_10h28.59.969,vbt_B1_day2,2022.2.4,Win32,121.9512195,,,,,,,,,,,,,,,,,,,,,,,,,,,down,0,25.8861,,-0.399074046,-0.173148176,1,0,0,2.6816,0,13,13,160,1,daarheen,images/br_daarheen.png,images/cb_daarheen.png,0,,,,,,,,,,,,,,,,,,,,,,
,,,,,,00077,2023-10-27_10h28.59.969,vbt_B1_day2,2022.2.4,Win32,121.9512195,,,,,,,,,,,,,,,,,,,,,,,,,,,down,0,2.7745,,-0.399074046,-0.174074088,1,0,0,1.482,0,14,14,113,1,koppen,images/br_koppen.png,images/cb_koppen.png,0,,,,,,,,,,,,,,,,,,,,,,
,,,,,,00077,2023-10-27_10h28.59.969,vbt_B1_day2,2022.2.4,Win32,121.9512195,,,,,,,,,,,,,,,,,,,,,,,,,,,down,0,4.4612,,-0.399074046,-0.174074088,1,0,0,1.0158,0,15,15,84,1,lokken,images/br_lokken.png,images/cb_lokken.png,0,,,,,,,,,,,,,,,,,,,,,,
,,,,,,00077,2023-10-27_10h28.59.969,vbt_B1_day2,2022.2.4,Win32,121.9512195,,,,,,,,,,,,,,,,,,,,,,,,,,,down,0,6.7233,,-0.399074046,-0.174074088,1,0,0,3.1395,0,16,16,25,1,plek,images/br_plek.png,images/cb_plek.png,0,,,,,,,,,,,,,,,,,,,,,,
,,,,,,00077,2023-10-27_10h28.59.969,vbt_B1_day2,2022.2.4,Win32,121.9512195,,,,,,,,,,,,,,,,,,,,,,,,,,,down,0,20.5224,,-0.399074046,-0.174074088,1,0,0,7.7869,0,17,17,3,1,mand,images/br_mand.png,images/cb_mand.png,0,,,,,,,,,,,,,,,,,,,,,,
,,,,,,00077,2023-10-27_10h28.59.969,vbt_B1_day2,2022.2.4,Win32,121.9512195,,,,,,,,,,,,,,,,,,,,,,,,,,,down,0,13.8518,,-0.404629601,-0.202777778,1,0,0,6.1957,0,18,18,166,1,strikken,images/br_strikken.png,images/cb_strikken.png,0,,,,,,,,,,,,,,,,,,,,,,
,,,,,,00077,2023-10-27_10h28.59.969,vbt_B1_day2,2022.2.4,Win32,121.9512195,,,,,,,,,,,,,,,,,,,,,,,,,,,down,0,13.7764,,-0.404629601,-0.202777778,1,0,0,4.8803,0,19,19,167,1,eenhoorn,images/br_eenhoorn.png,images/cb_eenhoorn.png,0,,,,,,,,,,,,,,,,,,,,,,
,,,,,,00077,2023-10-27_10h28.59.969,vbt_B1_day2,2022.2.4,Win32,121.9512195,,,,,,,,,,,,,,,,,,,,,,,,,,,down,0,7.6129,,-0.404629601,-0.202777778,1,0,0,1.0912,0,20,20,122,1,waarvan,images/br_waarvan.png,images/cb_waarvan.png,0,,,,,,,,,,,,,,,,,,,,,,
,,,,,,00077,2023-10-27_10h28.59.969,vbt_B1_day2,2022.2.4,Win32,121.9512195,,,,,,,,,,,,,,,,,,,,,,,,,,,down,0,20.0137,,-0.404629601,-0.202777778,1,0,0,3.7553,0,21,21,48,1,steel,images/br_steel.png,images/cb_steel.png,0,,,,,,,,,,,,,,,,,,,,,,
,,,,,,00077,2023-10-27_10h28.59.969,vbt_B1_day2,2022.2.4,Win32,121.9512195,,,,,,,,,,,,,,,,,,,,,,,,,,,down,0,11.4361,,-0.404629601,-0.202777778,1,0,0,0.6996,0,22,22,95,1,vreten,images/br_vreten.png,images/cb_vreten.png,0,,,,,,,,,,,,,,,,,,,,,,
,,,,,,00077,2023-10-27_10h28.59.969,vbt_B1_day2,2022.2.4,Win32,121.9512195,,,,,,,,,,,,,,,,,,,,,,,,,,,down,0,7.5955,,-0.404629601,-0.202777778,1,0,0,3.315,0,23,23,76,1,afval,images/br_afval.png,images/cb_afval.png,0,,,,,,,,,,,,,,,,,,,,,,
,,,,,,00077,2023-10-27_10h28.59.969,vbt_B1_day2,2022.2.4,Win32,121.9512195,,,,,,,,,,,,,,,,,,,,,,,,,,,down,0,44.9415,,-0.404629601,-0.202777778,1,0,0,15.0487,0,24,24,155,1,gerucht,images/br_gerucht.png,images/cb_gerucht.png,0,,,,,,,,,,,,,,,,,,,,,,
,,,,,,00077,2023-10-27_10h28.59.969,vbt_B1_day2,2022.2.4,Win32,121.9512195,,,,,,,,,,,,,,,,,,,,,,,,,,,down,0,19.0647,,-0.404629601,-0.202777778,1,0,0,10.2196,0,25,25,188,1,strekken,images/br_strekken.png,images/cb_strekken.png,0,,,,,,,,,,,,,,,,,,,,,,
,,,,,,00077,2023-10-27_10h28.59.969,vbt_B1_day2,2022.2.4,Win32,121.9512195,,,,,,,,,,,,,,,,,,,,,,,,,,,down,0,14.1012,,-0.404629601,-0.202777778,1,0,0,18.9645,0,26,26,81,1,dubbel,images/br_dubbel.png,images/cb_dubbel.png,0,,,,,,,,,,,,,,,,,,,,,,
,,,,,,00077,2023-10-27_10h28.59.969,vbt_B1_day2,2022.2.4,Win32,121.9512195,,,,,,,,,,,,,,,,,,,,,,,,,,,down,0,18.7812,,-0.404629601,-0.202777778,1,0,0,7.3877,0,27,27,133,1,seizoen,images/br_seizoen.png,images/cb_seizoen.png,0,,,,,,,,,,,,,,,,,,,,,,
,,,,,,00077,2023-10-27_10h28.59.969,vbt_B1_day2,2022.2.4,Win32,121.9512195,,,,,,,,,,,,,,,,,,,,,,,,,,,down,0,12.8027,,-0.404629601,-0.202777778,1,0,0,0.6582,0,28,28,62,1,knaap,images/br_knaap.png,images/cb_knaap.png,0,,,,,,,,,,,,,,,,,,,,,,
,,,,,,00077,2023-10-27_10h28.59.969,vbt_B1_day2,2022.2.4,Win32,121.9512195,,,,,,,,,,,,,,,,,,,,,,,,,,,down,0,2.2162,,-0.404629601,-0.202777778,1,0,0,0.4577,0,29,29,42,1,bleek,images/br_bleek.png,images/cb_bleek.png,0,,,,,,,,,,,,,,,,,,,,,,
,,,,,,00077,2023-10-27_10h28.59.969,vbt_B1_day2,2022.2.4,Win32,121.9512195,,,,,,,,,,,,,,,,,,,,,,,,,,,down,0,0.7339,,-0.404629601,-0.202777778,1,0,0,0.4163,0,30,30,5,1,blad,images/br_blad.png,images/cb_blad.png,0,,,,,,,,,,,,,,,,,,,,,,
,,,,,,00077,2023-10-27_10h28.59.969,vbt_B1_day2,2022.2.4,Win32,121.9512195,,,,,,,,,,,,,,,,,,,,,,,,,,,down,0,8.2797,,-0.404629601,-0.202777778,1,0,0,2.4477,0,31,31,11,1,mode,images/br_mode.png,images/cb_mode.png,0,,,,,,,,,,,,,,,,,,,,,,
,,,,,,00077,2023-10-27_10h28.59.969,vbt_B1_day2,2022.2.4,Win32,121.9512195,,,,,,,,,,,,,,,,,,,,,,,,,,,down,0,22.0384,,-0.404629601,-0.202777778,1,0,0,4.8978,0,32,32,83,1,mening,images/br_mening.png,images/cb_mening.png,0,,,,,,,,,,,,,,,,,,,,,,
,,,,,,00077,2023-10-27_10h28.59.969,vbt_B1_day2,2022.2.4,Win32,121.9512195,,,,,,,,,,,,,,,,,,,,,,,,,,,down,0,9.3454,,-0.404629601,-0.202777778,1,0,0,1.4162,0,33,33,21,1,mist,images/br_mist.png,images/cb_mist.png,0,,,,,,,,,,,,,,,,,,,,,,
,,,,,,00077,2023-10-27_10h28.59.969,vbt_B1_day2,2022.2.4,Win32,121.9512195,,,,,,,,,,,,,,,,,,,,,,,,,,,down,0,9.9806,,-0.404629601,-0.202777778,1,0,0,1.246,0,34,34,69,1,waken,images/br_waken.png,images/cb_waken.png,0,,,,,,,,,,,,,,,,,,,,,,
,,,,,,00077,2023-10-27_10h28.59.969,vbt_B1_day2,2022.2.4,Win32,121.9512195,,,,,,,,,,,,,,,,,,,,,,,,,,,down,0,10.0126,,-0.404629601,-0.202777778,1,0,0,4.8379,0,35,35,0,1,slak,images/br_slak.png,images/cb_slak.png,0,,,,,,,,,,,,,,,,,,,,,,
,,,,,,00077,2023-10-27_10h28.59.969,vbt_B1_day2,2022.2.4,Win32,121.9512195,,,,,,,,,,,,,,,,,,,,,,,,,,,down,0,3.7316,,-0.404629601,-0.202777778,1,0,0,0.546,0,36,36,12,1,kust,images/br_kust.png,images/cb_kust.png,0,,,,,,,,,,,,,,,,,,,,,,
,,,,,,00077,2023-10-27_10h28.59.969,vbt_B1_day2,2022.2.4,Win32,121.9512195,,,,,,,,,,,,,,,,,,,,,,,,,,,down,0,10.1364,,-0.404629601,-0.202777778,1,0,0,4.2806,0,37,37,73,1,volop,images/br_volop.png,images/cb_volop.png,0,,,,,,,,,,,,,,,,,,,,,,
,,,,,,00077,2023-10-27_10h28.59.969,vbt_B1_day2,2022.2.4,Win32,121.9512195,,,,,,,,,,,,,,,,,,,,,,,,,,,down,0,6.9549,,-0.404629601,-0.202777778,1,0,0,0.8248,0,38,38,117,1,kennis,images/br_kennis.png,images/cb_kennis.png,0,,,,,,,,,,,,,,,,,,,,,,
,,,,,,00077,2023-10-27_10h28.59.969,vbt_B1_day2,2022.2.4,Win32,121.9512195,,,,,,,,,,,,,,,,,,,,,,,,,,,down,0,7.3134,,-0.404629601,-0.202777778,1,0,0,0.5833,0,39,39,151,1,aanzoek,images/br_aanzoek.png,images/cb_aanzoek.png,0,,,,,,,,,,,,,,,,,,,,,,
,,,,,,00077,2023-10-27_10h28.59.969,vbt_B1_day2,2022.2.4,Win32,121.9512195,,,,,,,,,,,,,,,,,,,,,,,,,,,down,0,10.4328,,-0.404629601,-0.202777778,1,0,0,0.5762,0,40,40,14,1,rijp,images/br_rijp.png,images/cb_rijp.png,0,,,,,,,,,,,,,,,,,,,,,,
,,,,,,00077,2023-10-27_10h28.59.969,vbt_B1_day2,2022.2.4,Win32,121.9512195,,,,,,,,,,,,,,,,,,,,,,,,,,,down,0,10.3191,,-0.404629601,-0.202777778,1,0,0,0.4579,0,41,41,28,1,stal,images/br_stal.png,images/cb_stal.png,0,,,,,,,,,,,,,,,,,,,,,,
,,,,,,00077,2023-10-27_10h28.59.969,vbt_B1_day2,2022.2.4,Win32,121.9512195,,,,,,,,,,,,,,,,,,,,,,,,,,,down,0,19.7641,,-0.404629601,-0.202777778,1,0,0,13.4254,0,42,42,54,1,gebit,images/br_gebit.png,images/cb_gebit.png,0,,,,,,,,,,,,,,,,,,,,,,
,,,,,,00077,2023-10-27_10h28.59.969,vbt_B1_day2,2022.2.4,Win32,121.9512195,,,,,,,,,,,,,,,,,,,,,,,,,,,down,0,3.0156,,-0.404629601,-0.202777778,1,0,0,0.5825,0,43,43,49,1,laken,images/br_laken.png,images/cb_laken.png,0,,,,,,,,,,,,,,,,,,,,,,
,,,,,,00077,2023-10-27_10h28.59.969,vbt_B1_day2,2022.2.4,Win32,121.9512195,,,,,,,,,,,,,,,,,,,,,,,,,,,down,0,14.2694,,-0.404629601,-0.202777778,1,0,0,6.7706,0,44,44,103,1,joggen,images/br_joggen.png,images/cb_joggen.png,0,,,,,,,,,,,,,,,,,,,,,,
,,,,,,00077,2023-10-27_10h28.59.969,vbt_B1_day2,2022.2.4,Win32,121.9512195,,,,,,,,,,,,,,,,,,,,,,,,,,,down,0,5.3143,,-0.404629601,-0.202777778,1,0,0,1.241,0,45,45,64,1,wegen,images/br_wegen.png,images/cb_wegen.png,0,,,,,,,,,,,,,,,,,,,,,,
,,,,,,00077,2023-10-27_10h28.59.969,vbt_B1_day2,2022.2.4,Win32,121.9512195,,,,,,,,,,,,,,,,,,,,,,,,,,,down,0,19.4394,,-0.404629601,-0.202777778,1,0,0,4.732,0,46,46,50,1,stoom,images/br_stoom.png,images/cb_stoom.png,0,,,,,,,,,,,,,,,,,,,,,,
,,,,,,00077,2023-10-27_10h28.59.969,vbt_B1_day2,2022.2.4,Win32,121.9512195,,,,,,,,,,,,,,,,,,,,,,,,,,,down,0,3.441,,-0.404629601,-0.202777778,1,0,0,0.8831,0,47,47,66,1,lever,images/br_lever.png,images/cb_lever.png,0,,,,,,,,,,,,,,,,,,,,,,
,,,,,,00077,2023-10-27_10h28.59.969,vbt_B1_day2,2022.2.4,Win32,121.9512195,,,,,,,,,,,,,,,,,,,,,,,,,,,down,0,5.4605,,-0.404629601,-0.202777778,1,0,0,1.4348,0,48,48,56,1,traag,images/br_traag.png,images/cb_traag.png,1,traag,,,,,,,,,,,,,,,,,,,,,
,,,,,,00077,2023-10-27_10h28.59.969,vbt_B1_day2,2022.2.4,Win32,121.9512195,,,,,,,,,,,,,,,,,,,,,,,,,,,down,0,25.5354,,-0.404629601,-0.202777778,1,0,0,9.6109,0,49,49,165,1,feestdag,images/br_feestdag.png,images/cb_feestdag.png,0,,,,,,,,,,,,,,,,,,,,,,
,,,,,,00077,2023-10-27_10h28.59.969,vbt_B1_day2,2022.2.4,Win32,121.9512195,,,,,,,,,,,,,,,,,,,,,,,,,,,down,0,12.3025,,-0.404629601,-0.202777778,1,0,0,1.1249,0,50,50,164,1,anarchie,images/br_anarchie.png,images/cb_anarchie.png,0,,,,,,,,,,,,,,,,,,,,,,
,,,,,,00077,2023-10-27_10h28.59.969,vbt_B1_day2,2022.2.4,Win32,121.9512195,,,,,,,,,,,,,,,,,,,,,,,,,,,down,0,10.2954,,-0.404629601,-0.202777778,1,0,0,0.8206,0,51,51,156,1,rechten,images/br_rechten.png,images/cb_rechten.png,0,,,,,,,,,,,,,,,,,,,,,,
,,,,,,00077,2023-10-27_10h28.59.969,vbt_B1_day2,2022.2.4,Win32,121.9512195,,,,,,,,,,,,,,,,,,,,,,,,,,,down,0,11.3116,,-0.404629601,-0.202777778,1,0,0,3.2806,0,52,52,174,1,stemming,images/br_stemming.png,images/cb_stemming.png,0,,,,,,,,,,,,,,,,,,,,,,
,,,,,,00077,2023-10-27_10h28.59.969,vbt_B1_day2,2022.2.4,Win32,121.9512195,,,,,,,,,,,,,,,,,,,,,,,,,,,down,0,8.2962,,-0.404629601,-0.202777778,1,0,0,0.696,0,53,53,134,1,geliefd,images/br_geliefd.png,images/cb_geliefd.png,0,,,,,,,,,,,,,,,,,,,,,,
,,,,,,00077,2023-10-27_10h28.59.969,vbt_B1_day2,2022.2.4,Win32,121.9512195,,,,,,,,,,,,,,,,,,,,,,,,,,,down,0,8.1962,,-0.404629601,-0.202777778,1,0,0,5.9966,0,54,54,175,1,heengaan,images/br_heengaan.png,images/cb_heengaan.png,0,,,,,,,,,,,,,,,,,,,,,,
,,,,,,00077,2023-10-27_10h28.59.969,vbt_B1_day2,2022.2.4,Win32,121.9512195,,,,,,,,,,,,,,,,,,,,,,,,,,,down,0,17.2996,,-0.404629601,-0.202777778,1,0,0,0.4208,0,55,55,75,1,snoep,images/br_snoep.png,images/cb_snoep.png,0,,,,,,,,,,,,,,,,,,,,,,
,,,,,,00077,2023-10-27_10h28.59.969,vbt_B1_day2,2022.2.4,Win32,121.9512195,,,,,,,,,,,,,,,,,,,,,,,,,,,down,0,18.4632,,-0.404629601,-0.202777778,1,0,0,10.9277,0,56,56,34,1,vorm,images/br_vorm.png,images/cb_vorm.png,0,,,,,,,,,,,,,,,,,,,,,,
,,,,,,00077,2023-10-27_10h28.59.969,vbt_B1_day2,2022.2.4,Win32,121.9512195,,,,,,,,,,,,,,,,,,,,,,,,,,,down,0,4.1817,,-0.404629601,-0.202777778,1,0,0,0.953,0,57,57,138,1,akkoord,images/br_akkoord.png,images/cb_akkoord.png,1,akkoord,,,,,,,,,,,,,,,,,,,,,
,,,,,,00077,2023-10-27_10h28.59.969,vbt_B1_day2,2022.2.4,Win32,121.9512195,,,,,,,,,,,,,,,,,,,,,,,,,,,down,0,5.2484,,-0.416666667,-0.205555556,1,0,0,1.7287,0,58,58,59,1,kring,images/br_kring.png,images/cb_kring.png,1,kring,,,,,,,,,,,,,,,,,,,,,
,,,,,,00077,2023-10-27_10h28.59.969,vbt_B1_day2,2022.2.4,Win32,121.9512195,,,,,,,,,,,,,,,,,,,,,,,,,,,down,0,14.2014,,-0.47870369,-0.18148151,1,0,0,0.9915,0,59,59,43,1,klauw,images/br_klauw.png,images/cb_klauw.png,0,,,,,,,,,,,,,,,,,,,,,,
,,,,,,00077,2023-10-27_10h28.59.969,vbt_B1_day2,2022.2.4,Win32,121.9512195,,,,,,,,,,,,,,,,,,,,,,,,,,,down,0,15.0471,,-0.481481467,-0.178703732,1,0,0,0.9664,0,60,60,96,1,slagen,images/br_slagen.png,images/cb_slagen.png,1,slagen,,,,,,,,,,,,,,,,,,,,,
,,,,,,00077,2023-10-27_10h28.59.969,vbt_B1_day2,2022.2.4,Win32,121.9512195,,,,,,,,,,,,,,,,,,,,,,,,,,,down,0,12.1121,,-0.481481467,-0.178703732,1,0,0,1.8736,0,61,61,123,1,hiervan,images/br_hiervan.png,images/cb_hiervan.png,0,,,,,,,,,,,,,,,,,,,,,,
,,,,,,00077,2023-10-27_10h28.59.969,vbt_B1_day2,2022.2.4,Win32,121.9512195,,,,,,,,,,,,,,,,,,,,,,,,,,,down,0,5.5477,,-0.481481467,-0.178703732,1,0,0,0.7161,0,62,62,63,1,flirt,images/br_flirt.png,images/cb_flirt.png,0,,,,,,,,,,,,,,,,,,,,,,
,,,,,,00077,2023-10-27_10h28.59.969,vbt_B1_day2,2022.2.4,Win32,121.9512195,,,,,,,,,,,,,,,,,,,,,,,,,,,down,0,9.7282,,-0.481481467,-0.178703732,1,0,0,0.674,0,63,63,152,1,afnemen,images/br_afnemen.png,images/cb_afnemen.png,0,,,,,,,,,,,,,,,,,,,,,,
,,,,,,00077,2023-10-27_10h28.59.969,vbt_B1_day2,2022.2.4,Win32,121.9512195,,,,,,,,,,,,,,,,,,,,,,,,,,,down,0,18.7346,,-0.496296268,-0.177777778,1,0,0,4.4057,0,64,64,36,1,vuur,images/br_vuur.png,images/cb_vuur.png,0,,,,,,,,,,,,,,,,,,,,,,
,,,,,,00077,2023-10-27_10h28.59.969,vbt_B1_day2,2022.2.4,Win32,121.9512195,,,,,,,,,,,,,,,,,,,,,,,,,,,down,0,0.8341,,-0.496296268,-0.18148151,1,0,0,0.8625,0,65,65,10,1,leek,images/br_leek.png,images/cb_leek.png,0,,,,,,,,,,,,,,,,,,,,,,
,,,,,,00077,2023-10-27_10h28.59.969,vbt_B1_day2,2022.2.4,Win32,121.9512195,,,,,,,,,,,,,,,,,,,,,,,,,,,down,0,6.9483,,-0.496296268,-0.18148151,1,0,0,0.9964,0,66,66,57,1,steek,images/br_steek.png,images/cb_steek.png,1,steek,,,,,,,,,,,,,,,,,,,,,
,,,,,,00077,2023-10-27_10h28.59.969,vbt_B1_day2,2022.2.4,Win32,121.9512195,,,,,,,,,,,,,,,,,,,,,,,,,,,down,0,10.2115,,-0.496296268,-0.18148151,1,0,0,0.9159,0,67,67,158,1,innemen,images/br_innemen.png,images/cb_innemen.png,0,,,,,,,,,,,,,,,,,,,,,,
,,,,,,00077,2023-10-27_10h28.59.969,vbt_B1_day2,2022.2.4,Win32,121.9512195,,,,,,,,,,,,,,,,,,,,,,,,,,,down,0,30.5483,,-0.496296268,-0.18148151,1,0,0,5.3303,0,68,68,107,1,maling,images/br_maling.png,images/cb_maling.png,0,,,,,,,,,,,,,,,,,,,,,,
,,,,,,00077,2023-10-27_10h28.59.969,vbt_B1_day2,2022.2.4,Win32,121.9512195,,,,,,,,,,,,,,,,,,,,,,,,,,,down,0,18.3093,,-0.496296268,-0.18148151,1,0,0,6.1886,0,69,69,130,1,keihard,images/br_keihard.png,images/cb_keihard.png,0,,,,,,,,,,,,,,,,,,,,,,
,,,,,,00077,2023-10-27_10h28.59.969,vbt_B1_day2,2022.2.4,Win32,121.9512195,,,,,,,,,,,,,,,,,,,,,,,,,,,down,0,0.8585,,-0.496296268,-0.18148151,1,0,0,0.6829,0,70,70,39,1,laag,images/br_laag.png,images/cb_laag.png,0,,,,,,,,,,,,,,,,,,,,,,
,,,,,,00077,2023-10-27_10h28.59.969,vbt_B1_day2,2022.2.4,Win32,121.9512195,,,,,,,,,,,,,,,,,,,,,,,,,,,down,0,17.6076,,-0.496296268,-0.18148151,1,0,0,5.0721,0,71,71,185,1,mijnheer,images/br_mijnheer.png,images/cb_mijnheer.png,0,,,,,,,,,,,,,,,,,,,,,,
,,,,,,00077,2023-10-27_10h28.59.969,vbt_B1_day2,2022.2.4,Win32,121.9512195,,,,,,,,,,,,,,,,,,,,,,,,,,,down,0,4.1732,,-0.496296268,-0.18148151,1,0,0,0.9242,0,72,72,68,1,schat,images/br_schat.png,images/cb_schat.png,0,,,,,,,,,,,,,,,,,,,,,,
,,,,,,00077,2023-10-27_10h28.59.969,vbt_B1_day2,2022.2.4,Win32,121.9512195,,,,,,,,,,,,,,,,,,,,,,,,,,,down,0,7.2542,,-0.496296268,-0.18148151,1,0,0,0.4578,0,73,73,101,1,staren,images/br_staren.png,images/cb_staren.png,0,,,,,,,,,,,,,,,,,,,,,,
,,,,,,00077,2023-10-27_10h28.59.969,vbt_B1_day2,2022.2.4,Win32,121.9512195,,,,,,,,,,,,,,,,,,,,,,,,,,,down,0,21.08,,-0.496296268,-0.18148151,1,0,0,0.7072,0,74,74,135,1,gedicht,images/br_gedicht.png,images/cb_gedicht.png,0,,,,,,,,,,,,,,,,,,,,,,
,,,,,,00077,2023-10-27_10h28.59.969,vbt_B1_day2,2022.2.4,Win32,121.9512195,,,,,,,,,,,,,,,,,,,,,,,,,,,down,0,35.0475,,-0.511111111,-0.178703732,1,0,0,0.5823,0,75,75,44,1,flits,images/br_flits.png,images/cb_flits.png,0,,,,,,,,,,,,,,,,,,,,,,
,,,,,,00077,2023-10-27_10h28.59.969,vbt_B1_day2,2022.2.4,Win32,121.9512195,,,,,,,,,,,,,,,,,,,,,,,,,,,down,0,13.5756,,-0.511111111,-0.178703732,1,0,0,0.4248,0,76,76,92,1,geheim,images/br_geheim.png,images/cb_geheim.png,0,,,,,,,,,,,,,,,,,,,,,,
,,,,,,00077,2023-10-27_10h28.59.969,vbt_B1_day2,2022.2.4,Win32,121.9512195,,,,,,,,,,,,,,,,,,,,,,,,,,,down,0,5.4664,,-0.511111111,-0.178703732,1,0,0,2.3654,0,77,77,93,1,waarop,images/br_waarop.png,images/cb_waarop.png,0,,,,,,,,,,,,,,,,,,,,,,
,,,,,,00077,2023-10-27_10h28.59.969,vbt_B1_day2,2022.2.4,Win32,121.9512195,,,,,,,,,,,,,,,,,,,,,,,,,,,down,0,2.0459,,-0.511111111,-0.178703732,1,0,0,0.5742,0,78,78,9,1,hier,images/br_hier.png,images/cb_hier.png,0,,,,,,,,,,,,,,,,,,,,,,
,,,,,,00077,2023-10-27_10h28.59.969,vbt_B1_day2,2022.2.4,Win32,121.9512195,,,,,,,,,,,,,,,,,,,,,,,,,,,down,0,3.7734,,-0.49351849,-0.178703732,1,0,0,0.8656,0,79,79,16,1,ziek,images/br_ziek.png,images/cb_ziek.png,1,ziek,,,,,,,,,,,,,,,,,,,,,
,,,,,,00077,2023-10-27_10h28.59.969,vbt_B1_day2,2022.2.4,Win32,121.9512195,,,,,,,,,,,,,,,,,,,,,,,,,,,down,0,21.9625,,-0.179629601,-0.062962977,1,0,0,3.8692,0,80,80,125,1,aanzien,images/br_aanzien.png,images/cb_aanzien.png,0,,,,,,,,,,,,,,,,,,,,,,
,,,,,,00077,2023-10-27_10h28.59.969,vbt_B1_day2,2022.2.4,Win32,121.9512195,,,,,,,,,,,,,,,,,,,,,,,,,,,down,0,7.9543,,0.290740797,-0.05648151,1,0,0,1.0247,0,81,81,154,1,aflopen,images/br_aflopen.png,images/cb_aflopen.png,0,,,,,,,,,,,,,,,,,,,,,,
,,,,,,00077,2023-10-27_10h28.59.969,vbt_B1_day2,2022.2.4,Win32,121.9512195,,,,,,,,,,,,,,,,,,,,,,,,,,,down,0,10.5558,,0.290740797,-0.05648151,1,0,0,1.083,0,82,82,24,1,jurk,images/br_jurk.png,images/cb_jurk.png,0,,,,,,,,,,,,,,,,,,,,,,
,,,,,,00077,2023-10-27_10h28.59.969,vbt_B1_day2,2022.2.4,Win32,121.9512195,,,,,,,,,,,,,,,,,,,,,,,,,,,down,0,3.207,,0.290740797,-0.05648151,1,0,0,0.4217,0,83,83,41,1,maken,images/br_maken.png,images/cb_maken.png,0,,,,,,,,,,,,,,,,,,,,,,
,,,,,,00077,2023-10-27_10h28.59.969,vbt_B1_day2,2022.2.4,Win32,121.9512195,,,,,,,,,,,,,,,,,,,,,,,,,,,down,0,9.9254,,0.290740797,-0.05648151,1,0,0,0.4796,0,84,84,190,1,goedkoop,images/br_goedkoop.png,images/cb_goedkoop.png,0,,,,,,,,,,,,,,,,,,,,,,
,,,,,,00077,2023-10-27_10h28.59.969,vbt_B1_day2,2022.2.4,Win32,121.9512195,,,,,,,,,,,,,,,,,,,,,,,,,,,down,0,5.7892,,0.290740797,-0.05648151,1,0,0,2.0814,0,85,85,40,1,schep,images/br_schep.png,images/cb_schep.png,0,,,,,,,,,,,,,,,,,,,,,,
,,,,,,00077,2023-10-27_10h28.59.969,vbt_B1_day2,2022.2.4,Win32,121.9512195,,,,,,,,,,,,,,,,,,,,,,,,,,,down,0,2.0247,,0.290740797,-0.05648151,1,0,0,0.3875,0,86,86,72,1,strak,images/br_strak.png,images/cb_strak.png,0,,,,,,,,,,,,,,,,,,,,,,
,,,,,,00077,2023-10-27_10h28.59.969,vbt_B1_day2,2022.2.4,Win32,121.9512195,,,,,,,,,,,,,,,,,,,,,,,,,,,down,0,6.9106,,0.290740797,-0.05648151,1,0,0,0.6737,0,87,87,198,1,bedoelen,images/br_bedoelen.png,images/cb_bedoelen.png,0,,,,,,,,,,,,,,,,,,,,,,
,,,,,,00077,2023-10-27_10h28.59.969,vbt_B1_day2,2022.2.4,Win32,121.9512195,,,,,,,,,,,,,,,,,,,,,,,,,,,down,0,14.1856,,0.290740797,-0.05648151,1,0,0,0.4875,0,88,88,100,1,geduld,images/br_geduld.png,images/cb_geduld.png,0,,,,,,,,,,,,,,,,,,,,,,
,,,,,,00077,2023-10-27_10h28.59.969,vbt_B1_day2,2022.2.4,Win32,121.9512195,,,,,,,,,,,,,,,,,,,,,,,,,,,down,0,1.4331,,0.290740797,-0.05648151,1,0,0,0.4509,0,89,89,89,1,slapen,images/br_slapen.png,images/cb_slapen.png,0,,,,,,,,,,,,,,,,,,,,,,
,,,,,,00077,2023-10-27_10h28.59.969,vbt_B1_day2,2022.2.4,Win32,121.9512195,,,,,,,,,,,,,,,,,,,,,,,,,,,down,0,27.9594,,0.290740797,-0.05648151,1,0,0,13.0545,0,90,90,147,1,komisch,images/br_komisch.png,images/cb_komisch.png,0,,,,,,,,,,,,,,,,,,,,,,
,,,,,,00077,2023-10-27_10h28.59.969,vbt_B1_day2,2022.2.4,Win32,121.9512195,,,,,,,,,,,,,,,,,,,,,,,,,,,down,0,6.222,,0.290740797,-0.05648151,1,0,0,0.3754,0,91,91,172,1,weigeren,images/br_weigeren.png,images/cb_weigeren.png,0,,,,,,,,,,,,,,,,,,,,,,
,,,,,,00077,2023-10-27_10h28.59.969,vbt_B1_day2,2022.2.4,Win32,121.9512195,,,,,,,,,,,,,,,,,,,,,,,,,,,down,0,17.0566,,0.291666667,-0.05648151,1,0,0,1.1303,0,92,92,176,1,techniek,images/br_techniek.png,images/cb_techniek.png,1,techniek,,,,,,,,,,,,,,,,,,,,,
,,,,,,00077,2023-10-27_10h28.59.969,vbt_B1_day2,2022.2.4,Win32,121.9512195,,,,,,,,,,,,,,,,,,,,,,,,,,,down,0,4.9813,,0.291666667,-0.05648151,1,0,0,0.5747,0,93,93,35,1,lust,images/br_lust.png,images/cb_lust.png,0,,,,,,,,,,,,,,,,,,,,,,
,,,,,,00077,2023-10-27_10h28.59.969,vbt_B1_day2,2022.2.4,Win32,121.9512195,,,,,,,,,,,,,,,,,,,,,,,,,,,down,0,30.0758,,0.290740797,-0.053703732,1,0,0,8.5272,0,94,94,80,1,kanjer,images/br_kanjer.png,images/cb_kanjer.png,0,,,,,,,,,,,,,,,,,,,,,,
,,,,,,00077,2023-10-27_10h28.59.969,vbt_B1_day2,2022.2.4,Win32,121.9512195,,,,,,,,,,,,,,,,,,,,,,,,,,,down,0,7.5821,,0.290740797,-0.053703732,1,0,0,0.5251,0,95,95,184,1,aandelen,images/br_aandelen.png,images/cb_aandelen.png,0,,,,,,,,,,,,,,,,,,,,,,
,,,,,,00077,2023-10-27_10h28.59.969,vbt_B1_day2,2022.2.4,Win32,121.9512195,,,,,,,,,,,,,,,,,,,,,,,,,,,down,0,30.0414,,0.290740797,-0.053703732,1,0,0,0.7366,0,96,96,4,1,moes,images/br_moes.png,images/cb_moes.png,0,,,,,,,,,,,,,,,,,,,,,,
,,,,,,00077,2023-10-27_10h28.59.969,vbt_B1_day2,2022.2.4,Win32,121.9512195,,,,,,,,,,,,,,,,,,,,,,,,,,,down,0,4.5473,,0.3,-0.03148151,1,0,0,0.6825,0,97,97,77,1,woede,images/br_woede.png,images/cb_woede.png,0,,,,,,,,,,,,,,,,,,,,,,
,,,,,,00077,2023-10-27_10h28.59.969,vbt_B1_day2,2022.2.4,Win32,121.9512195,,,,,,,,,,,,,,,,,,,,,,,,,,,down,0,11.1108,,0.3,-0.03148151,1,0,0,0.5708,0,98,98,144,1,eetlust,images/br_eetlust.png,images/cb_eetlust.png,0,,,,,,,,,,,,,,,,,,,,,,
,,,,,,00077,2023-10-27_10h28.59.969,vbt_B1_day2,2022.2.4,Win32,121.9512195,,,,,,,,,,,,,,,,,,,,,,,,,,,down,0,11.9519,,0.312037065,-0.015740755,1,0,0,0.8591,0,99,99,58,1,tekst,images/br_tekst.png,images/cb_tekst.png,1,tekst,,,,,,,,,,,,,,,,,,,,,
,,,,,,00077,2023-10-27_10h28.59.969,vbt_B1_day2,2022.2.4,Win32,121.9512195,,,,,,,,,,,,,,,,,,,,,,,,,,,down,0,3.2567,,0.312037065,-0.015740755,1,0,0,0.7661,0,100,100,161,1,attentie,images/br_attentie.png,images/cb_attentie.png,0,,,,,,,,,,,,,,,,,,,,,,
,,,,,,00077,2023-10-27_10h28.59.969,vbt_B1_day2,2022.2.4,Win32,121.9512195,,,,,,,,,,,,,,,,,,,,,,,,,,,down,0,14.6488,,0.312037065,-0.015740755,1,0,0,0.5663,0,101,101,196,1,nakijken,images/br_nakijken.png,images/cb_nakijken.png,0,,,,,,,,,,,,,,,,,,,,,,
,,,,,,00077,2023-10-27_10h28.59.969,vbt_B1_day2,2022.2.4,Win32,121.9512195,,,,,,,,,,,,,,,,,,,,,,,,,,,down,0,23.1871,,0.312037065,-0.015740755,1,0,0,0.6365,0,102,102,142,1,snuiven,images/br_snuiven.png,images/cb_snuiven.png,0,,,,,,,,,,,,,,,,,,,,,,
,,,,,,00077,2023-10-27_10h28.59.969,vbt_B1_day2,2022.2.4,Win32,121.9512195,,,,,,,,,,,,,,,,,,,,,,,,,,,down,0,4.9225,,0.312037065,-0.015740755,1,0,0,0.4946,0,103,103,86,1,woning,images/br_woning.png,images/cb_woning.png,0,,,,,,,,,,,,,,,,,,,,,,
,,,,,,00077,2023-10-27_10h28.59.969,vbt_B1_day2,2022.2.4,Win32,121.9512195,,,,,,,,,,,,,,,,,,,,,,,,,,,down,0,3.7845,,0.312037065,-0.015740755,1,0,0,0.4083,0,104,104,115,1,kleren,images/br_kleren.png,images/cb_kleren.png,0,,,,,,,,,,,,,,,,,,,,,,
,,,,,,00077,2023-10-27_10h28.59.969,vbt_B1_day2,2022.2.4,Win32,121.9512195,,,,,,,,,,,,,,,,,,,,,,,,,,,down,0,4.8806,,0.312037065,-0.015740755,1,0,0,0.5662,0,105,105,132,1,grappen,images/br_grappen.png,images/cb_grappen.png,0,,,,,,,,,,,,,,,,,,,,,,
,,,,,,00077,2023-10-27_10h28.59.969,vbt_B1_day2,2022.2.4,Win32,121.9512195,,,,,,,,,,,,,,,,,,,,,,,,,,,down,0,6.484,,0.312037065,-0.015740755,1,0,0,0.7769,0,106,106,18,1,blik,images/br_blik.png,images/cb_blik.png,1,blik,,,,,,,,,,,,,,,,,,,,,
,,,,,,00077,2023-10-27_10h28.59.969,vbt_B1_day2,2022.2.4,Win32,121.9512195,,,,,,,,,,,,,,,,,,,,,,,,,,,down,0,9.5582,,0.312037065,-0.015740755,1,0,0,0.9903,0,107,107,70,1,ijdel,images/br_ijdel.png,images/cb_ijdel.png,0,,,,,,,,,,,,,,,,,,,,,,
,,,,,,00077,2023-10-27_10h28.59.969,vbt_B1_day2,2022.2.4,Win32,121.9512195,,,,,,,,,,,,,,,,,,,,,,,,,,,down,0,3.8577,,0.312037065,-0.015740755,1,0,0,0.391,0,108,108,148,1,smullen,images/br_smullen.png,images/cb_smullen.png,0,,,,,,,,,,,,,,,,,,,,,,
,,,,,,00077,2023-10-27_10h28.59.969,vbt_B1_day2,2022.2.4,Win32,121.9512195,,,,,,,,,,,,,,,,,,,,,,,,,,,down,0,4.7981,,0.312037065,-0.015740755,1,0,0,0.4576,0,109,109,90,1,geluid,images/br_geluid.png,images/cb_geluid.png,0,,,,,,,,,,,,,,,,,,,,,,
,,,,,,00077,2023-10-27_10h28.59.969,vbt_B1_day2,2022.2.4,Win32,121.9512195,,,,,,,,,,,,,,,,,,,,,,,,,,,down,0,3.4905,,0.312037065,-0.015740755,1,0,0,0.3495,0,110,110,7,1,geld,images/br_geld.png,images/cb_geld.png,0,,,,,,,,,,,,,,,,,,,,,,
,,,,,,00077,2023-10-27_10h28.59.969,vbt_B1_day2,2022.2.4,Win32,121.9512195,,,,,,,,,,,,,,,,,,,,,,,,,,,down,0,8.5871,,0.312037065,-0.015740755,1,0,0,0.4911,0,111,111,47,1,kabel,images/br_kabel.png,images/cb_kabel.png,0,,,,,,,,,,,,,,,,,,,,,,
,,,,,,00077,2023-10-27_10h28.59.969,vbt_B1_day2,2022.2.4,Win32,121.9512195,,,,,,,,,,,,,,,,,,,,,,,,,,,down,0,5.4634,,0.312037065,-0.015740755,1,0,0,1.1985,0,112,112,193,1,weeshuis,images/br_weeshuis.png,images/cb_weeshuis.png,0,,,,,,,,,,,,,,,,,,,,,,
,,,,,,00077,2023-10-27_10h28.59.969,vbt_B1_day2,2022.2.4,Win32,121.9512195,,,,,,,,,,,,,,,,,,,,,,,,,,,down,0,10.1114,,0.312037065,-0.015740755,1,0,0,0.4626,0,113,113,67,1,zwart,images/br_zwart.png,images/cb_zwart.png,0,,,,,,,,,,,,,,,,,,,,,,
,,,,,,00077,2023-10-27_10h28.59.969,vbt_B1_day2,2022.2.4,Win32,121.9512195,,,,,,,,,,,,,,,,,,,,,,,,,,,down,0,8.5749,,0.312037065,-0.015740755,1,0,0,0.6383,0,114,114,136,1,waarbij,images/br_waarbij.png,images/cb_waarbij.png,1,waarbij,,,,,,,,,,,,,,,,,,,,,
,,,,,,00077,2023-10-27_10h28.59.969,vbt_B1_day2,2022.2.4,Win32,121.9512195,,,,,,,,,,,,,,,,,,,,,,,,,,,down,0,7.0807,,0.312037065,-0.015740755,1,0,0,0.9493,0,115,115,60,1,jasje,images/br_jasje.png,images/cb_jasje.png,0,,,,,,,,,,,,,,,,,,,,,,
,,,,,,00077,2023-10-27_10h28.59.969,vbt_B1_day2,2022.2.4,Win32,121.9512195,,,,,,,,,,,,,,,,,,,,,,,,,,,down,0,4.0228,,0.312037065,-0.015740755,1,0,0,0.4032,0,116,116,146,1,opkomen,images/br_opkomen.png,images/cb_opkomen.png,0,,,,,,,,,,,,,,,,,,,,,,
,,,,,,00077,2023-10-27_10h28.59.969,vbt_B1_day2,2022.2.4,Win32,121.9512195,,,,,,,,,,,,,,,,,,,,,,,,,,,down,0,5.2233,,0.312037065,-0.015740755,1,0,0,0.4162,0,117,117,150,1,gegeven,images/br_gegeven.png,images/cb_gegeven.png,0,,,,,,,,,,,,,,,,,,,,,,
,,,,,,00077,2023-10-27_10h28.59.969,vbt_B1_day2,2022.2.4,Win32,121.9512195,,,,,,,,,,,,,,,,,,,,,,,,,,,down,0,5.7217,,0.312037065,-0.015740755,1,0,0,0.4249,0,118,118,91,1,gezond,images/br_gezond.png,images/cb_gezond.png,0,,,,,,,,,,,,,,,,,,,,,,
,,,,,,00077,2023-10-27_10h28.59.969,vbt_B1_day2,2022.2.4,Win32,121.9512195,,,,,,,,,,,,,,,,,,,,,,,,,,,down,0,10.7438,,0.312037065,-0.015740755,1,0,0,0.5002,0,119,119,153,1,vervoer,images/br_vervoer.png,images/cb_vervoer.png,0,,,,,,,,,,,,,,,,,,,,,,
,,,,,,00077,2023-10-27_10h28.59.969,vbt_B1_day2,2022.2.4,Win32,121.9512195,,,,,,,,,,,,,,,,,,,,,,,,,,,down,0,17.3816,,0.312037065,-0.015740755,1,0,0,1.102,0,120,120,179,1,woestijn,images/br_woestijn.png,images/cb_woestijn.png,1,woestijn,,,,,,,,,,,,,,,,,,,,,
,,,,,,00077,2023-10-27_10h28.59.969,vbt_B1_day2,2022.2.4,Win32,121.9512195,,,,,,,,,,,,,,,,,,,,,,,,,,,down,0,11.0786,,0.312037065,-0.015740755,1,0,0,0.6056,0,121,121,180,1,openbaar,images/br_openbaar.png,images/cb_openbaar.png,0,,,,,,,,,,,,,,,,,,,,,,
,,,,,,00077,2023-10-27_10h28.59.969,vbt_B1_day2,2022.2.4,Win32,121.9512195,,,,,,,,,,,,,,,,,,,,,,,,,,,down,0,3.8402,,0.312037065,-0.015740755,1,0,0,1.221,0,122,122,17,1,taal,images/br_taal.png,images/cb_taal.png,1,taal,,,,,,,,,,,,,,,,,,,,,
,,,,,,00077,2023-10-27_10h28.59.969,vbt_B1_day2,2022.2.4,Win32,121.9512195,,,,,,,,,,,,,,,,,,,,,,,,,,,down,0,1.2608,,0.312037065,-0.015740755,1,0,0,0.4833,0,123,123,78,1,leren,images/br_leren.png,images/cb_leren.png,0,,,,,,,,,,,,,,,,,,,,,,
,,,,,,00077,2023-10-27_10h28.59.969,vbt_B1_day2,2022.2.4,Win32,121.9512195,,,,,,,,,,,,,,,,,,,,,,,,,,,down,0,12.5043,,0.312037065,-0.015740755,1,0,0,0.7415,0,124,124,131,1,opzicht,images/br_opzicht.png,images/cb_opzicht.png,0,,,,,,,,,,,,,,,,,,,,,,
,,,,,,00077,2023-10-27_10h28.59.969,vbt_B1_day2,2022.2.4,Win32,121.9512195,,,,,,,,,,,,,,,,,,,,,,,,,,,down,0,20.6806,,0.312037065,-0.015740755,1,0,0,0.7243,0,125,125,129,1,verhaal,images/br_verhaal.png,images/cb_verhaal.png,0,,,,,,,,,,,,,,,,,,,,,,
,,,,,,00077,2023-10-27_10h28.59.969,vbt_B1_day2,2022.2.4,Win32,121.9512195,,,,,,,,,,,,,,,,,,,,,,,,,,,down,0,6.972,,0.312037065,-0.015740755,1,0,0,0.4244,0,126,126,111,1,ticket,images/br_ticket.png,images/cb_ticket.png,0,,,,,,,,,,,,,,,,,,,,,,
,,,,,,00077,2023-10-27_10h28.59.969,vbt_B1_day2,2022.2.4,Win32,121.9512195,,,,,,,,,,,,,,,,,,,,,,,,,,,down,0,6.4382,,0.312037065,-0.015740755,1,0,0,0.4916,0,127,127,121,1,twijfel,images/br_twijfel.png,images/cb_twijfel.png,0,,,,,,,,,,,,,,,,,,,,,,
,,,,,,00077,2023-10-27_10h28.59.969,vbt_B1_day2,2022.2.4,Win32,121.9512195,,,,,,,,,,,,,,,,,,,,,,,,,,,down,0,21.4554,,0.312037065,-0.015740755,1,0,0,0.5758,0,128,128,157,1,uitlaat,images/br_uitlaat.png,images/cb_uitlaat.png,0,,,,,,,,,,,,,,,,,,,,,,
,,,,,,00077,2023-10-27_10h28.59.969,vbt_B1_day2,2022.2.4,Win32,121.9512195,,,,,,,,,,,,,,,,,,,,,,,,,,,down,0,1.6747,,0.312037065,-0.015740755,1,0,0,0.5168,0,129,129,33,1,vlek,images/br_vlek.png,images/cb_vlek.png,0,,,,,,,,,,,,,,,,,,,,,,
,,,,,,00077,2023-10-27_10h28.59.969,vbt_B1_day2,2022.2.4,Win32,121.9512195,,,,,,,,,,,,,,,,,,,,,,,,,,,down,0,2.4993,,0.312037065,-0.015740755,1,0,0,0.3651,0,130,130,65,1,parel,images/br_parel.png,images/cb_parel.png,0,,,,,,,,,,,,,,,,,,,,,,
,,,,,,00077,2023-10-27_10h28.59.969,vbt_B1_day2,2022.2.4,Win32,121.9512195,,,,,,,,,,,,,,,,,,,,,,,,,,,down,0,14.1098,,0.312037065,-0.015740755,1,0,0,0.6995,0,131,131,79,1,nodig,images/br_nodig.png,images/cb_nodig.png,0,,,,,,,,,,,,,,,,,,,,,,
,,,,,,00077,2023-10-27_10h28.59.969,vbt_B1_day2,2022.2.4,Win32,121.9512195,,,,,,,,,,,,,,,,,,,,,,,,,,,down,0,2.8235,,0.312037065,-0.015740755,1,0,0,0.437,0,132,132,187,1,opkijken,images/br_opkijken.png,images/cb_opkijken.png,0,,,,,,,,,,,,,,,,,,,,,,
,,,,,,00077,2023-10-27_10h28.59.969,vbt_B1_day2,2022.2.4,Win32,121.9512195,,,,,,,,,,,,,,,,,,,,,,,,,,,down,0,6.9796,,0.312037065,-0.015740755,1,0,0,0.5168,0,133,133,51,1,samen,images/br_samen.png,images/cb_samen.png,0,,,,,,,,,,,,,,,,,,,,,,
,,,,,,00077,2023-10-27_10h28.59.969,vbt_B1_day2,2022.2.4,Win32,121.9512195,,,,,,,,,,,,,,,,,,,,,,,,,,,down,0,5.6924,,0.312037065,-0.015740755,1,0,0,0.4914,0,134,134,163,1,schuilen,images/br_schuilen.png,images/cb_schuilen.png,0,,,,,,,,,,,,,,,,,,,,,,
,,,,,,00077,2023-10-27_10h28.59.969,vbt_B1_day2,2022.2.4,Win32,121.9512195,,,,,,,,,,,,,,,,,,,,,,,,,,,down,0,7.4124,,0.312037065,-0.015740755,1,0,0,0.8495,0,135,135,99,1,koffie,images/br_koffie.png,images/cb_koffie.png,1,koffie,,,,,,,,,,,,,,,,,,,,,
,,,,,,00077,2023-10-27_10h28.59.969,vbt_B1_day2,2022.2.4,Win32,121.9512195,,,,,,,,,,,,,,,,,,,,,,,,,,,down,0,3.8699,,0.312037065,-0.015740755,1,0,0,1.182,0,136,136,22,1,stof,images/br_stof.png,images/cb_stof.png,0,,,,,,,,,,,,,,,,,,,,,,
,,,,,,00077,2023-10-27_10h28.59.969,vbt_B1_day2,2022.2.4,Win32,121.9512195,,,,,,,,,,,,,,,,,,,,,,,,,,,down,0,3.1655,,0.312037065,-0.015740755,1,0,0,0.4413,0,137,137,141,1,knielen,images/br_knielen.png,images/cb_knielen.png,0,,,,,,,,,,,,,,,,,,,,,,
,,,,,,00077,2023-10-27_10h28.59.969,vbt_B1_day2,2022.2.4,Win32,121.9512195,,,,,,,,,,,,,,,,,,,,,,,,,,,down,0,13.251,,0.312037065,-0.015740755,1,0,0,0.3794,0,138,138,181,1,toegeven,images/br_toegeven.png,images/cb_toegeven.png,0,,,,,,,,,,,,,,,,,,,,,,
,,,,,,00077,2023-10-27_10h28.59.969,vbt_B1_day2,2022.2.4,Win32,121.9512195,,,,,,,,,,,,,,,,,,,,,,,,,,,down,0,5.9307,,0.312037065,-0.015740755,1,0,0,3.4151,0,139,139,137,1,trekker,images/br_trekker.png,images/cb_trekker.png,1,Trekken,,,,,,,,,,,,,,,,,,,,,
,,,,,,00077,2023-10-27_10h28.59.969,vbt_B1_day2,2022.2.4,Win32,121.9512195,,,,,,,,,,,,,,,,,,,,,,,,,,,down,0,2.0829,,0.312037065,-0.015740755,1,0,0,1.5075,0,140,140,38,1,baai,images/br_baai.png,images/cb_baai.png,0,,,,,,,,,,,,,,,,,,,,,,
,,,,,,00077,2023-10-27_10h28.59.969,vbt_B1_day2,2022.2.4,Win32,121.9512195,,,,,,,,,,,,,,,,,,,,,,,,,,,down,0,3.0724,,0.312037065,-0.015740755,1,0,0,0.9325,0,141,141,29,1,baas,images/br_baas.png,images/cb_baas.png,0,,,,,,,,,,,,,,,,,,,,,,
,,,,,,00077,2023-10-27_10h28.59.969,vbt_B1_day2,2022.2.4,Win32,121.9512195,,,,,,,,,,,,,,,,,,,,,,,,,,,down,0,3.0407,,0.312037065,-0.015740755,1,0,0,0.9744,0,142,142,120,1,klimmen,images/br_klimmen.png,images/cb_klimmen.png,0,,,,,,,,,,,,,,,,,,,,,,
,,,,,,00077,2023-10-27_10h28.59.969,vbt_B1_day2,2022.2.4,Win32,121.9512195,,,,,,,,,,,,,,,,,,,,,,,,,,,down,0,8.4538,,0.312037065,-0.015740755,1,0,0,5.6592,0,143,143,15,1,soda,images/br_soda.png,images/cb_soda.png,0,,,,,,,,,,,,,,,,,,,,,,
,,,,,,00077,2023-10-27_10h28.59.969,vbt_B1_day2,2022.2.4,Win32,121.9512195,,,,,,,,,,,,,,,,,,,,,,,,,,,down,0,1.8909,,0.312037065,-0.015740755,1,0,0,0.6242,0,144,144,32,1,palm,images/br_palm.png,images/cb_palm.png,0,,,,,,,,,,,,,,,,,,,,,,
,,,,,,00077,2023-10-27_10h28.59.969,vbt_B1_day2,2022.2.4,Win32,121.9512195,,,,,,,,,,,,,,,,,,,,,,,,,,,down,0,8.5071,,0.312037065,-0.015740755,1,0,0,1.9824,0,145,145,189,1,aanraden,images/br_aanraden.png,images/cb_aanraden.png,0,,,,,,,,,,,,,,,,,,,,,,
,,,,,,00077,2023-10-27_10h28.59.969,vbt_B1_day2,2022.2.4,Win32,121.9512195,,,,,,,,,,,,,,,,,,,,,,,,,,,down,0,1.8162,,0.312037065,-0.015740755,1,0,0,0.3907,0,146,146,102,1,legaal,images/br_legaal.png,images/cb_legaal.png,0,,,,,,,,,,,,,,,,,,,,,,
,,,,,,00077,2023-10-27_10h28.59.969,vbt_B1_day2,2022.2.4,Win32,121.9512195,,,,,,,,,,,,,,,,,,,,,,,,,,,down,0,0.8338,,0.312037065,-0.015740755,1,0,0,4.2805,0,147,147,2,1,jaar,images/br_jaar.png,images/cb_jaar.png,0,,,,,,,,,,,,,,,,,,,,,,
,,,,,,00077,2023-10-27_10h28.59.969,vbt_B1_day2,2022.2.4,Win32,121.9512195,,,,,,,,,,,,,,,,,,,,,,,,,,,down,0,10.7196,,0.312037065,-0.015740755,1,0,0,2.7112,0,148,148,149,1,redding,images/br_redding.png,images/cb_redding.png,0,,,,,,,,,,,,,,,,,,,,,,
,,,,,,00077,2023-10-27_10h28.59.969,vbt_B1_day2,2022.2.4,Win32,121.9512195,,,,,,,,,,,,,,,,,,,,,,,,,,,down,0,2.4409,,0.312037065,-0.015740755,1,0,0,0.9075,0,149,149,1,1,zaal,images/br_zaal.png,images/cb_zaal.png,0,,,,,,,,,,,,,,,,,,,,,,
,,,,,,00077,2023-10-27_10h28.59.969,vbt_B1_day2,2022.2.4,Win32,121.9512195,,,,,,,,,,,,,,,,,,,,,,,,,,,down,0,9.7949,,0.312037065,-0.015740755,1,0,0,1.1161,0,150,150,94,1,oceaan,images/br_oceaan.png,images/cb_oceaan.png,0,,,,,,,,,,,,,,,,,,,,,,
,,,,,,00077,2023-10-27_10h28.59.969,vbt_B1_day2,2022.2.4,Win32,121.9512195,,,,,,,,,,,,,,,,,,,,,,,,,,,down,0,27.1523,,0.312037065,-0.015740755,1,0,0,5.9883,0,151,151,182,1,bijkomen,images/br_bijkomen.png,images/cb_bijkomen.png,0,,,,,,,,,,,,,,,,,,,,,,
,,,,,,00077,2023-10-27_10h28.59.969,vbt_B1_day2,2022.2.4,Win32,121.9512195,,,,,,,,,,,,,,,,,,,,,,,,,,,down,0,29.1924,,0.312037065,-0.015740755,1,0,0,0.6498,0,152,152,178,1,huisdier,images/br_huisdier.png,images/cb_huisdier.png,1,huisdier,,,,,,,,,,,,,,,,,,,,,
,,,,,,00077,2023-10-27_10h28.59.969,vbt_B1_day2,2022.2.4,Win32,121.9512195,,,,,,,,,,,,,,,,,,,,,,,,,,,down,0,9.1949,,0.312037065,-0.015740755,1,0,0,0.5795,0,153,153,27,1,dans,images/br_dans.png,images/cb_dans.png,0,,,,,,,,,,,,,,,,,,,,,,
,,,,,,00077,2023-10-27_10h28.59.969,vbt_B1_day2,2022.2.4,Win32,121.9512195,,,,,,,,,,,,,,,,,,,,,,,,,,,down,0,8.1458,,0.312037065,-0.015740755,1,0,0,0.5163,0,154,154,20,1,site,images/br_site.png,images/cb_site.png,0,,,,,,,,,,,,,,,,,,,,,,
,,,,,,00077,2023-10-27_10h28.59.969,vbt_B1_day2,2022.2.4,Win32,121.9512195,,,,,,,,,,,,,,,,,,,,,,,,,,,down,0,3.4827,,0.312037065,-0.015740755,1,0,0,0.4164,0,155,155,8,1,knie,images/br_knie.png,images/cb_knie.png,0,,,,,,,,,,,,,,,,,,,,,,
,,,,,,00077,2023-10-27_10h28.59.969,vbt_B1_day2,2022.2.4,Win32,121.9512195,,,,,,,,,,,,,,,,,,,,,,,,,,,down,0,3.2445,,0.312037065,-0.015740755,1,0,0,0.4578,0,156,156,31,1,poes,images/br_poes.png,images/cb_poes.png,0,,,,,,,,,,,,,,,,,,,,,,
,,,,,,00077,2023-10-27_10h28.59.969,vbt_B1_day2,2022.2.4,Win32,121.9512195,,,,,,,,,,,,,,,,,,,,,,,,,,,down,0,28.8503,,0.312037065,-0.015740755,1,0,0,0.537,0,157,157,106,1,zingen,images/br_zingen.png,images/cb_zingen.png,0,,,,,,,,,,,,,,,,,,,,,,
,,,,,,00077,2023-10-27_10h28.59.969,vbt_B1_day2,2022.2.4,Win32,121.9512195,,,,,,,,,,,,,,,,,,,,,,,,,,,down,0,13.8156,,0.312037065,-0.015740755,1,0,0,5.6883,0,158,158,195,1,middelen,images/br_middelen.png,images/cb_middelen.png,0,,,,,,,,,,,,,,,,,,,,,,
,,,,,,00077,2023-10-27_10h28.59.969,vbt_B1_day2,2022.2.4,Win32,121.9512195,,,,,,,,,,,,,,,,,,,,,,,,,,,down,0,3.0327,,0.312037065,-0.015740755,1,0,0,0.3919,0,159,159,53,1,baron,images/br_baron.png,images/cb_baron.png,0,,,,,,,,,,,,,,,,,,,,,,
,,,,,,00077,2023-10-27_10h28.59.969,vbt_B1_day2,2022.2.4,Win32,121.9512195,,,,,,,,,,,,,,,,,,,,,,,,,,,down,0,2.6748,,0.313888889,-0.002777778,1,0,0,0.4573,0,160,160,112,1,lukken,images/br_lukken.png,images/cb_lukken.png,0,,,,,,,,,,,,,,,,,,,,,,
,,,,,,00077,2023-10-27_10h28.59.969,vbt_B1_day2,2022.2.4,Win32,121.9512195,,,,,,,,,,,,,,,,,,,,,,,,,,,down,0,0.6345,,0.300925954,0.012037023,1,0,0,2.5973,0,161,161,37,1,mijn,images/br_mijn.png,images/cb_mijn.png,0,,,,,,,,,,,,,,,,,,,,,,
,,,,,,00077,2023-10-27_10h28.59.969,vbt_B1_day2,2022.2.4,Win32,121.9512195,,,,,,,,,,,,,,,,,,,,,,,,,,,down,0,6.9124,,0.300925954,0.012037023,1,0,0,0.478,0,162,162,168,1,bisschop,images/br_bisschop.png,images/cb_bisschop.png,0,,,,,,,,,,,,,,,,,,,,,,
,,,,,,00077,2023-10-27_10h28.59.969,vbt_B1_day2,2022.2.4,Win32,121.9512195,,,,,,,,,,,,,,,,,,,,,,,,,,,down,0,10.5857,,0.300925954,0.012037023,1,0,0,0.5079,0,163,163,87,1,toeval,images/br_toeval.png,images/cb_toeval.png,0,,,,,,,,,,,,,,,,,,,,,,
,,,,,,00077,2023-10-27_10h28.59.969,vbt_B1_day2,2022.2.4,Win32,121.9512195,,,,,,,,,,,,,,,,,,,,,,,,,,,down,0,4.2977,,0.300925954,0.020370356,1,0,0,1.9374,0,164,164,173,1,apparaat,images/br_apparaat.png,images/cb_apparaat.png,0,,,,,,,,,,,,,,,,,,,,,,
,,,,,,00077,2023-10-27_10h28.59.969,vbt_B1_day2,2022.2.4,Win32,121.9512195,,,,,,,,,,,,,,,,,,,,,,,,,,,down,0,30.3743,,0.300925954,0.020370356,1,0,0,1.4496,0,165,165,105,1,wijlen,images/br_wijlen.png,images/cb_wijlen.png,0,,,,,,,,,,,,,,,,,,,,,,
,,,,,,00077,2023-10-27_10h28.59.969,vbt_B1_day2,2022.2.4,Win32,121.9512195,,,,,,,,,,,,,,,,,,,,,,,,,,,down,0,8.8032,,0.300925954,0.020370356,1,0,0,0.5363,0,166,166,118,1,vinger,images/br_vinger.png,images/cb_vinger.png,0,,,,,,,,,,,,,,,,,,,,,,
,,,,,,00077,2023-10-27_10h28.59.969,vbt_B1_day2,2022.2.4,Win32,121.9512195,,,,,,,,,,,,,,,,,,,,,,,,,,,down,0,12.3697,,0.300925954,0.020370356,1,0,0,0.6239,0,167,167,194,1,driemaal,images/br_driemaal.png,images/cb_driemaal.png,0,,,,,,,,,,,,,,,,,,,,,,
,,,,,,00077,2023-10-27_10h28.59.969,vbt_B1_day2,2022.2.4,Win32,121.9512195,,,,,,,,,,,,,,,,,,,,,,,,,,,down,0,12.8854,,0.300925954,0.020370356,1,0,0,6.1257,0,168,168,124,1,bloeien,images/br_bloeien.png,images/cb_bloeien.png,0,,,,,,,,,,,,,,,,,,,,,,
,,,,,,00077,2023-10-27_10h28.59.969,vbt_B1_day2,2022.2.4,Win32,121.9512195,,,,,,,,,,,,,,,,,,,,,,,,,,,down,0,11.0997,,0.300925954,0.020370356,1,0,0,0.884,0,169,169,98,1,kreeft,images/br_kreeft.png,images/cb_kreeft.png,1,kreeft,,,,,,,,,,,,,,,,,,,,,
,,,,,,00077,2023-10-27_10h28.59.969,vbt_B1_day2,2022.2.4,Win32,121.9512195,,,,,,,,,,,,,,,,,,,,,,,,,,,down,0,5.8062,,0.300925954,0.020370356,1,0,0,0.5327,0,170,170,71,1,bever,images/br_bever.png,images/cb_bever.png,0,,,,,,,,,,,,,,,,,,,,,,
,,,,,,00077,2023-10-27_10h28.59.969,vbt_B1_day2,2022.2.4,Win32,121.9512195,,,,,,,,,,,,,,,,,,,,,,,,,,,down,0,3.6834,,0.300925954,0.020370356,1,0,0,4.8933,0,171,171,119,1,liefje,images/br_liefje.png,images/cb_liefje.png,0,,,,,,,,,,,,,,,,,,,,,,
,,,,,,00077,2023-10-27_10h28.59.969,vbt_B1_day2,2022.2.4,Win32,121.9512195,,,,,,,,,,,,,,,,,,,,,,,,,,,down,0,21.2056,,0.300925954,0.020370356,1,0,0,3.1312,0,172,172,143,1,hechten,images/br_hechten.png,images/cb_hechten.png,0,,,,,,,,,,,,,,,,,,,,,,
,,,,,,00077,2023-10-27_10h28.59.969,vbt_B1_day2,2022.2.4,Win32,121.9512195,,,,,,,,,,,,,,,,,,,,,,,,,,,down,0,19.0731,,0.300925954,0.020370356,1,0,0,3.3071,0,173,173,30,1,uien,images/br_uien.png,images/cb_uien.png,0,,,,,,,,,,,,,,,,,,,,,,
,,,,,,00077,2023-10-27_10h28.59.969,vbt_B1_day2,2022.2.4,Win32,121.9512195,,,,,,,,,,,,,,,,,,,,,,,,,,,down,0,8.1136,,0.329629686,0.010185157,1,0,0,1.832,0,174,174,85,1,heilig,images/br_heilig.png,images/cb_heilig.png,0,,,,,,,,,,,,,,,,,,,,,,
,,,,,,00077,2023-10-27_10h28.59.969,vbt_B1_day2,2022.2.4,Win32,121.9512195,,,,,,,,,,,,,,,,,,,,,,,,,,,down,0,4.0738,,0.329629686,0.010185157,1,0,0,2.6235,0,175,175,109,1,totaal,images/br_totaal.png,images/cb_totaal.png,0,,,,,,,,,,,,,,,,,,,,,,
,,,,,,00077,2023-10-27_10h28.59.969,vbt_B1_day2,2022.2.4,Win32,121.9512195,,,,,,,,,,,,,,,,,,,,,,,,,,,down,0,17.266,,0.329629686,0.010185157,1,0,0,1.3825,0,176,176,45,1,piste,images/br_piste.png,images/cb_piste.png,0,,,,,,,,,,,,,,,,,,,,,,
,,,,,,00077,2023-10-27_10h28.59.969,vbt_B1_day2,2022.2.4,Win32,121.9512195,,,,,,,,,,,,,,,,,,,,,,,,,,,down,0,4.5174,,0.329629686,0.010185157,1,0,0,2.8041,0,177,177,197,1,spanning,images/br_spanning.png,images/cb_spanning.png,0,,,,,,,,,,,,,,,,,,,,,,
,,,,,,00077,2023-10-27_10h28.59.969,vbt_B1_day2,2022.2.4,Win32,121.9512195,,,,,,,,,,,,,,,,,,,,,,,,,,,down,0,5.7982,,0.329629686,0.010185157,1,0,0,0.6742,0,178,178,74,1,graaf,images/br_graaf.png,images/cb_graaf.png,0,,,,,,,,,,,,,,,,,,,,,,
,,,,,,00077,2023-10-27_10h28.59.969,vbt_B1_day2,2022.2.4,Win32,121.9512195,,,,,,,,,,,,,,,,,,,,,,,,,,,down,0,5.7476,,0.329629686,0.010185157,1,0,0,0.6245,0,179,179,199,1,beseffen,images/br_beseffen.png,images/cb_beseffen.png,0,,,,,,,,,,,,,,,,,,,,,,
,,,,,,00077,2023-10-27_10h28.59.969,vbt_B1_day2,2022.2.4,Win32,121.9512195,,,,,,,,,,,,,,,,,,,,,,,,,,,down,0,8.6704,,0.321296353,0.010185157,1,0,0,1.2991,0,180,180,26,1,leuk,images/br_leuk.png,images/cb_leuk.png,0,,,,,,,,,,,,,,,,,,,,,,
,,,,,,00077,2023-10-27_10h28.59.969,vbt_B1_day2,2022.2.4,Win32,121.9512195,,,,,,,,,,,,,,,,,,,,,,,,,,,down,0,4.0332,,0.290740797,0.025,1,0,0,0.882,0,181,181,52,1,wagon,images/br_wagon.png,images/cb_wagon.png,0,,,,,,,,,,,,,,,,,,,,,,
,,,,,,00077,2023-10-27_10h28.59.969,vbt_B1_day2,2022.2.4,Win32,121.9512195,,,,,,,,,,,,,,,,,,,,,,,,,,,down,0,7.432,,0.290740797,0.025,1,0,0,3.1731,0,182,182,104,1,zweven,images/br_zweven.png,images/cb_zweven.png,0,,,,,,,,,,,,,,,,,,,,,,
,,,,,,00077,2023-10-27_10h28.59.969,vbt_B1_day2,2022.2.4,Win32,121.9512195,,,,,,,,,,,,,,,,,,,,,,,,,,,down,0,2.0523,,0.290740797,0.025,1,0,0,0.3499,0,183,183,126,1,kasteel,images/br_kasteel.png,images/cb_kasteel.png,0,,,,,,,,,,,,,,,,,,,,,,
,,,,,,00077,2023-10-27_10h28.59.969,vbt_B1_day2,2022.2.4,Win32,121.9512195,,,,,,,,,,,,,,,,,,,,,,,,,,,down,0,7.5302,,0.290740797,0.025,1,0,0,0.9097,0,184,184,139,1,stiekem,images/br_stiekem.png,images/cb_stiekem.png,1,stiekem,,,,,,,,,,,,,,,,,,,,,
,,,,,,00077,2023-10-27_10h28.59.969,vbt_B1_day2,2022.2.4,Win32,121.9512195,,,,,,,,,,,,,,,,,,,,,,,,,,,down,0,30.3917,,0.290740797,0.025,1,0,0,5.2132,0,185,185,127,1,doodmoe,images/br_doodmoe.png,images/cb_doodmoe.png,0,,,,,,,,,,,,,,,,,,,,,,
,,,,,,00077,2023-10-27_10h28.59.969,vbt_B1_day2,2022.2.4,Win32,121.9512195,,,,,,,,,,,,,,,,,,,,,,,,,,,down,0,20.9391,,0.290740797,0.025,1,0,0,5.1554,0,186,186,108,1,excuus,images/br_excuus.png,images/cb_excuus.png,0,,,,,,,,,,,,,,,,,,,,,,
,,,,,,00077,2023-10-27_10h28.59.969,vbt_B1_day2,2022.2.4,Win32,121.9512195,,,,,,,,,,,,,,,,,,,,,,,,,,,down,0,6.8463,,0.300925954,0.039814801,1,0,0,0.8365,0,187,187,171,1,aarzelen,images/br_aarzelen.png,images/cb_aarzelen.png,0,,,,,,,,,,,,,,,,,,,,,,
,,,,,,00077,2023-10-27_10h28.59.969,vbt_B1_day2,2022.2.4,Win32,121.9512195,,,,,,,,,,,,,,,,,,,,,,,,,,,down,0,5.2387,,0.300925954,0.039814801,1,0,0,0.4748,0,188,188,128,1,prikken,images/br_prikken.png,images/cb_prikken.png,0,,,,,,,,,,,,,,,,,,,,,,
,,,,,,00077,2023-10-27_10h28.59.969,vbt_B1_day2,2022.2.4,Win32,121.9512195,,,,,,,,,,,,,,,,,,,,,,,,,,,down,0,14.2859,,0.300925954,0.039814801,1,0,0,0.8916,0,189,189,177,1,maaltijd,images/br_maaltijd.png,images/cb_maaltijd.png,1,maaltijd,,,,,,,,,,,,,,,,,,,,,
,,,,,,00077,2023-10-27_10h28.59.969,vbt_B1_day2,2022.2.4,Win32,121.9512195,,,,,,,,,,,,,,,,,,,,,,,,,,,down,0,13.1849,,0.300925954,0.039814801,1,0,0,0.9329,0,190,190,116,1,besmet,images/br_besmet.png,images/cb_besmet.png,0,,,,,,,,,,,,,,,,,,,,,,
,,,,,,00077,2023-10-27_10h28.59.969,vbt_B1_day2,2022.2.4,Win32,121.9512195,,,,,,,,,,,,,,,,,,,,,,,,,,,down,0,4.9641,,0.300925954,0.039814801,1,0,0,0.6026,0,191,191,55,1,praat,images/br_praat.png,images/cb_praat.png,0,,,,,,,,,,,,,,,,,,,,,,
,,,,,,00077,2023-10-27_10h28.59.969,vbt_B1_day2,2022.2.4,Win32,121.9512195,,,,,,,,,,,,,,,,,,,,,,,,,,,down,0,5.0144,,0.300925954,0.039814801,1,0,0,0.5128,0,192,192,170,1,schatten,images/br_schatten.png,images/cb_schatten.png,0,,,,,,,,,,,,,,,,,,,,,,
,,,,,,00077,2023-10-27_10h28.59.969,vbt_B1_day2,2022.2.4,Win32,121.9512195,,,,,,,,,,,,,,,,,,,,,,,,,,,down,0,2.6156,,0.300925954,0.039814801,1,0,0,0.4713,0,193,193,114,1,vullen,images/br_vullen.png,images/cb_vullen.png,0,,,,,,,,,,,,,,,,,,,,,,
,,,,,,00077,2023-10-27_10h28.59.969,vbt_B1_day2,2022.2.4,Win32,121.9512195,,,,,,,,,,,,,,,,,,,,,,,,,,,down,0,3.1324,,0.300925954,0.039814801,1,0,0,0.5077,0,194,194,88,1,boeien,images/br_boeien.png,images/cb_boeien.png,0,,,,,,,,,,,,,,,,,,,,,,
,,,,,,00077,2023-10-27_10h28.59.969,vbt_B1_day2,2022.2.4,Win32,121.9512195,,,,,,,,,,,,,,,,,,,,,,,,,,,down,0,15.0712,,0.300925954,0.039814801,1,0,0,0.7407,0,195,195,145,1,invloed,images/br_invloed.png,images/cb_invloed.png,0,,,,,,,,,,,,,,,,,,,,,,
,,,,,,00077,2023-10-27_10h28.59.969,vbt_B1_day2,2022.2.4,Win32,121.9512195,,,,,,,,,,,,,,,,,,,,,,,,,,,down,0,3.2087,,0.300925954,0.039814801,1,0,0,0.5,0,196,196,140,1,blijven,images/br_blijven.png,images/cb_blijven.png,0,,,,,,,,,,,,,,,,,,,,,,
,,,,,,00077,2023-10-27_10h28.59.969,vbt_B1_day2,2022.2.4,Win32,121.9512195,,,,,,,,,,,,,,,,,,,,,,,,,,,down,0,4.2061,,0.300925954,0.039814801,1,0,0,0.5907,0,197,197,61,1,groen,images/br_groen.png,images/cb_groen.png,0,,,,,,,,,,,,,,,,,,,,,,
,,,,,,00077,2023-10-27_10h28.59.969,vbt_B1_day2,2022.2.4,Win32,121.9512195,,,,,,,,,,,,,,,,,,,,,,,,,,,down,0,3.7147,,0.300925954,0.039814801,1,0,0,0.5026,0,198,198,169,1,oprotten,images/br_oprotten.png,images/cb_oprotten.png,0,,,,,,,,,,,,,,,,,,,,,,
,,,,,,00077,2023-10-27_10h28.59.969,vbt_B1_day2,2022.2.4,Win32,121.9512195,,,,,,,,,,,,,,,,,,,,,,,,,,,down,0,16.3079,,0.300925954,0.039814801,1,0,0,7.0702,0,199,199,82,1,muziek,images/br_muziek.png,images/cb_muziek.png,0,,,,,,,,,,,,,,,,,,,,,,
,,,,,,00077,2023-10-27_10h28.59.969,vbt_B1_day2,2022.2.4,Win32,121.9512195,,,,,,,,,,,,,,,,,,,,,,,,,,,,,,,,,,,,,,,,,,,,,,,0.334259288,0.171296289,1,0,0,,,,,,,,,,,,,,,,
,,,,,,00077,2023-10-27_10h28.59.969,vbt_B1_day2,2022.2.4,Win32,121.9512195,,,,,,,,,,,,,,,,,,,,,,,,,,,,,,,,,,,,,,,,,,,,,,,,,,,,0.334259288,0.171296289,1,0,0,,,,,,,,,,,
,,,,,,00077,2023-10-27_10h28.59.969,vbt_B1_day2,2022.2.4,Win32,121.9512195,,,,,,,,,,,,,,,,,,,,,,,,,,,,,,,,,,,,,,,,,,plannen,images/br_plannen.png,images/cb_plannen.png,,klann..,,,,,,,,,,,0.334259288,0.171296289,1,0,0,klann..,0,0,0,55,1
,,,,,,00077,2023-10-27_10h28.59.969,vbt_B1_day2,2022.2.4,Win32,121.9512195,,,,,,,,,,,,,,,,,,,,,,,,,,,,,,,,,,,,,,,,,,goon,images/br_goon.png,images/cb_goon.png,,goon,,,,,,,,,,,0.334259288,0.171296289,1,0,0,goon,0,1,1,23,1
,,,,,,00077,2023-10-27_10h28.59.969,vbt_B1_day2,2022.2.4,Win32,121.9512195,,,,,,,,,,,,,,,,,,,,,,,,,,,,,,,,,,,,,,,,,,aanvraag,images/br_aanvraag.png,images/cb_aanvraag.png,,aanvraag,,,,,,,,,,,0.334259288,0.171296289,1,0,0,aanvraag,0,2,2,57,1
,,,,,,00077,2023-10-27_10h28.59.969,vbt_B1_day2,2022.2.4,Win32,121.9512195,,,,,,,,,,,,,,,,,,,,,,,,,,,,,,,,,,,,,,,,,,feestdag,images/br_feestdag.png,images/cb_feestdag.png,,.eest...,,,,,,,,,,,0.334259288,0.171296289,1,0,0,.eest...,0,3,3,17,1
,,,,,,00077,2023-10-27_10h28.59.969,vbt_B1_day2,2022.2.4,Win32,121.9512195,,,,,,,,,,,,,,,,,,,,,,,,,,,,,,,,,,,,,,,,,,flits,images/br_flits.png,images/cb_flits.png,,.tli.s,,,,,,,,,,,0.319444444,0.163888889,1,0,0,.tli.s,0,4,4,4,1
,,,,,,00077,2023-10-27_10h28.59.969,vbt_B1_day2,2022.2.4,Win32,121.9512195,,,,,,,,,,,,,,,,,,,,,,,,,,,,,,,,,,,,,,,,,,badon,images/br_badon.png,images/cb_badon.png,,.a.o.,,,,,,,,,,,0.319444444,0.163888889,1,0,0,.a.o.,0,5,5,26,1
,,,,,,00077,2023-10-27_10h28.59.969,vbt_B1_day2,2022.2.4,Win32,121.9512195,,,,,,,,,,,,,,,,,,,,,,,,,,,,,,,,,,,,,,,,,,sora,images/br_sora.png,images/cb_sora.png,,sora,,,,,,,,,,,0.319444444,0.163888889,1,0,0,sora,0,6,6,22,1
,,,,,,00077,2023-10-27_10h28.59.969,vbt_B1_day2,2022.2.4,Win32,121.9512195,,,,,,,,,,,,,,,,,,,,,,,,,,,,,,,,,,,,,,,,,,breuk,images/br_breuk.png,images/cb_breuk.png,,breimk,,,,,,,,,,,0.319444444,0.163888889,1,0,0,breimk,0,7,7,45,1
,,,,,,00077,2023-10-27_10h28.59.969,vbt_B1_day2,2022.2.4,Win32,121.9512195,,,,,,,,,,,,,,,,,,,,,,,,,,,,,,,,,,,,,,,,,,zegel,images/br_zegel.png,images/cb_zegel.png,,zegel,,,,,,,,,,,0.318518575,0.164814801,1,0,0,zegel,0,8,8,46,1
,,,,,,00077,2023-10-27_10h28.59.969,vbt_B1_day2,2022.2.4,Win32,121.9512195,,,,,,,,,,,,,,,,,,,,,,,,,,,,,,,,,,,,,,,,,,jong,images/br_jong.png,images/cb_jong.png,,.osg,,,,,,,,,,,0.318518575,0.164814801,1,0,0,.osg,0,9,9,43,1
,,,,,,00077,2023-10-27_10h28.59.969,vbt_B1_day2,2022.2.4,Win32,121.9512195,,,,,,,,,,,,,,,,,,,,,,,,,,,,,,,,,,,,,,,,,,krimmen,images/br_krimmen.png,images/cb_krimmen.png,,kri...,,,,,,,,,,,0.318518575,0.164814801,1,0,0,kri...,0,10,10,35,1
,,,,,,00077,2023-10-27_10h28.59.969,vbt_B1_day2,2022.2.4,Win32,121.9512195,,,,,,,,,,,,,,,,,,,,,,,,,,,,,,,,,,,,,,,,,,koorts,images/br_koorts.png,images/cb_koorts.png,,koorts,,,,,,,,,,,0.318518575,0.164814801,1,0,0,koorts,0,11,11,50,1
,,,,,,00077,2023-10-27_10h28.59.969,vbt_B1_day2,2022.2.4,Win32,121.9512195,,,,,,,,,,,,,,,,,,,,,,,,,,,,,,,,,,,,,,,,,,remel,images/br_remel.png,images/cb_remel.png,,re.el,,,,,,,,,,,0.318518575,0.164814801,1,0,0,re.el,0,12,12,25,1
,,,,,,00077,2023-10-27_10h28.59.969,vbt_B1_day2,2022.2.4,Win32,121.9512195,,,,,,,,,,,,,,,,,,,,,,,,,,,,,,,,,,,,,,,,,,opdatten,images/br_opdatten.png,images/cb_opdatten.png,,op....,,,,,,,,,,,0.318518575,0.164814801,1,0,0,op....,0,13,13,37,1
,,,,,,00077,2023-10-27_10h28.59.969,vbt_B1_day2,2022.2.4,Win32,121.9512195,,,,,,,,,,,,,,,,,,,,,,,,,,,,,,,,,,,,,,,,,,aanzien,images/br_aanzien.png,images/cb_aanzien.png,,aasziel,,,,,,,,,,,0.318518575,0.164814801,1,0,0,aasziel,0,14,14,13,1
,,,,,,00077,2023-10-27_10h28.59.969,vbt_B1_day2,2022.2.4,Win32,121.9512195,,,,,,,,,,,,,,,,,,,,,,,,,,,,,,,,,,,,,,,,,,anarchie,images/br_anarchie.png,images/cb_anarchie.png,,ana....,,,,,,,,,,,0.318518575,0.164814801,1,0,0,ana....,0,15,15,16,1
,,,,,,00077,2023-10-27_10h28.59.969,vbt_B1_day2,2022.2.4,Win32,121.9512195,,,,,,,,,,,,,,,,,,,,,,,,,,,,,,,,,,,,,,,,,,trots,images/br_trots.png,images/cb_trots.png,,.ko..,,,,,,,,,,,0.312963019,0.166666667,1,0,0,.ko..,0,16,16,44,1
,,,,,,00077,2023-10-27_10h28.59.969,vbt_B1_day2,2022.2.4,Win32,121.9512195,,,,,,,,,,,,,,,,,,,,,,,,,,,,,,,,,,,,,,,,,,sifferd,images/br_sifferd.png,images/cb_sifferd.png,,si....,,,,,,,,,,,0.312963019,0.166666667,1,0,0,si....,0,17,17,32,1
,,,,,,00077,2023-10-27_10h28.59.969,vbt_B1_day2,2022.2.4,Win32,121.9512195,,,,,,,,,,,,,,,,,,,,,,,,,,,,,,,,,,,,,,,,,,lokken,images/br_lokken.png,images/cb_lokken.png,,lokken,,,,,,,,,,,0.312963019,0.166666667,1,0,0,lokken,0,18,18,8,1
,,,,,,00077,2023-10-27_10h28.59.969,vbt_B1_day2,2022.2.4,Win32,121.9512195,,,,,,,,,,,,,,,,,,,,,,,,,,,,,,,,,,,,,,,,,,toeval,images/br_toeval.png,images/cb_toeval.png,,toeval,,,,,,,,,,,0.312963019,0.166666667,1,0,0,toeval,0,19,19,11,1
,,,,,,00077,2023-10-27_10h28.59.969,vbt_B1_day2,2022.2.4,Win32,121.9512195,,,,,,,,,,,,,,,,,,,,,,,,,,,,,,,,,,,,,,,,,,heengeen,images/br_heengeen.png,images/cb_heengeen.png,,.eeng,,,,,,,,,,,0.219444444,0.163888889,1,0,0,.eeng,0,20,20,38,1
,,,,,,00077,2023-10-27_10h28.59.969,vbt_B1_day2,2022.2.4,Win32,121.9512195,,,,,,,,,,,,,,,,,,,,,,,,,,,,,,,,,,,,,,,,,,lurgen,images/br_lurgen.png,images/cb_lurgen.png,,luag..,,,,,,,,,,,0.219444444,0.163888889,1,0,0,luag..,0,21,21,29,1
,,,,,,00077,2023-10-27_10h28.59.969,vbt_B1_day2,2022.2.4,Win32,121.9512195,,,,,,,,,,,,,,,,,,,,,,,,,,,,,,,,,,,,,,,,,,prekken,images/br_prekken.png,images/cb_prekken.png,,ptekk..,,,,,,,,,,,0.219444444,0.163888889,1,0,0,ptekk..,0,22,22,34,1
,,,,,,00077,2023-10-27_10h28.59.969,vbt_B1_day2,2022.2.4,Win32,121.9512195,,,,,,,,,,,,,,,,,,,,,,,,,,,,,,,,,,,,,,,,,,sjijfel,images/br_sjijfel.png,images/cb_sjijfel.png,,sjij..,,,,,,,,,,,0.219444444,0.163888889,1,0,0,sjij..,0,23,23,33,1
,,,,,,00077,2023-10-27_10h28.59.969,vbt_B1_day2,2022.2.4,Win32,121.9512195,,,,,,,,,,,,,,,,,,,,,,,,,,,,,,,,,,,,,,,,,,zomers,images/br_zomers.png,images/cb_zomers.png,,nomer.,,,,,,,,,,,0.219444444,0.163888889,1,0,0,nomer.,0,24,24,48,1
,,,,,,00077,2023-10-27_10h28.59.969,vbt_B1_day2,2022.2.4,Win32,121.9512195,,,,,,,,,,,,,,,,,,,,,,,,,,,,,,,,,,,,,,,,,,doodmoe,images/br_doodmoe.png,images/cb_doodmoe.png,,dood...,,,,,,,,,,,0.219444444,0.163888889,1,0,0,dood...,0,25,25,15,1
,,,,,,00077,2023-10-27_10h28.59.969,vbt_B1_day2,2022.2.4,Win32,121.9512195,,,,,,,,,,,,,,,,,,,,,,,,,,,,,,,,,,,,,,,,,,tweeling,images/br_tweeling.png,images/cb_tweeling.png,,tweeling,,,,,,,,,,,0.219444444,0.163888889,1,0,0,tweeling,0,26,26,58,1
,,,,,,00077,2023-10-27_10h28.59.969,vbt_B1_day2,2022.2.4,Win32,121.9512195,,,,,,,,,,,,,,,,,,,,,,,,,,,,,,,,,,,,,,,,,,ningen,images/br_ningen.png,images/cb_ningen.png,,sisgeg,,,,,,,,,,,0.219444444,0.163888889,1,0,0,sisgeg,0,27,27,28,1
,,,,,,00077,2023-10-27_10h28.59.969,vbt_B1_day2,2022.2.4,Win32,121.9512195,,,,,,,,,,,,,,,,,,,,,,,,,,,,,,,,,,,,,,,,,,bereuwen,images/br_bereuwen.png,images/cb_bereuwen.png,,bete....,,,,,,,,,,,0.219444444,0.163888889,1,0,0,bete....,0,28,28,39,1
,,,,,,00077,2023-10-27_10h28.59.969,vbt_B1_day2,2022.2.4,Win32,121.9512195,,,,,,,,,,,,,,,,,,,,,,,,,,,,,,,,,,,,,,,,,,stes,images/br_stes.png,images/cb_stes.png,,stis,,,,,,,,,,,0.219444444,0.163888889,1,0,0,stis,0,29,29,21,1
,,,,,,00077,2023-10-27_10h28.59.969,vbt_B1_day2,2022.2.4,Win32,121.9512195,,,,,,,,,,,,,,,,,,,,,,,,,,,,,,,,,,,,,,,,,,wijve,images/br_wijve.png,images/cb_wijve.png,,wijve,,,,,,,,,,,0.219444444,0.163888889,1,0,0,wijve,0,30,30,27,1
,,,,,,00077,2023-10-27_10h28.59.969,vbt_B1_day2,2022.2.4,Win32,121.9512195,,,,,,,,,,,,,,,,,,,,,,,,,,,,,,,,,,,,,,,,,,heilig,images/br_heilig.png,images/cb_heilig.png,,heil...,,,,,,,,,,,0.219444444,0.163888889,1,0,0,heil...,0,31,31,9,1
,,,,,,00077,2023-10-27_10h28.59.969,vbt_B1_day2,2022.2.4,Win32,121.9512195,,,,,,,,,,,,,,,,,,,,,,,,,,,,,,,,,,,,,,,,,,thema,images/br_thema.png,images/cb_thema.png,,theva,,,,,,,,,,,0.219444444,0.163888889,1,0,0,theva,0,32,32,47,1
,,,,,,00077,2023-10-27_10h28.59.969,vbt_B1_day2,2022.2.4,Win32,121.9512195,,,,,,,,,,,,,,,,,,,,,,,,,,,,,,,,,,,,,,,,,,strikken,images/br_strikken.png,images/cb_strikken.png,,strikken,,,,,,,,,,,0.225,-0.080555556,1,0,0,strikken,0,33,33,18,1
,,,,,,00077,2023-10-27_10h28.59.969,vbt_B1_day2,2022.2.4,Win32,121.9512195,,,,,,,,,,,,,,,,,,,,,,,,,,,,,,,,,,,,,,,,,,kabel,images/br_kabel.png,images/cb_kabel.png,,kabel,,,,,,,,,,,0.225,-0.080555556,1,0,0,kabel,0,34,34,7,1
,,,,,,00077,2023-10-27_10h28.59.969,vbt_B1_day2,2022.2.4,Win32,121.9512195,,,,,,,,,,,,,,,,,,,,,,,,,,,,,,,,,,,,,,,,,,geld,images/br_geld.png,images/cb_geld.png,,geld,,,,,,,,,,,0.225,-0.080555556,1,0,0,geld,0,35,35,3,1
,,,,,,00077,2023-10-27_10h28.59.969,vbt_B1_day2,2022.2.4,Win32,121.9512195,,,,,,,,,,,,,,,,,,,,,,,,,,,,,,,,,,,,,,,,,,tand,images/br_tand.png,images/cb_tand.png,,tand,,,,,,,,,,,0.225,-0.080555556,1,0,0,tand,0,36,36,42,1
,,,,,,00077,2023-10-27_10h28.59.969,vbt_B1_day2,2022.2.4,Win32,121.9512195,,,,,,,,,,,,,,,,,,,,,,,,,,,,,,,,,,,,,,,,,,clan,images/br_clan.png,images/cb_clan.png,,clan,,,,,,,,,,,0.225,-0.080555556,1,0,0,clan,0,37,37,40,1
,,,,,,00077,2023-10-27_10h28.59.969,vbt_B1_day2,2022.2.4,Win32,121.9512195,,,,,,,,,,,,,,,,,,,,,,,,,,,,,,,,,,,,,,,,,,woning,images/br_woning.png,images/cb_woning.png,,woning,,,,,,,,,,,0.225,-0.080555556,1,0,0,woning,0,38,38,10,1
,,,,,,00077,2023-10-27_10h28.59.969,vbt_B1_day2,2022.2.4,Win32,121.9512195,,,,,,,,,,,,,,,,,,,,,,,,,,,,,,,,,,,,,,,,,,welzijn,images/br_welzijn.png,images/cb_welzijn.png,,welne..,,,,,,,,,,,0.225,-0.080555556,1,0,0,welne..,0,39,39,52,1
,,,,,,00077,2023-10-27_10h28.59.969,vbt_B1_day2,2022.2.4,Win32,121.9512195,,,,,,,,,,,,,,,,,,,,,,,,,,,,,,,,,,,,,,,,,,moes,images/br_moes.png,images/cb_moes.png,,.oe.,,,,,,,,,,,0.225,-0.080555556,1,0,0,.oe.,0,40,40,0,1
,,,,,,00077,2023-10-27_10h28.59.969,vbt_B1_day2,2022.2.4,Win32,121.9512195,,,,,,,,,,,,,,,,,,,,,,,,,,,,,,,,,,,,,,,,,,kijlen,images/br_kijlen.png,images/cb_kijlen.png,,kilden,,,,,,,,,,,0.225,-0.080555556,1,0,0,kilden,0,41,41,31,1
,,,,,,00077,2023-10-27_10h28.59.969,vbt_B1_day2,2022.2.4,Win32,121.9512195,,,,,,,,,,,,,,,,,,,,,,,,,,,,,,,,,,,,,,,,,,ophuimen,images/br_ophuimen.png,images/cb_ophuimen.png,,oph....,,,,,,,,,,,0.218518575,-0.078703732,1,0,0,oph....,0,42,42,36,1
,,,,,,00077,2023-10-27_10h28.59.969,vbt_B1_day2,2022.2.4,Win32,121.9512195,,,,,,,,,,,,,,,,,,,,,,,,,,,,,,,,,,,,,,,,,,agressie,images/br_agressie.png,images/cb_agressie.png,,agressie,,,,,,,,,,,0.218518575,-0.078703732,1,0,0,agressie,0,43,43,59,1
,,,,,,00077,2023-10-27_10h28.59.969,vbt_B1_day2,2022.2.4,Win32,121.9512195,,,,,,,,,,,,,,,,,,,,,,,,,,,,,,,,,,,,,,,,,,inzicht,images/br_inzicht.png,images/cb_inzicht.png,,isni...,,,,,,,,,,,0.226851908,-0.077777778,1,0,0,isni...,0,44,44,53,1
,,,,,,00077,2023-10-27_10h28.59.969,vbt_B1_day2,2022.2.4,Win32,121.9512195,,,,,,,,,,,,,,,,,,,,,,,,,,,,,,,,,,,,,,,,,,kenzis,images/br_kenzis.png,images/cb_kenzis.png,,,,,,,,,,,,,0.226851908,-0.077777778,1,0,0,,0,45,45,30,1
,,,,,,00077,2023-10-27_10h28.59.969,vbt_B1_day2,2022.2.4,Win32,121.9512195,,,,,,,,,,,,,,,,,,,,,,,,,,,,,,,,,,,,,,,,,,bloeien,images/br_bloeien.png,images/cb_bloeien.png,,bloeien,,,,,,,,,,,0.226851908,-0.077777778,1,0,0,bloeien,0,46,46,12,1
,,,,,,00077,2023-10-27_10h28.59.969,vbt_B1_day2,2022.2.4,Win32,121.9512195,,,,,,,,,,,,,,,,,,,,,,,,,,,,,,,,,,,,,,,,,,manieren,images/br_manieren.png,images/cb_manieren.png,,,,,,,,,,,,,0.226851908,-0.077777778,1,0,0,,0,47,47,56,1
,,,,,,00077,2023-10-27_10h28.59.969,vbt_B1_day2,2022.2.4,Win32,121.9512195,,,,,,,,,,,,,,,,,,,,,,,,,,,,,,,,,,,,,,,,,,kasteel,images/br_kasteel.png,images/cb_kasteel.png,,kasteel,,,,,,,,,,,0.226851908,-0.077777778,1,0,0,kasteel,0,48,48,14,1
,,,,,,00077,2023-10-27_10h28.59.969,vbt_B1_day2,2022.2.4,Win32,121.9512195,,,,,,,,,,,,,,,,,,,,,,,,,,,,,,,,,,,,,,,,,,systeem,images/br_systeem.png,images/cb_systeem.png,,,,,,,,,,,,,0.226851908,-0.077777778,1,0,0,,0,49,49,54,1
,,,,,,00077,2023-10-27_10h28.59.969,vbt_B1_day2,2022.2.4,Win32,121.9512195,,,,,,,,,,,,,,,,,,,,,,,,,,,,,,,,,,,,,,,,,,zwager,images/br_zwager.png,images/cb_zwager.png,,zwag..,,,,,,,,,,,0.226851908,-0.077777778,1,0,0,zwag..,0,50,50,49,1
,,,,,,00077,2023-10-27_10h28.59.969,vbt_B1_day2,2022.2.4,Win32,121.9512195,,,,,,,,,,,,,,,,,,,,,,,,,,,,,,,,,,,,,,,,,,blad,images/br_blad.png,images/cb_blad.png,,blad,,,,,,,,,,,0.226851908,-0.077777778,1,0,0,blad,0,51,51,1,1
,,,,,,00077,2023-10-27_10h28.59.969,vbt_B1_day2,2022.2.4,Win32,121.9512195,,,,,,,,,,,,,,,,,,,,,,,,,,,,,,,,,,,,,,,,,,jagen,images/br_jagen.png,images/cb_jagen.png,,dagen,,,,,,,,,,,0.226851908,-0.077777778,1,0,0,dagen,0,52,52,6,1
,,,,,,00077,2023-10-27_10h28.59.969,vbt_B1_day2,2022.2.4,Win32,121.9512195,,,,,,,,,,,,,,,,,,,,,,,,,,,,,,,,,,,,,,,,,,eenhoorn,images/br_eenhoorn.png,images/cb_eenhoorn.png,,eenhoorn,,,,,,,,,,,0.226851908,-0.077777778,1,0,0,eenhoorn,0,53,53,19,1
,,,,,,00077,2023-10-27_10h28.59.969,vbt_B1_day2,2022.2.4,Win32,121.9512195,,,,,,,,,,,,,,,,,,,,,,,,,,,,,,,,,,,,,,,,,,piste,images/br_piste.png,images/cb_piste.png,,pe.te,,,,,,,,,,,0.226851908,-0.077777778,1,0,0,pe.te,0,54,54,5,1
,,,,,,00077,2023-10-27_10h28.59.969,vbt_B1_day2,2022.2.4,Win32,121.9512195,,,,,,,,,,,,,,,,,,,,,,,,,,,,,,,,,,,,,,,,,,lijnen,images/br_lijnen.png,images/cb_lijnen.png,,leiding,,,,,,,,,,,0.226851908,-0.077777778,1,0,0,leiding,0,55,55,51,1
,,,,,,00077,2023-10-27_10h28.59.969,vbt_B1_day2,2022.2.4,Win32,121.9512195,,,,,,,,,,,,,,,,,,,,,,,,,,,,,,,,,,,,,,,,,,joes,images/br_joes.png,images/cb_joes.png,,doe.,,,,,,,,,,,0.226851908,-0.077777778,1,0,0,doe.,0,56,56,20,1
,,,,,,00077,2023-10-27_10h28.59.969,vbt_B1_day2,2022.2.4,Win32,121.9512195,,,,,,,,,,,,,,,,,,,,,,,,,,,,,,,,,,,,,,,,,,diep,images/br_diep.png,images/cb_diep.png,,de..,,,,,,,,,,,0.226851908,-0.077777778,1,0,0,de..,0,57,57,2,1
,,,,,,00077,2023-10-27_10h28.59.969,vbt_B1_day2,2022.2.4,Win32,121.9512195,,,,,,,,,,,,,,,,,,,,,,,,,,,,,,,,,,,,,,,,,,negel,images/br_negel.png,images/cb_negel.png,,.egel,,,,,,,,,,,0.226851908,-0.077777778,1,0,0,.egel,0,58,58,24,1
,,,,,,00077,2023-10-27_10h28.59.969,vbt_B1_day2,2022.2.4,Win32,121.9512195,,,,,,,,,,,,,,,,,,,,,,,,,,,,,,,,,,,,,,,,,,dode,images/br_dode.png,images/cb_dode.png,,dode,,,,,,,,,,,0.226851908,-0.077777778,1,0,0,dode,0,59,59,41,1
,,,,,,00077,2023-10-27_10h28.59.969,vbt_B1_day2,2022.2.4,Win32,121.9512195,,,,,,,,,,,,,,,,,,,,,,,,,,,,,,,,,,,,,,,,,,,,,,,,,,,,,,,,,,,,,,,,,,,
