welcome_mouse.x,welcome_mouse.y,welcome_mouse.leftButton,welcome_mouse.midButton,welcome_mouse.rightButton,welcome_mouse.time,"ID",date,expName,psychopyVersion,OS,frameRate,refresh_mouse.x,refresh_mouse.y,refresh_mouse.leftButton,refresh_mouse.midButton,refresh_mouse.rightButton,refresh_mouse.time,braille_mouse.x,braille_mouse.y,braille_mouse.leftButton,braille_mouse.midButton,braille_mouse.rightButton,braille_mouse.time,trials.thisRepN,trials.thisTrialN,trials.thisN,trials.thisIndex,trials.ran,nlLet,brLet,cbLet,trainInstr_mouse.x,trainInstr_mouse.y,trainInstr_mouse.leftButton,trainInstr_mouse.midButton,trainInstr_mouse.rightButton,trainInstr_mouse.time,translation_key.keys,translation_key.corr,translation_key.rt,word_rsp.text,word_mouse.x,word_mouse.y,word_mouse.leftButton,word_mouse.midButton,word_mouse.rightButton,word_mouse.time,train_loop.thisRepN,train_loop.thisTrialN,train_loop.thisN,train_loop.thisIndex,train_loop.ran,nlWrd,brWrd,cbWrd,test,testResp,mouse.x,mouse.y,mouse.leftButton,mouse.midButton,mouse.rightButton,testInstr_mouse.x,testInstr_mouse.y,testInstr_mouse.leftButton,testInstr_mouse.midButton,testInstr_mouse.rightButton,test_mouse.x,test_mouse.y,test_mouse.leftButton,test_mouse.midButton,test_mouse.rightButton,test_response.text,test_loop.thisRepN,test_loop.thisTrialN,test_loop.thisN,test_loop.thisIndex,test_loop.ran
-0.16851849,-0.252777806,1,0,0,12.7034,00046,2023-10-02_18h50.18.179,vbt_B1_day2,2022.2.4,Win32,59.5167242,,,,,,,,,,,,,,,,,,,,,,,,,,,,,,,,,,,,,,,,,,,,,,,,,,,,,,,,,,,,,,,,,,,
,,,,,,00046,2023-10-02_18h50.18.179,vbt_B1_day2,2022.2.4,Win32,59.5167242,-0.16851849,-0.252777806,1,0,0,9.5414,,,,,,,,,,,,,,,,,,,,,,,,,,,,,,,,,,,,,,,,,,,,,,,,,,,,,,,,,,,,,
,,,,,,00046,2023-10-02_18h50.18.179,vbt_B1_day2,2022.2.4,Win32,59.5167242,,,,,,,-0.16851849,-0.252777806,1,0,0,0.7034,0,0,0,11,1,l,images/br_l.png,images/cb_l.png,,,,,,,,,,,,,,,,,,,,,,,,,,,,,,,,,,,,,,,,,,,,,,,
,,,,,,00046,2023-10-02_18h50.18.179,vbt_B1_day2,2022.2.4,Win32,59.5167242,,,,,,,-0.16851849,-0.252777806,1,0,0,0.9231,0,1,1,25,1,z,images/br_z.png,images/cb_z.png,,,,,,,,,,,,,,,,,,,,,,,,,,,,,,,,,,,,,,,,,,,,,,,
,,,,,,00046,2023-10-02_18h50.18.179,vbt_B1_day2,2022.2.4,Win32,59.5167242,,,,,,,-0.16851849,-0.252777806,1,0,0,0.5838,0,2,2,20,1,u,images/br_u.png,images/cb_u.png,,,,,,,,,,,,,,,,,,,,,,,,,,,,,,,,,,,,,,,,,,,,,,,
,,,,,,00046,2023-10-02_18h50.18.179,vbt_B1_day2,2022.2.4,Win32,59.5167242,,,,,,,-0.107407393,-0.194444444,1,0,0,0.4014,0,3,3,24,1,y,images/br_y.png,images/cb_y.png,,,,,,,,,,,,,,,,,,,,,,,,,,,,,,,,,,,,,,,,,,,,,,,
,,,,,,00046,2023-10-02_18h50.18.179,vbt_B1_day2,2022.2.4,Win32,59.5167242,,,,,,,-0.107407393,-0.194444444,1,0,0,0.2286,0,4,4,10,1,k,images/br_k.png,images/cb_k.png,,,,,,,,,,,,,,,,,,,,,,,,,,,,,,,,,,,,,,,,,,,,,,,
,,,,,,00046,2023-10-02_18h50.18.179,vbt_B1_day2,2022.2.4,Win32,59.5167242,,,,,,,-0.107407393,-0.194444444,1,0,0,0.8999,0,5,5,23,1,x,images/br_x.png,images/cb_x.png,,,,,,,,,,,,,,,,,,,,,,,,,,,,,,,,,,,,,,,,,,,,,,,
,,,,,,00046,2023-10-02_18h50.18.179,vbt_B1_day2,2022.2.4,Win32,59.5167242,,,,,,,-0.107407393,-0.194444444,1,0,0,0.0507,0,6,6,18,1,s,images/br_s.png,images/cb_s.png,,,,,,,,,,,,,,,,,,,,,,,,,,,,,,,,,,,,,,,,,,,,,,,
,,,,,,00046,2023-10-02_18h50.18.179,vbt_B1_day2,2022.2.4,Win32,59.5167242,,,,,,,-0.107407393,-0.194444444,1,0,0,2.8619,0,7,7,7,1,h,images/br_h.png,images/cb_h.png,,,,,,,,,,,,,,,,,,,,,,,,,,,,,,,,,,,,,,,,,,,,,,,
,,,,,,00046,2023-10-02_18h50.18.179,vbt_B1_day2,2022.2.4,Win32,59.5167242,,,,,,,-0.107407393,-0.194444444,1,0,0,0.5944,0,8,8,19,1,t,images/br_t.png,images/cb_t.png,,,,,,,,,,,,,,,,,,,,,,,,,,,,,,,,,,,,,,,,,,,,,,,
,,,,,,00046,2023-10-02_18h50.18.179,vbt_B1_day2,2022.2.4,Win32,59.5167242,,,,,,,-0.107407393,-0.194444444,1,0,0,0.3794,0,9,9,6,1,g,images/br_g.png,images/cb_g.png,,,,,,,,,,,,,,,,,,,,,,,,,,,,,,,,,,,,,,,,,,,,,,,
,,,,,,00046,2023-10-02_18h50.18.179,vbt_B1_day2,2022.2.4,Win32,59.5167242,,,,,,,-0.107407393,-0.194444444,1,0,0,0.7865,0,10,10,17,1,r,images/br_r.png,images/cb_r.png,,,,,,,,,,,,,,,,,,,,,,,,,,,,,,,,,,,,,,,,,,,,,,,
,,,,,,00046,2023-10-02_18h50.18.179,vbt_B1_day2,2022.2.4,Win32,59.5167242,,,,,,,-0.107407393,-0.194444444,1,0,0,1.4481,0,11,11,3,1,d,images/br_d.png,images/cb_d.png,,,,,,,,,,,,,,,,,,,,,,,,,,,,,,,,,,,,,,,,,,,,,,,
,,,,,,00046,2023-10-02_18h50.18.179,vbt_B1_day2,2022.2.4,Win32,59.5167242,,,,,,,-0.107407393,-0.194444444,1,0,0,0.6572,0,12,12,9,1,j,images/br_j.png,images/cb_j.png,,,,,,,,,,,,,,,,,,,,,,,,,,,,,,,,,,,,,,,,,,,,,,,
,,,,,,00046,2023-10-02_18h50.18.179,vbt_B1_day2,2022.2.4,Win32,59.5167242,,,,,,,-0.107407393,-0.194444444,1,0,0,0.2633,0,13,13,16,1,q,images/br_q.png,images/cb_q.png,,,,,,,,,,,,,,,,,,,,,,,,,,,,,,,,,,,,,,,,,,,,,,,
,,,,,,00046,2023-10-02_18h50.18.179,vbt_B1_day2,2022.2.4,Win32,59.5167242,,,,,,,-0.107407393,-0.194444444,1,0,0,0.1993,0,14,14,1,1,b,images/br_b.png,images/cb_b.png,,,,,,,,,,,,,,,,,,,,,,,,,,,,,,,,,,,,,,,,,,,,,,,
,,,,,,00046,2023-10-02_18h50.18.179,vbt_B1_day2,2022.2.4,Win32,59.5167242,,,,,,,-0.107407393,-0.194444444,1,0,0,0.4502,0,15,15,12,1,m,images/br_m.png,images/cb_m.png,,,,,,,,,,,,,,,,,,,,,,,,,,,,,,,,,,,,,,,,,,,,,,,
,,,,,,00046,2023-10-02_18h50.18.179,vbt_B1_day2,2022.2.4,Win32,59.5167242,,,,,,,-0.107407393,-0.194444444,1,0,0,0.9299,0,16,16,21,1,v,images/br_v.png,images/cb_v.png,,,,,,,,,,,,,,,,,,,,,,,,,,,,,,,,,,,,,,,,,,,,,,,
,,,,,,00046,2023-10-02_18h50.18.179,vbt_B1_day2,2022.2.4,Win32,59.5167242,,,,,,,-0.107407393,-0.194444444,1,0,0,1.3894,0,17,17,22,1,w,images/br_w.png,images/cb_w.png,,,,,,,,,,,,,,,,,,,,,,,,,,,,,,,,,,,,,,,,,,,,,,,
,,,,,,00046,2023-10-02_18h50.18.179,vbt_B1_day2,2022.2.4,Win32,59.5167242,,,,,,,-0.107407393,-0.194444444,1,0,0,0.2828,0,18,18,8,1,i,images/br_i.png,images/cb_i.png,,,,,,,,,,,,,,,,,,,,,,,,,,,,,,,,,,,,,,,,,,,,,,,
,,,,,,00046,2023-10-02_18h50.18.179,vbt_B1_day2,2022.2.4,Win32,59.5167242,,,,,,,-0.107407393,-0.194444444,1,0,0,1.1136,0,19,19,5,1,f,images/br_f.png,images/cb_f.png,,,,,,,,,,,,,,,,,,,,,,,,,,,,,,,,,,,,,,,,,,,,,,,
,,,,,,00046,2023-10-02_18h50.18.179,vbt_B1_day2,2022.2.4,Win32,59.5167242,,,,,,,-0.107407393,-0.194444444,1,0,0,1.4888,0,20,20,15,1,p,images/br_p.png,images/cb_p.png,,,,,,,,,,,,,,,,,,,,,,,,,,,,,,,,,,,,,,,,,,,,,,,
,,,,,,00046,2023-10-02_18h50.18.179,vbt_B1_day2,2022.2.4,Win32,59.5167242,,,,,,,-0.107407393,-0.196296339,1,0,0,0.2545,0,21,21,4,1,e,images/br_e.png,images/cb_e.png,,,,,,,,,,,,,,,,,,,,,,,,,,,,,,,,,,,,,,,,,,,,,,,
,,,,,,00046,2023-10-02_18h50.18.179,vbt_B1_day2,2022.2.4,Win32,59.5167242,,,,,,,-0.107407393,-0.196296339,1,0,0,0.6981,0,22,22,0,1,a,images/br_a.png,images/cb_a.png,,,,,,,,,,,,,,,,,,,,,,,,,,,,,,,,,,,,,,,,,,,,,,,
,,,,,,00046,2023-10-02_18h50.18.179,vbt_B1_day2,2022.2.4,Win32,59.5167242,,,,,,,-0.107407393,-0.196296339,1,0,0,2.2501,0,23,23,2,1,c,images/br_c.png,images/cb_c.png,,,,,,,,,,,,,,,,,,,,,,,,,,,,,,,,,,,,,,,,,,,,,,,
,,,,,,00046,2023-10-02_18h50.18.179,vbt_B1_day2,2022.2.4,Win32,59.5167242,,,,,,,-0.107407393,-0.196296339,1,0,0,0.0872,0,24,24,13,1,n,images/br_n.png,images/cb_n.png,,,,,,,,,,,,,,,,,,,,,,,,,,,,,,,,,,,,,,,,,,,,,,,
,,,,,,00046,2023-10-02_18h50.18.179,vbt_B1_day2,2022.2.4,Win32,59.5167242,,,,,,,-0.107407393,-0.196296339,1,0,0,0.5986,0,25,25,14,1,o,images/br_o.png,images/cb_o.png,,,,,,,,,,,,,,,,,,,,,,,,,,,,,,,,,,,,,,,,,,,,,,,
,,,,,,00046,2023-10-02_18h50.18.179,vbt_B1_day2,2022.2.4,Win32,59.5167242,,,,,,,,,,,,,,,,,,,,,-0.107407393,-0.196296339,1,0,0,29.9456,,,,,,,,,,,,,,,,,,,,,,,,,,,,,,,,,,,,,,,,,
,,,,,,00046,2023-10-02_18h50.18.179,vbt_B1_day2,2022.2.4,Win32,59.5167242,,,,,,,,,,,,,,,,,,,,,,,,,,,down,0,7.4322,,-0.107407393,-0.196296339,1,0,0,1.4544,0,0,0,28,1,stal,images/br_stal.png,images/cb_stal.png,0,,,,,,,,,,,,,,,,,,,,,,
,,,,,,00046,2023-10-02_18h50.18.179,vbt_B1_day2,2022.2.4,Win32,59.5167242,,,,,,,,,,,,,,,,,,,,,,,,,,,down,0,14.0512,,-0.107407393,-0.196296339,1,0,0,1.4608,0,1,1,70,1,ijdel,images/br_ijdel.png,images/cb_ijdel.png,0,,,,,,,,,,,,,,,,,,,,,,
,,,,,,00046,2023-10-02_18h50.18.179,vbt_B1_day2,2022.2.4,Win32,59.5167242,,,,,,,,,,,,,,,,,,,,,,,,,,,down,0,10.8355,,-0.107407393,-0.196296339,1,0,0,1.957,0,2,2,54,1,gebit,images/br_gebit.png,images/cb_gebit.png,0,,,,,,,,,,,,,,,,,,,,,,
,,,,,,00046,2023-10-02_18h50.18.179,vbt_B1_day2,2022.2.4,Win32,59.5167242,,,,,,,,,,,,,,,,,,,,,,,,,,,down,0,14.4908,,-0.107407393,-0.196296339,1,0,0,5.0558,0,3,3,141,1,knielen,images/br_knielen.png,images/cb_knielen.png,0,,,,,,,,,,,,,,,,,,,,,,
,,,,,,00046,2023-10-02_18h50.18.179,vbt_B1_day2,2022.2.4,Win32,59.5167242,,,,,,,,,,,,,,,,,,,,,,,,,,,down,0,34.8423,,-0.107407393,-0.196296339,1,0,0,8.8227,0,4,4,196,1,nakijken,images/br_nakijken.png,images/cb_nakijken.png,0,,,,,,,,,,,,,,,,,,,,,,
,,,,,,00046,2023-10-02_18h50.18.179,vbt_B1_day2,2022.2.4,Win32,59.5167242,,,,,,,,,,,,,,,,,,,,,,,,,,,down,0,11.9226,,-0.107407393,-0.196296339,1,0,0,8.4448,0,5,5,113,1,koppen,images/br_koppen.png,images/cb_koppen.png,0,,,,,,,,,,,,,,,,,,,,,,
,,,,,,00046,2023-10-02_18h50.18.179,vbt_B1_day2,2022.2.4,Win32,59.5167242,,,,,,,,,,,,,,,,,,,,,,,,,,,down,0,31.4742,,0.277777778,0.274074078,1,0,0,9.7716,0,6,6,134,1,geliefd,images/br_geliefd.png,images/cb_geliefd.png,0,,,,,,,,,,,,,,,,,,,,,,
,,,,,,00046,2023-10-02_18h50.18.179,vbt_B1_day2,2022.2.4,Win32,59.5167242,,,,,,,,,,,,,,,,,,,,,,,,,,,down,0,19.3526,,0.277777778,0.274074078,1,0,0,0.8816,0,7,7,191,1,opheffen,images/br_opheffen.png,images/cb_opheffen.png,0,,,,,,,,,,,,,,,,,,,,,,
,,,,,,00046,2023-10-02_18h50.18.179,vbt_B1_day2,2022.2.4,Win32,59.5167242,,,,,,,,,,,,,,,,,,,,,,,,,,,down,0,12.2783,,0.277777778,0.274074078,1,0,0,20.6167,0,8,8,124,1,bloeien,images/br_bloeien.png,images/cb_bloeien.png,0,,,,,,,,,,,,,,,,,,,,,,
,,,,,,00046,2023-10-02_18h50.18.179,vbt_B1_day2,2022.2.4,Win32,59.5167242,,,,,,,,,,,,,,,,,,,,,,,,,,,down,0,1.7449,,0.234259288,0.343518522,1,0,0,8.1465,0,9,9,49,1,laken,images/br_laken.png,images/cb_laken.png,0,,,,,,,,,,,,,,,,,,,,,,
,,,,,,00046,2023-10-02_18h50.18.179,vbt_B1_day2,2022.2.4,Win32,59.5167242,,,,,,,,,,,,,,,,,,,,,,,,,,,down,0,19.8162,,0.234259288,0.343518522,1,0,0,10.4787,0,10,10,34,1,vorm,images/br_vorm.png,images/cb_vorm.png,0,,,,,,,,,,,,,,,,,,,,,,
,,,,,,00046,2023-10-02_18h50.18.179,vbt_B1_day2,2022.2.4,Win32,59.5167242,,,,,,,,,,,,,,,,,,,,,,,,,,,down,0,8.067,,0.234259288,0.343518522,1,0,0,28.7489,0,11,11,105,1,wijlen,images/br_wijlen.png,images/cb_wijlen.png,0,,,,,,,,,,,,,,,,,,,,,,
,,,,,,00046,2023-10-02_18h50.18.179,vbt_B1_day2,2022.2.4,Win32,59.5167242,,,,,,,,,,,,,,,,,,,,,,,,,,,down,0,14.4161,,0.234259288,0.343518522,1,0,0,7.236,0,12,12,181,1,toegeven,images/br_toegeven.png,images/cb_toegeven.png,0,,,,,,,,,,,,,,,,,,,,,,
,,,,,,00046,2023-10-02_18h50.18.179,vbt_B1_day2,2022.2.4,Win32,59.5167242,,,,,,,,,,,,,,,,,,,,,,,,,,,down,0,16.0696,,0.234259288,0.343518522,1,0,0,5.1375,0,13,13,153,1,vervoer,images/br_vervoer.png,images/cb_vervoer.png,0,,,,,,,,,,,,,,,,,,,,,,
,,,,,,00046,2023-10-02_18h50.18.179,vbt_B1_day2,2022.2.4,Win32,59.5167242,,,,,,,,,,,,,,,,,,,,,,,,,,,down,0,16.2038,,0.234259288,0.343518522,1,0,0,7.5165,0,14,14,148,1,smullen,images/br_smullen.png,images/cb_smullen.png,0,,,,,,,,,,,,,,,,,,,,,,
,,,,,,00046,2023-10-02_18h50.18.179,vbt_B1_day2,2022.2.4,Win32,59.5167242,,,,,,,,,,,,,,,,,,,,,,,,,,,down,0,24.8711,,0.234259288,0.343518522,1,0,0,3.6057,0,15,15,52,1,wagon,images/br_wagon.png,images/cb_wagon.png,0,,,,,,,,,,,,,,,,,,,,,,
,,,,,,00046,2023-10-02_18h50.18.179,vbt_B1_day2,2022.2.4,Win32,59.5167242,,,,,,,,,,,,,,,,,,,,,,,,,,,down,0,5.504,,0.234259288,0.343518522,1,0,0,3.9391,0,16,16,73,1,volop,images/br_volop.png,images/cb_volop.png,0,,,,,,,,,,,,,,,,,,,,,,
,,,,,,00046,2023-10-02_18h50.18.179,vbt_B1_day2,2022.2.4,Win32,59.5167242,,,,,,,,,,,,,,,,,,,,,,,,,,,down,0,6.8303,,0.419444473,0.002777771,1,0,0,41.6014,0,17,17,152,1,afnemen,images/br_afnemen.png,images/cb_afnemen.png,0,,,,,,,,,,,,,,,,,,,,,,
,,,,,,00046,2023-10-02_18h50.18.179,vbt_B1_day2,2022.2.4,Win32,59.5167242,,,,,,,,,,,,,,,,,,,,,,,,,,,down,0,10.6097,,0.419444473,0.002777771,1,0,0,4.3669,0,18,18,195,1,middelen,images/br_middelen.png,images/cb_middelen.png,0,,,,,,,,,,,,,,,,,,,,,,
,,,,,,00046,2023-10-02_18h50.18.179,vbt_B1_day2,2022.2.4,Win32,59.5167242,,,,,,,,,,,,,,,,,,,,,,,,,,,down,0,2.8398,,0.419444473,0.002777771,1,0,0,2.0722,0,19,19,31,1,poes,images/br_poes.png,images/cb_poes.png,0,,,,,,,,,,,,,,,,,,,,,,
,,,,,,00046,2023-10-02_18h50.18.179,vbt_B1_day2,2022.2.4,Win32,59.5167242,,,,,,,,,,,,,,,,,,,,,,,,,,,down,0,9.5855,,0.419444473,0.002777771,1,0,0,4.8344,0,20,20,189,1,aanraden,images/br_aanraden.png,images/cb_aanraden.png,0,,,,,,,,,,,,,,,,,,,,,,
,,,,,,00046,2023-10-02_18h50.18.179,vbt_B1_day2,2022.2.4,Win32,59.5167242,,,,,,,,,,,,,,,,,,,,,,,,,,,down,0,14.3685,,0.419444473,0.002777771,1,0,0,1.5789,0,21,21,103,1,joggen,images/br_joggen.png,images/cb_joggen.png,0,,,,,,,,,,,,,,,,,,,,,,
,,,,,,00046,2023-10-02_18h50.18.179,vbt_B1_day2,2022.2.4,Win32,59.5167242,,,,,,,,,,,,,,,,,,,,,,,,,,,down,0,14.137,,0.419444473,0.002777771,1,0,0,0.6131,0,22,22,146,1,opkomen,images/br_opkomen.png,images/cb_opkomen.png,0,,,,,,,,,,,,,,,,,,,,,,
,,,,,,00046,2023-10-02_18h50.18.179,vbt_B1_day2,2022.2.4,Win32,59.5167242,,,,,,,,,,,,,,,,,,,,,,,,,,,down,0,11.8254,,0.419444473,0.002777771,1,0,0,1.3729,0,23,23,145,1,invloed,images/br_invloed.png,images/cb_invloed.png,0,,,,,,,,,,,,,,,,,,,,,,
,,,,,,00046,2023-10-02_18h50.18.179,vbt_B1_day2,2022.2.4,Win32,59.5167242,,,,,,,,,,,,,,,,,,,,,,,,,,,down,0,24.2022,,0.419444473,0.002777771,1,0,0,4.4489,0,24,24,110,1,zuster,images/br_zuster.png,images/cb_zuster.png,0,,,,,,,,,,,,,,,,,,,,,,
,,,,,,00046,2023-10-02_18h50.18.179,vbt_B1_day2,2022.2.4,Win32,59.5167242,,,,,,,,,,,,,,,,,,,,,,,,,,,down,0,3.7242,,0.419444473,0.002777771,1,0,0,1.5549,0,25,25,115,1,kleren,images/br_kleren.png,images/cb_kleren.png,0,,,,,,,,,,,,,,,,,,,,,,
,,,,,,00046,2023-10-02_18h50.18.179,vbt_B1_day2,2022.2.4,Win32,59.5167242,,,,,,,,,,,,,,,,,,,,,,,,,,,down,0,7.6734,,0.419444473,0.002777771,1,0,0,2.1836,0,26,26,98,1,kreeft,images/br_kreeft.png,images/cb_kreeft.png,1,kreeft,,,,,,,,,,,,,,,,,,,,,
,,,,,,00046,2023-10-02_18h50.18.179,vbt_B1_day2,2022.2.4,Win32,59.5167242,,,,,,,,,,,,,,,,,,,,,,,,,,,down,0,16.1345,,0.419444473,0.002777771,1,0,0,1.3835,0,27,27,142,1,snuiven,images/br_snuiven.png,images/cb_snuiven.png,0,,,,,,,,,,,,,,,,,,,,,,
,,,,,,00046,2023-10-02_18h50.18.179,vbt_B1_day2,2022.2.4,Win32,59.5167242,,,,,,,,,,,,,,,,,,,,,,,,,,,down,0,6.8919,,0.419444473,0.002777771,1,0,0,0.5169,0,28,28,23,1,zout,images/br_zout.png,images/cb_zout.png,0,,,,,,,,,,,,,,,,,,,,,,
,,,,,,00046,2023-10-02_18h50.18.179,vbt_B1_day2,2022.2.4,Win32,59.5167242,,,,,,,,,,,,,,,,,,,,,,,,,,,down,0,4.0731,,0.419444473,0.002777771,1,0,0,1.2499,0,29,29,12,1,kust,images/br_kust.png,images/cb_kust.png,0,,,,,,,,,,,,,,,,,,,,,,
,,,,,,00046,2023-10-02_18h50.18.179,vbt_B1_day2,2022.2.4,Win32,59.5167242,,,,,,,,,,,,,,,,,,,,,,,,,,,down,0,22.2881,,0.419444473,0.002777771,1,0,0,4.5499,0,30,30,63,1,flirt,images/br_flirt.png,images/cb_flirt.png,0,,,,,,,,,,,,,,,,,,,,,,
,,,,,,00046,2023-10-02_18h50.18.179,vbt_B1_day2,2022.2.4,Win32,59.5167242,,,,,,,,,,,,,,,,,,,,,,,,,,,down,0,17.3134,,0.419444473,0.002777771,1,0,0,0.8338,0,31,31,123,1,hiervan,images/br_hiervan.png,images/cb_hiervan.png,0,,,,,,,,,,,,,,,,,,,,,,
,,,,,,00046,2023-10-02_18h50.18.179,vbt_B1_day2,2022.2.4,Win32,59.5167242,,,,,,,,,,,,,,,,,,,,,,,,,,,down,0,4.2127,,0.419444473,0.002777771,1,0,0,1.2321,0,32,32,151,1,aanzoek,images/br_aanzoek.png,images/cb_aanzoek.png,0,,,,,,,,,,,,,,,,,,,,,,
,,,,,,00046,2023-10-02_18h50.18.179,vbt_B1_day2,2022.2.4,Win32,59.5167242,,,,,,,,,,,,,,,,,,,,,,,,,,,down,0,25.7325,,0.419444473,0.002777771,1,0,0,2.6664,0,33,33,171,1,aarzelen,images/br_aarzelen.png,images/cb_aarzelen.png,0,,,,,,,,,,,,,,,,,,,,,,
,,,,,,00046,2023-10-02_18h50.18.179,vbt_B1_day2,2022.2.4,Win32,59.5167242,,,,,,,,,,,,,,,,,,,,,,,,,,,down,0,3.0854,,0.419444473,0.002777771,1,0,0,1.0325,0,34,34,101,1,staren,images/br_staren.png,images/cb_staren.png,0,,,,,,,,,,,,,,,,,,,,,,
,,,,,,00046,2023-10-02_18h50.18.179,vbt_B1_day2,2022.2.4,Win32,59.5167242,,,,,,,,,,,,,,,,,,,,,,,,,,,down,0,6.8868,,0.419444473,0.002777771,1,0,0,0.9338,0,35,35,154,1,aflopen,images/br_aflopen.png,images/cb_aflopen.png,0,,,,,,,,,,,,,,,,,,,,,,
,,,,,,00046,2023-10-02_18h50.18.179,vbt_B1_day2,2022.2.4,Win32,59.5167242,,,,,,,,,,,,,,,,,,,,,,,,,,,down,0,34.6948,,0.419444473,0.002777771,1,0,0,0.7338,0,36,36,44,1,flits,images/br_flits.png,images/cb_flits.png,0,,,,,,,,,,,,,,,,,,,,,,
,,,,,,00046,2023-10-02_18h50.18.179,vbt_B1_day2,2022.2.4,Win32,59.5167242,,,,,,,,,,,,,,,,,,,,,,,,,,,down,0,4.2369,,0.419444473,0.002777771,1,0,0,1.2999,0,37,37,99,1,koffie,images/br_koffie.png,images/cb_koffie.png,1,koffie,,,,,,,,,,,,,,,,,,,,,
,,,,,,00046,2023-10-02_18h50.18.179,vbt_B1_day2,2022.2.4,Win32,59.5167242,,,,,,,,,,,,,,,,,,,,,,,,,,,down,0,4.3694,,0.419444473,0.002777771,1,0,0,0.7451,0,38,38,126,1,kasteel,images/br_kasteel.png,images/cb_kasteel.png,0,,,,,,,,,,,,,,,,,,,,,,
,,,,,,00046,2023-10-02_18h50.18.179,vbt_B1_day2,2022.2.4,Win32,59.5167242,,,,,,,,,,,,,,,,,,,,,,,,,,,down,0,21.6689,,0.419444473,0.002777771,1,0,0,1.0663,0,39,39,79,1,nodig,images/br_nodig.png,images/cb_nodig.png,0,,,,,,,,,,,,,,,,,,,,,,
,,,,,,00046,2023-10-02_18h50.18.179,vbt_B1_day2,2022.2.4,Win32,59.5167242,,,,,,,,,,,,,,,,,,,,,,,,,,,down,0,71.2145,,0.419444473,0.002777771,1,0,0,1.0972,0,40,40,116,1,besmet,images/br_besmet.png,images/cb_besmet.png,0,,,,,,,,,,,,,,,,,,,,,,
,,,,,,00046,2023-10-02_18h50.18.179,vbt_B1_day2,2022.2.4,Win32,59.5167242,,,,,,,,,,,,,,,,,,,,,,,,,,,down,0,1.239,,0.419444473,0.002777771,1,0,0,0.8563,0,41,41,7,1,geld,images/br_geld.png,images/cb_geld.png,0,,,,,,,,,,,,,,,,,,,,,,
,,,,,,00046,2023-10-02_18h50.18.179,vbt_B1_day2,2022.2.4,Win32,59.5167242,,,,,,,,,,,,,,,,,,,,,,,,,,,down,0,5.0543,,0.419444473,0.002777771,1,0,0,1.25,0,42,42,179,1,woestijn,images/br_woestijn.png,images/cb_woestijn.png,1,woestijn,,,,,,,,,,,,,,,,,,,,,
,,,,,,00046,2023-10-02_18h50.18.179,vbt_B1_day2,2022.2.4,Win32,59.5167242,,,,,,,,,,,,,,,,,,,,,,,,,,,down,0,27.0436,,0.419444473,0.002777771,1,0,0,0.4496,0,43,43,118,1,vinger,images/br_vinger.png,images/cb_vinger.png,0,,,,,,,,,,,,,,,,,,,,,,
,,,,,,00046,2023-10-02_18h50.18.179,vbt_B1_day2,2022.2.4,Win32,59.5167242,,,,,,,,,,,,,,,,,,,,,,,,,,,down,0,33.2341,,0.421296296,0.00462963,1,0,0,1.8998,0,44,44,193,1,weeshuis,images/br_weeshuis.png,images/cb_weeshuis.png,0,,,,,,,,,,,,,,,,,,,,,,
,,,,,,00046,2023-10-02_18h50.18.179,vbt_B1_day2,2022.2.4,Win32,59.5167242,,,,,,,,,,,,,,,,,,,,,,,,,,,down,0,2.3352,,0.421296296,0.00462963,1,0,0,0.6996,0,45,45,150,1,gegeven,images/br_gegeven.png,images/cb_gegeven.png,0,,,,,,,,,,,,,,,,,,,,,,
,,,,,,00046,2023-10-02_18h50.18.179,vbt_B1_day2,2022.2.4,Win32,59.5167242,,,,,,,,,,,,,,,,,,,,,,,,,,,down,0,2.9719,,0.421296296,0.00462963,1,0,0,0.5334,0,46,46,56,1,traag,images/br_traag.png,images/cb_traag.png,1,traag,,,,,,,,,,,,,,,,,,,,,
,,,,,,00046,2023-10-02_18h50.18.179,vbt_B1_day2,2022.2.4,Win32,59.5167242,,,,,,,,,,,,,,,,,,,,,,,,,,,down,0,28.1744,,0.421296296,0.00462963,1,0,0,0.5172,0,47,47,15,1,soda,images/br_soda.png,images/cb_soda.png,0,,,,,,,,,,,,,,,,,,,,,,
,,,,,,00046,2023-10-02_18h50.18.179,vbt_B1_day2,2022.2.4,Win32,59.5167242,,,,,,,,,,,,,,,,,,,,,,,,,,,down,0,4.8348,,0.421296296,0.00462963,1,0,0,0.4494,0,48,48,167,1,eenhoorn,images/br_eenhoorn.png,images/cb_eenhoorn.png,0,,,,,,,,,,,,,,,,,,,,,,
,,,,,,00046,2023-10-02_18h50.18.179,vbt_B1_day2,2022.2.4,Win32,59.5167242,,,,,,,,,,,,,,,,,,,,,,,,,,,down,0,34.4357,,0.421296296,0.00462963,1,0,0,1.0833,0,49,49,60,1,jasje,images/br_jasje.png,images/cb_jasje.png,0,,,,,,,,,,,,,,,,,,,,,,
,,,,,,00046,2023-10-02_18h50.18.179,vbt_B1_day2,2022.2.4,Win32,59.5167242,,,,,,,,,,,,,,,,,,,,,,,,,,,down,0,0.5504,,0.421296296,0.00462963,1,0,0,0.2833,0,50,50,2,1,jaar,images/br_jaar.png,images/cb_jaar.png,0,,,,,,,,,,,,,,,,,,,,,,
,,,,,,00046,2023-10-02_18h50.18.179,vbt_B1_day2,2022.2.4,Win32,59.5167242,,,,,,,,,,,,,,,,,,,,,,,,,,,down,0,11.7517,,0.421296296,0.00462963,1,0,0,0.5498,0,51,51,130,1,keihard,images/br_keihard.png,images/cb_keihard.png,0,,,,,,,,,,,,,,,,,,,,,,
,,,,,,00046,2023-10-02_18h50.18.179,vbt_B1_day2,2022.2.4,Win32,59.5167242,,,,,,,,,,,,,,,,,,,,,,,,,,,down,0,1.7362,,0.421296296,0.00462963,1,0,0,0.4495,0,52,52,4,1,moes,images/br_moes.png,images/cb_moes.png,0,,,,,,,,,,,,,,,,,,,,,,
,,,,,,00046,2023-10-02_18h50.18.179,vbt_B1_day2,2022.2.4,Win32,59.5167242,,,,,,,,,,,,,,,,,,,,,,,,,,,down,0,2.0688,,0.421296296,0.00462963,1,0,0,0.4667,0,53,53,132,1,grappen,images/br_grappen.png,images/cb_grappen.png,0,,,,,,,,,,,,,,,,,,,,,,
,,,,,,00046,2023-10-02_18h50.18.179,vbt_B1_day2,2022.2.4,Win32,59.5167242,,,,,,,,,,,,,,,,,,,,,,,,,,,down,0,7.6655,,0.421296296,0.00462963,1,0,0,0.8498,0,54,54,197,1,spanning,images/br_spanning.png,images/cb_spanning.png,0,,,,,,,,,,,,,,,,,,,,,,
,,,,,,00046,2023-10-02_18h50.18.179,vbt_B1_day2,2022.2.4,Win32,59.5167242,,,,,,,,,,,,,,,,,,,,,,,,,,,down,0,7.8511,,0.421296296,0.00462963,1,0,0,0.5169,0,55,55,3,1,mand,images/br_mand.png,images/cb_mand.png,0,,,,,,,,,,,,,,,,,,,,,,
,,,,,,00046,2023-10-02_18h50.18.179,vbt_B1_day2,2022.2.4,Win32,59.5167242,,,,,,,,,,,,,,,,,,,,,,,,,,,down,0,27.8678,,0.421296296,0.00462963,1,0,0,1.1165,0,56,56,157,1,uitlaat,images/br_uitlaat.png,images/cb_uitlaat.png,0,,,,,,,,,,,,,,,,,,,,,,
,,,,,,00046,2023-10-02_18h50.18.179,vbt_B1_day2,2022.2.4,Win32,59.5167242,,,,,,,,,,,,,,,,,,,,,,,,,,,down,0,9.7194,,0.421296296,0.00462963,1,0,0,0.5348,0,57,57,47,1,kabel,images/br_kabel.png,images/cb_kabel.png,0,,,,,,,,,,,,,,,,,,,,,,
,,,,,,00046,2023-10-02_18h50.18.179,vbt_B1_day2,2022.2.4,Win32,59.5167242,,,,,,,,,,,,,,,,,,,,,,,,,,,down,0,4.1729,,0.421296296,0.00462963,1,0,0,2.9503,0,58,58,25,1,plek,images/br_plek.png,images/cb_plek.png,0,,,,,,,,,,,,,,,,,,,,,,
,,,,,,00046,2023-10-02_18h50.18.179,vbt_B1_day2,2022.2.4,Win32,59.5167242,,,,,,,,,,,,,,,,,,,,,,,,,,,down,0,1.8,,0.421296296,0.00462963,1,0,0,0.5498,0,59,59,42,1,bleek,images/br_bleek.png,images/cb_bleek.png,0,,,,,,,,,,,,,,,,,,,,,,
,,,,,,00046,2023-10-02_18h50.18.179,vbt_B1_day2,2022.2.4,Win32,59.5167242,,,,,,,,,,,,,,,,,,,,,,,,,,,down,0,3.9713,,0.421296296,0.00462963,1,0,0,1.0328,0,60,60,140,1,blijven,images/br_blijven.png,images/cb_blijven.png,0,,,,,,,,,,,,,,,,,,,,,,
,,,,,,00046,2023-10-02_18h50.18.179,vbt_B1_day2,2022.2.4,Win32,59.5167242,,,,,,,,,,,,,,,,,,,,,,,,,,,down,0,2.6846,,0.421296296,0.00462963,1,0,0,6.1001,0,61,61,57,1,steek,images/br_steek.png,images/cb_steek.png,1,steek,,,,,,,,,,,,,,,,,,,,,
,,,,,,00046,2023-10-02_18h50.18.179,vbt_B1_day2,2022.2.4,Win32,59.5167242,,,,,,,,,,,,,,,,,,,,,,,,,,,down,0,10.5038,,0.421296296,0.00462963,1,0,0,0.7496,0,62,62,48,1,steel,images/br_steel.png,images/cb_steel.png,0,,,,,,,,,,,,,,,,,,,,,,
,,,,,,00046,2023-10-02_18h50.18.179,vbt_B1_day2,2022.2.4,Win32,59.5167242,,,,,,,,,,,,,,,,,,,,,,,,,,,down,0,12.7414,,0.421296296,0.00462963,1,0,0,0.4836,0,63,63,14,1,rijp,images/br_rijp.png,images/cb_rijp.png,0,,,,,,,,,,,,,,,,,,,,,,
,,,,,,00046,2023-10-02_18h50.18.179,vbt_B1_day2,2022.2.4,Win32,59.5167242,,,,,,,,,,,,,,,,,,,,,,,,,,,down,0,1.2029,,0.421296296,0.00462963,1,0,0,0.5166,0,64,64,84,1,lokken,images/br_lokken.png,images/cb_lokken.png,0,,,,,,,,,,,,,,,,,,,,,,
,,,,,,00046,2023-10-02_18h50.18.179,vbt_B1_day2,2022.2.4,Win32,59.5167242,,,,,,,,,,,,,,,,,,,,,,,,,,,down,0,10.8222,,0.421296296,0.00462963,1,0,0,0.7164,0,65,65,162,1,uitdelen,images/br_uitdelen.png,images/cb_uitdelen.png,0,,,,,,,,,,,,,,,,,,,,,,
,,,,,,00046,2023-10-02_18h50.18.179,vbt_B1_day2,2022.2.4,Win32,59.5167242,,,,,,,,,,,,,,,,,,,,,,,,,,,down,0,13.3582,,0.421296296,0.00462963,1,0,0,1.0832,0,66,66,169,1,oprotten,images/br_oprotten.png,images/cb_oprotten.png,0,,,,,,,,,,,,,,,,,,,,,,
,,,,,,00046,2023-10-02_18h50.18.179,vbt_B1_day2,2022.2.4,Win32,59.5167242,,,,,,,,,,,,,,,,,,,,,,,,,,,down,0,0.0881,,0.421296296,0.00462963,1,0,0,0.7164,0,67,67,39,1,laag,images/br_laag.png,images/cb_laag.png,0,,,,,,,,,,,,,,,,,,,,,,
,,,,,,00046,2023-10-02_18h50.18.179,vbt_B1_day2,2022.2.4,Win32,59.5167242,,,,,,,,,,,,,,,,,,,,,,,,,,,down,0,15.5184,,0.421296296,0.00462963,1,0,0,0.517,0,68,68,71,1,bever,images/br_bever.png,images/cb_bever.png,0,,,,,,,,,,,,,,,,,,,,,,
,,,,,,00046,2023-10-02_18h50.18.179,vbt_B1_day2,2022.2.4,Win32,59.5167242,,,,,,,,,,,,,,,,,,,,,,,,,,,down,0,2.8685,,0.421296296,0.00462963,1,0,0,0.6,0,69,69,17,1,taal,images/br_taal.png,images/cb_taal.png,1,taal,,,,,,,,,,,,,,,,,,,,,
,,,,,,00046,2023-10-02_18h50.18.179,vbt_B1_day2,2022.2.4,Win32,59.5167242,,,,,,,,,,,,,,,,,,,,,,,,,,,down,0,12.3836,,0.421296296,0.00462963,1,0,0,1.3324,0,70,70,11,1,mode,images/br_mode.png,images/cb_mode.png,0,,,,,,,,,,,,,,,,,,,,,,
,,,,,,00046,2023-10-02_18h50.18.179,vbt_B1_day2,2022.2.4,Win32,59.5167242,,,,,,,,,,,,,,,,,,,,,,,,,,,down,0,13.2876,,0.421296296,0.00462963,1,0,0,1.1332,0,71,71,131,1,opzicht,images/br_opzicht.png,images/cb_opzicht.png,0,,,,,,,,,,,,,,,,,,,,,,
,,,,,,00046,2023-10-02_18h50.18.179,vbt_B1_day2,2022.2.4,Win32,59.5167242,,,,,,,,,,,,,,,,,,,,,,,,,,,down,0,10.7068,,0.421296296,0.00462963,1,0,0,3.0345,0,72,72,168,1,bisschop,images/br_bisschop.png,images/cb_bisschop.png,0,,,,,,,,,,,,,,,,,,,,,,
,,,,,,00046,2023-10-02_18h50.18.179,vbt_B1_day2,2022.2.4,Win32,59.5167242,,,,,,,,,,,,,,,,,,,,,,,,,,,down,0,7.9863,,0.421296296,0.00462963,1,0,0,0.467,0,73,73,66,1,lever,images/br_lever.png,images/cb_lever.png,0,,,,,,,,,,,,,,,,,,,,,,
,,,,,,00046,2023-10-02_18h50.18.179,vbt_B1_day2,2022.2.4,Win32,59.5167242,,,,,,,,,,,,,,,,,,,,,,,,,,,down,0,76.2918,,0.421296296,0.00462963,1,0,0,0.8668,0,74,74,165,1,feestdag,images/br_feestdag.png,images/cb_feestdag.png,0,,,,,,,,,,,,,,,,,,,,,,
,,,,,,00046,2023-10-02_18h50.18.179,vbt_B1_day2,2022.2.4,Win32,59.5167242,,,,,,,,,,,,,,,,,,,,,,,,,,,down,0,23.9687,,0.421296296,0.00462963,1,0,0,0.5998,0,75,75,81,1,dubbel,images/br_dubbel.png,images/cb_dubbel.png,0,,,,,,,,,,,,,,,,,,,,,,
,,,,,,00046,2023-10-02_18h50.18.179,vbt_B1_day2,2022.2.4,Win32,59.5167242,,,,,,,,,,,,,,,,,,,,,,,,,,,down,0,7.809,,0.421296296,0.00462963,1,0,0,0.683,0,76,76,183,1,getuigen,images/br_getuigen.png,images/cb_getuigen.png,0,,,,,,,,,,,,,,,,,,,,,,
,,,,,,00046,2023-10-02_18h50.18.179,vbt_B1_day2,2022.2.4,Win32,59.5167242,,,,,,,,,,,,,,,,,,,,,,,,,,,down,0,2.4398,,0.421296296,0.00462963,1,0,0,0.5831,0,77,77,109,1,totaal,images/br_totaal.png,images/cb_totaal.png,0,,,,,,,,,,,,,,,,,,,,,,
,,,,,,00046,2023-10-02_18h50.18.179,vbt_B1_day2,2022.2.4,Win32,59.5167242,,,,,,,,,,,,,,,,,,,,,,,,,,,down,0,4.6012,,0.421296296,0.00462963,1,0,0,0.4331,0,78,78,43,1,klauw,images/br_klauw.png,images/cb_klauw.png,0,,,,,,,,,,,,,,,,,,,,,,
,,,,,,00046,2023-10-02_18h50.18.179,vbt_B1_day2,2022.2.4,Win32,59.5167242,,,,,,,,,,,,,,,,,,,,,,,,,,,down,0,3.1191,,0.421296296,0.00462963,1,0,0,0.4166,0,79,79,46,1,jagen,images/br_jagen.png,images/cb_jagen.png,0,,,,,,,,,,,,,,,,,,,,,,
,,,,,,00046,2023-10-02_18h50.18.179,vbt_B1_day2,2022.2.4,Win32,59.5167242,,,,,,,,,,,,,,,,,,,,,,,,,,,down,0,3.939,,0.421296296,0.00462963,1,0,0,0.4161,0,80,80,87,1,toeval,images/br_toeval.png,images/cb_toeval.png,0,,,,,,,,,,,,,,,,,,,,,,
,,,,,,00046,2023-10-02_18h50.18.179,vbt_B1_day2,2022.2.4,Win32,59.5167242,,,,,,,,,,,,,,,,,,,,,,,,,,,down,0,8.0201,,0.421296296,0.00462963,1,0,0,0.4167,0,81,81,72,1,strak,images/br_strak.png,images/cb_strak.png,0,,,,,,,,,,,,,,,,,,,,,,
,,,,,,00046,2023-10-02_18h50.18.179,vbt_B1_day2,2022.2.4,Win32,59.5167242,,,,,,,,,,,,,,,,,,,,,,,,,,,down,0,8.7828,,0.421296296,0.00462963,1,0,0,1.9168,0,82,82,30,1,uien,images/br_uien.png,images/cb_uien.png,0,,,,,,,,,,,,,,,,,,,,,,
,,,,,,00046,2023-10-02_18h50.18.179,vbt_B1_day2,2022.2.4,Win32,59.5167242,,,,,,,,,,,,,,,,,,,,,,,,,,,down,0,14.0668,,0.421296296,0.00462963,1,0,0,5.4992,0,83,83,1,1,zaal,images/br_zaal.png,images/cb_zaal.png,0,,,,,,,,,,,,,,,,,,,,,,
,,,,,,00046,2023-10-02_18h50.18.179,vbt_B1_day2,2022.2.4,Win32,59.5167242,,,,,,,,,,,,,,,,,,,,,,,,,,,down,0,24.7344,,0.421296296,0.00462963,1,0,0,1.0998,0,84,84,85,1,heilig,images/br_heilig.png,images/cb_heilig.png,0,,,,,,,,,,,,,,,,,,,,,,
,,,,,,00046,2023-10-02_18h50.18.179,vbt_B1_day2,2022.2.4,Win32,59.5167242,,,,,,,,,,,,,,,,,,,,,,,,,,,down,0,1.3837,,0.421296296,0.00462963,1,0,0,0.4502,0,85,85,89,1,slapen,images/br_slapen.png,images/cb_slapen.png,0,,,,,,,,,,,,,,,,,,,,,,
,,,,,,00046,2023-10-02_18h50.18.179,vbt_B1_day2,2022.2.4,Win32,59.5167242,,,,,,,,,,,,,,,,,,,,,,,,,,,down,0,6.5341,,0.421296296,0.00462963,1,0,0,0.533,0,86,86,16,1,ziek,images/br_ziek.png,images/cb_ziek.png,1,ziek,,,,,,,,,,,,,,,,,,,,,
,,,,,,00046,2023-10-02_18h50.18.179,vbt_B1_day2,2022.2.4,Win32,59.5167242,,,,,,,,,,,,,,,,,,,,,,,,,,,down,0,8.6702,,0.421296296,0.00462963,1,0,0,0.4001,0,87,87,29,1,baas,images/br_baas.png,images/cb_baas.png,0,,,,,,,,,,,,,,,,,,,,,,
,,,,,,00046,2023-10-02_18h50.18.179,vbt_B1_day2,2022.2.4,Win32,59.5167242,,,,,,,,,,,,,,,,,,,,,,,,,,,down,0,9.3369,,0.421296296,0.00462963,1,0,0,0.4325,0,88,88,58,1,tekst,images/br_tekst.png,images/cb_tekst.png,1,tekst,,,,,,,,,,,,,,,,,,,,,
,,,,,,00046,2023-10-02_18h50.18.179,vbt_B1_day2,2022.2.4,Win32,59.5167242,,,,,,,,,,,,,,,,,,,,,,,,,,,down,0,40.1844,,0.421296296,0.00462963,1,0,0,1.2991,0,89,89,107,1,maling,images/br_maling.png,images/cb_maling.png,0,,,,,,,,,,,,,,,,,,,,,,
,,,,,,00046,2023-10-02_18h50.18.179,vbt_B1_day2,2022.2.4,Win32,59.5167242,,,,,,,,,,,,,,,,,,,,,,,,,,,down,0,5.6312,,0.421296296,0.00462963,1,0,0,0.6005,0,90,90,144,1,eetlust,images/br_eetlust.png,images/cb_eetlust.png,0,,,,,,,,,,,,,,,,,,,,,,
,,,,,,00046,2023-10-02_18h50.18.179,vbt_B1_day2,2022.2.4,Win32,59.5167242,,,,,,,,,,,,,,,,,,,,,,,,,,,down,0,11.3685,,0.421296296,0.00462963,1,0,0,0.3492,0,91,91,53,1,baron,images/br_baron.png,images/cb_baron.png,0,,,,,,,,,,,,,,,,,,,,,,
,,,,,,00046,2023-10-02_18h50.18.179,vbt_B1_day2,2022.2.4,Win32,59.5167242,,,,,,,,,,,,,,,,,,,,,,,,,,,down,0,10.7885,,0.421296296,0.00462963,1,0,0,0.4501,0,92,92,68,1,schat,images/br_schat.png,images/cb_schat.png,0,,,,,,,,,,,,,,,,,,,,,,
,,,,,,00046,2023-10-02_18h50.18.179,vbt_B1_day2,2022.2.4,Win32,59.5167242,,,,,,,,,,,,,,,,,,,,,,,,,,,down,0,12.9655,,0.421296296,0.00462963,1,0,0,0.6179,0,93,93,177,1,maaltijd,images/br_maaltijd.png,images/cb_maaltijd.png,1,maaltijd,,,,,,,,,,,,,,,,,,,,,
,,,,,,00046,2023-10-02_18h50.18.179,vbt_B1_day2,2022.2.4,Win32,59.5167242,,,,,,,,,,,,,,,,,,,,,,,,,,,down,0,7.8017,,0.421296296,0.00462963,1,0,0,0.5338,0,94,94,128,1,prikken,images/br_prikken.png,images/cb_prikken.png,0,,,,,,,,,,,,,,,,,,,,,,
,,,,,,00046,2023-10-02_18h50.18.179,vbt_B1_day2,2022.2.4,Win32,59.5167242,,,,,,,,,,,,,,,,,,,,,,,,,,,down,0,5.2719,,0.421296296,0.00462963,1,0,0,0.4003,0,95,95,190,1,goedkoop,images/br_goedkoop.png,images/cb_goedkoop.png,0,,,,,,,,,,,,,,,,,,,,,,
,,,,,,00046,2023-10-02_18h50.18.179,vbt_B1_day2,2022.2.4,Win32,59.5167242,,,,,,,,,,,,,,,,,,,,,,,,,,,down,0,10.6847,,0.421296296,0.00462963,1,0,0,0.6157,0,96,96,163,1,schuilen,images/br_schuilen.png,images/cb_schuilen.png,0,,,,,,,,,,,,,,,,,,,,,,
,,,,,,00046,2023-10-02_18h50.18.179,vbt_B1_day2,2022.2.4,Win32,59.5167242,,,,,,,,,,,,,,,,,,,,,,,,,,,down,0,6.3358,,0.421296296,0.00462963,1,0,0,0.5664,0,97,97,91,1,gezond,images/br_gezond.png,images/cb_gezond.png,0,,,,,,,,,,,,,,,,,,,,,,
,,,,,,00046,2023-10-02_18h50.18.179,vbt_B1_day2,2022.2.4,Win32,59.5167242,,,,,,,,,,,,,,,,,,,,,,,,,,,down,0,6.5675,,0.421296296,0.00462963,1,0,0,0.4497,0,98,98,61,1,groen,images/br_groen.png,images/cb_groen.png,0,,,,,,,,,,,,,,,,,,,,,,
,,,,,,00046,2023-10-02_18h50.18.179,vbt_B1_day2,2022.2.4,Win32,59.5167242,,,,,,,,,,,,,,,,,,,,,,,,,,,down,0,3.1914,,0.421296296,0.00462963,1,0,0,0.4499,0,99,99,112,1,lukken,images/br_lukken.png,images/cb_lukken.png,0,,,,,,,,,,,,,,,,,,,,,,
,,,,,,00046,2023-10-02_18h50.18.179,vbt_B1_day2,2022.2.4,Win32,59.5167242,,,,,,,,,,,,,,,,,,,,,,,,,,,down,0,23.6359,,0.421296296,0.00462963,1,0,0,0.3999,0,100,100,76,1,afval,images/br_afval.png,images/cb_afval.png,0,,,,,,,,,,,,,,,,,,,,,,
,,,,,,00046,2023-10-02_18h50.18.179,vbt_B1_day2,2022.2.4,Win32,59.5167242,,,,,,,,,,,,,,,,,,,,,,,,,,,down,0,2.7005,,0.421296296,0.00462963,1,0,0,0.3829,0,101,101,170,1,schatten,images/br_schatten.png,images/cb_schatten.png,0,,,,,,,,,,,,,,,,,,,,,,
,,,,,,00046,2023-10-02_18h50.18.179,vbt_B1_day2,2022.2.4,Win32,59.5167242,,,,,,,,,,,,,,,,,,,,,,,,,,,down,0,1.5193,,0.421296296,0.00462963,1,0,0,0.4664,0,102,102,96,1,slagen,images/br_slagen.png,images/cb_slagen.png,1,slagen,,,,,,,,,,,,,,,,,,,,,
,,,,,,00046,2023-10-02_18h50.18.179,vbt_B1_day2,2022.2.4,Win32,59.5167242,,,,,,,,,,,,,,,,,,,,,,,,,,,down,0,6.6057,,0.421296296,0.00462963,1,0,0,0.3999,0,103,103,104,1,zweven,images/br_zweven.png,images/cb_zweven.png,0,,,,,,,,,,,,,,,,,,,,,,
,,,,,,00046,2023-10-02_18h50.18.179,vbt_B1_day2,2022.2.4,Win32,59.5167242,,,,,,,,,,,,,,,,,,,,,,,,,,,down,0,5.1909,,0.421296296,0.00462963,1,0,0,0.4668,0,104,104,174,1,stemming,images/br_stemming.png,images/cb_stemming.png,0,,,,,,,,,,,,,,,,,,,,,,
,,,,,,00046,2023-10-02_18h50.18.179,vbt_B1_day2,2022.2.4,Win32,59.5167242,,,,,,,,,,,,,,,,,,,,,,,,,,,down,0,2.9722,,0.421296296,0.00462963,1,0,0,0.2967,0,105,105,35,1,lust,images/br_lust.png,images/cb_lust.png,0,,,,,,,,,,,,,,,,,,,,,,
,,,,,,00046,2023-10-02_18h50.18.179,vbt_B1_day2,2022.2.4,Win32,59.5167242,,,,,,,,,,,,,,,,,,,,,,,,,,,down,0,2.7003,,0.421296296,0.00462963,1,0,0,0.3329,0,106,106,38,1,baai,images/br_baai.png,images/cb_baai.png,0,,,,,,,,,,,,,,,,,,,,,,
,,,,,,00046,2023-10-02_18h50.18.179,vbt_B1_day2,2022.2.4,Win32,59.5167242,,,,,,,,,,,,,,,,,,,,,,,,,,,down,0,12.9873,,0.421296296,0.00462963,1,0,0,0.5832,0,107,107,121,1,twijfel,images/br_twijfel.png,images/cb_twijfel.png,0,,,,,,,,,,,,,,,,,,,,,,
,,,,,,00046,2023-10-02_18h50.18.179,vbt_B1_day2,2022.2.4,Win32,59.5167242,,,,,,,,,,,,,,,,,,,,,,,,,,,down,0,3.9334,,0.421296296,0.00462963,1,0,0,0.3672,0,108,108,21,1,mist,images/br_mist.png,images/cb_mist.png,0,,,,,,,,,,,,,,,,,,,,,,
,,,,,,00046,2023-10-02_18h50.18.179,vbt_B1_day2,2022.2.4,Win32,59.5167242,,,,,,,,,,,,,,,,,,,,,,,,,,,down,0,1.7556,,0.421296296,0.00462963,1,0,0,0.3661,0,109,109,74,1,graaf,images/br_graaf.png,images/cb_graaf.png,0,,,,,,,,,,,,,,,,,,,,,,
,,,,,,00046,2023-10-02_18h50.18.179,vbt_B1_day2,2022.2.4,Win32,59.5167242,,,,,,,,,,,,,,,,,,,,,,,,,,,down,0,11.0231,,0.421296296,0.00462963,1,0,0,0.3333,0,110,110,122,1,waarvan,images/br_waarvan.png,images/cb_waarvan.png,0,,,,,,,,,,,,,,,,,,,,,,
,,,,,,00046,2023-10-02_18h50.18.179,vbt_B1_day2,2022.2.4,Win32,59.5167242,,,,,,,,,,,,,,,,,,,,,,,,,,,down,0,24.9836,,0.421296296,0.00462963,1,0,0,0.4986,0,111,111,180,1,openbaar,images/br_openbaar.png,images/cb_openbaar.png,0,,,,,,,,,,,,,,,,,,,,,,
,,,,,,00046,2023-10-02_18h50.18.179,vbt_B1_day2,2022.2.4,Win32,59.5167242,,,,,,,,,,,,,,,,,,,,,,,,,,,down,0,6.2033,,0.421296296,0.00462963,1,0,0,0.4333,0,112,112,40,1,schep,images/br_schep.png,images/cb_schep.png,0,,,,,,,,,,,,,,,,,,,,,,
,,,,,,00046,2023-10-02_18h50.18.179,vbt_B1_day2,2022.2.4,Win32,59.5167242,,,,,,,,,,,,,,,,,,,,,,,,,,,down,0,9.5379,,0.421296296,0.00462963,1,0,0,0.5169,0,113,113,199,1,beseffen,images/br_beseffen.png,images/cb_beseffen.png,0,,,,,,,,,,,,,,,,,,,,,,
,,,,,,00046,2023-10-02_18h50.18.179,vbt_B1_day2,2022.2.4,Win32,59.5167242,,,,,,,,,,,,,,,,,,,,,,,,,,,down,0,16.8174,,0.421296296,0.00462963,1,0,0,0.3333,0,114,114,65,1,parel,images/br_parel.png,images/cb_parel.png,0,,,,,,,,,,,,,,,,,,,,,,
,,,,,,00046,2023-10-02_18h50.18.179,vbt_B1_day2,2022.2.4,Win32,59.5167242,,,,,,,,,,,,,,,,,,,,,,,,,,,down,0,8.1099,,0.421296296,0.00462963,1,0,0,0.5673,0,115,115,106,1,zingen,images/br_zingen.png,images/cb_zingen.png,0,,,,,,,,,,,,,,,,,,,,,,
,,,,,,00046,2023-10-02_18h50.18.179,vbt_B1_day2,2022.2.4,Win32,59.5167242,,,,,,,,,,,,,,,,,,,,,,,,,,,down,0,5.3867,,0.421296296,0.00462963,1,0,0,0.3998,0,116,116,198,1,bedoelen,images/br_bedoelen.png,images/cb_bedoelen.png,0,,,,,,,,,,,,,,,,,,,,,,
,,,,,,00046,2023-10-02_18h50.18.179,vbt_B1_day2,2022.2.4,Win32,59.5167242,,,,,,,,,,,,,,,,,,,,,,,,,,,down,0,11.1436,,0.421296296,0.00462963,1,0,0,0.4673,0,117,117,50,1,stoom,images/br_stoom.png,images/cb_stoom.png,0,,,,,,,,,,,,,,,,,,,,,,
,,,,,,00046,2023-10-02_18h50.18.179,vbt_B1_day2,2022.2.4,Win32,59.5167242,,,,,,,,,,,,,,,,,,,,,,,,,,,down,0,11.4942,,0.421296296,0.00462963,1,0,0,0.5167,0,118,118,139,1,stiekem,images/br_stiekem.png,images/cb_stiekem.png,1,stiekem,,,,,,,,,,,,,,,,,,,,,
,,,,,,00046,2023-10-02_18h50.18.179,vbt_B1_day2,2022.2.4,Win32,59.5167242,,,,,,,,,,,,,,,,,,,,,,,,,,,down,0,28.6403,,0.421296296,0.00462963,1,0,0,0.4498,0,119,119,20,1,site,images/br_site.png,images/cb_site.png,0,,,,,,,,,,,,,,,,,,,,,,
,,,,,,00046,2023-10-02_18h50.18.179,vbt_B1_day2,2022.2.4,Win32,59.5167242,,,,,,,,,,,,,,,,,,,,,,,,,,,down,0,0.4378,,0.421296296,0.00462963,1,0,0,0.3329,0,120,120,13,1,kaal,images/br_kaal.png,images/cb_kaal.png,0,,,,,,,,,,,,,,,,,,,,,,
,,,,,,00046,2023-10-02_18h50.18.179,vbt_B1_day2,2022.2.4,Win32,59.5167242,,,,,,,,,,,,,,,,,,,,,,,,,,,down,0,2.3016,,0.421296296,0.00462963,1,0,0,0.3499,0,121,121,51,1,samen,images/br_samen.png,images/cb_samen.png,0,,,,,,,,,,,,,,,,,,,,,,
,,,,,,00046,2023-10-02_18h50.18.179,vbt_B1_day2,2022.2.4,Win32,59.5167242,,,,,,,,,,,,,,,,,,,,,,,,,,,down,0,11.9094,,0.421296296,0.00462963,1,0,0,0.4,0,122,122,135,1,gedicht,images/br_gedicht.png,images/cb_gedicht.png,0,,,,,,,,,,,,,,,,,,,,,,
,,,,,,00046,2023-10-02_18h50.18.179,vbt_B1_day2,2022.2.4,Win32,59.5167242,,,,,,,,,,,,,,,,,,,,,,,,,,,down,0,4.6002,,0.421296296,0.00462963,1,0,0,0.8502,0,123,123,138,1,akkoord,images/br_akkoord.png,images/cb_akkoord.png,1,akkoord,,,,,,,,,,,,,,,,,,,,,
,,,,,,00046,2023-10-02_18h50.18.179,vbt_B1_day2,2022.2.4,Win32,59.5167242,,,,,,,,,,,,,,,,,,,,,,,,,,,down,0,7.3869,,0.421296296,0.001851859,1,0,0,0.9167,0,124,124,155,1,gerucht,images/br_gerucht.png,images/cb_gerucht.png,0,,,,,,,,,,,,,,,,,,,,,,
,,,,,,00046,2023-10-02_18h50.18.179,vbt_B1_day2,2022.2.4,Win32,59.5167242,,,,,,,,,,,,,,,,,,,,,,,,,,,down,0,44.2345,,0.421296296,0.001851859,1,0,0,0.4818,0,125,125,37,1,mijn,images/br_mijn.png,images/cb_mijn.png,0,,,,,,,,,,,,,,,,,,,,,,
,,,,,,00046,2023-10-02_18h50.18.179,vbt_B1_day2,2022.2.4,Win32,59.5167242,,,,,,,,,,,,,,,,,,,,,,,,,,,down,0,2.016,,0.421296296,0.001851859,1,0,0,0.3348,0,126,126,18,1,blik,images/br_blik.png,images/cb_blik.png,1,blik,,,,,,,,,,,,,,,,,,,,,
,,,,,,00046,2023-10-02_18h50.18.179,vbt_B1_day2,2022.2.4,Win32,59.5167242,,,,,,,,,,,,,,,,,,,,,,,,,,,down,0,5.6851,,0.421296296,0.001851859,1,0,0,0.396,0,127,127,173,1,apparaat,images/br_apparaat.png,images/cb_apparaat.png,0,,,,,,,,,,,,,,,,,,,,,,
,,,,,,00046,2023-10-02_18h50.18.179,vbt_B1_day2,2022.2.4,Win32,59.5167242,,,,,,,,,,,,,,,,,,,,,,,,,,,down,0,12.5269,,0.421296296,0.001851859,1,0,0,0.3465,0,128,128,143,1,hechten,images/br_hechten.png,images/cb_hechten.png,0,,,,,,,,,,,,,,,,,,,,,,
,,,,,,00046,2023-10-02_18h50.18.179,vbt_B1_day2,2022.2.4,Win32,59.5167242,,,,,,,,,,,,,,,,,,,,,,,,,,,down,0,13.7654,,0.421296296,0.001851859,1,0,0,3.7617,0,129,129,164,1,anarchie,images/br_anarchie.png,images/cb_anarchie.png,0,,,,,,,,,,,,,,,,,,,,,,
,,,,,,00046,2023-10-02_18h50.18.179,vbt_B1_day2,2022.2.4,Win32,59.5167242,,,,,,,,,,,,,,,,,,,,,,,,,,,down,0,15.0894,,0.421296296,0.001851859,1,0,0,0.3667,0,130,130,186,1,voorraad,images/br_voorraad.png,images/cb_voorraad.png,0,,,,,,,,,,,,,,,,,,,,,,
,,,,,,00046,2023-10-02_18h50.18.179,vbt_B1_day2,2022.2.4,Win32,59.5167242,,,,,,,,,,,,,,,,,,,,,,,,,,,down,0,1.6135,,0.421296296,0.001851859,1,0,0,0.6429,0,131,131,97,1,loyaal,images/br_loyaal.png,images/cb_loyaal.png,1,loyaal,,,,,,,,,,,,,,,,,,,,,
,,,,,,00046,2023-10-02_18h50.18.179,vbt_B1_day2,2022.2.4,Win32,59.5167242,,,,,,,,,,,,,,,,,,,,,,,,,,,down,0,8.9849,,0.421296296,0.001851859,1,0,0,0.3613,0,132,132,93,1,waarop,images/br_waarop.png,images/cb_waarop.png,0,,,,,,,,,,,,,,,,,,,,,,
,,,,,,00046,2023-10-02_18h50.18.179,vbt_B1_day2,2022.2.4,Win32,59.5167242,,,,,,,,,,,,,,,,,,,,,,,,,,,down,0,3.9807,,0.421296296,0.001851859,1,0,0,0.6135,0,133,133,149,1,redding,images/br_redding.png,images/cb_redding.png,0,,,,,,,,,,,,,,,,,,,,,,
,,,,,,00046,2023-10-02_18h50.18.179,vbt_B1_day2,2022.2.4,Win32,59.5167242,,,,,,,,,,,,,,,,,,,,,,,,,,,down,0,5.9356,,0.421296296,0.001851859,1,0,0,0.5023,0,134,134,41,1,maken,images/br_maken.png,images/cb_maken.png,0,,,,,,,,,,,,,,,,,,,,,,
,,,,,,00046,2023-10-02_18h50.18.179,vbt_B1_day2,2022.2.4,Win32,59.5167242,,,,,,,,,,,,,,,,,,,,,,,,,,,down,0,7.7777,,0.421296296,0.001851859,1,0,0,0.4168,0,135,135,117,1,kennis,images/br_kennis.png,images/cb_kennis.png,0,,,,,,,,,,,,,,,,,,,,,,
,,,,,,00046,2023-10-02_18h50.18.179,vbt_B1_day2,2022.2.4,Win32,59.5167242,,,,,,,,,,,,,,,,,,,,,,,,,,,down,0,5.9646,,0.421296296,0.001851859,1,0,0,0.65,0,136,136,133,1,seizoen,images/br_seizoen.png,images/cb_seizoen.png,0,,,,,,,,,,,,,,,,,,,,,,
,,,,,,00046,2023-10-02_18h50.18.179,vbt_B1_day2,2022.2.4,Win32,59.5167242,,,,,,,,,,,,,,,,,,,,,,,,,,,down,0,5.0517,,0.421296296,0.001851859,1,0,0,0.3773,0,137,137,0,1,slak,images/br_slak.png,images/cb_slak.png,0,,,,,,,,,,,,,,,,,,,,,,
,,,,,,00046,2023-10-02_18h50.18.179,vbt_B1_day2,2022.2.4,Win32,59.5167242,,,,,,,,,,,,,,,,,,,,,,,,,,,down,0,23.2649,,0.421296296,0.001851859,1,0,0,0.5796,0,138,138,184,1,aandelen,images/br_aandelen.png,images/cb_aandelen.png,0,,,,,,,,,,,,,,,,,,,,,,
,,,,,,00046,2023-10-02_18h50.18.179,vbt_B1_day2,2022.2.4,Win32,59.5167242,,,,,,,,,,,,,,,,,,,,,,,,,,,down,0,13.51,,0.421296296,0.001851859,1,0,0,0.6,0,139,139,194,1,driemaal,images/br_driemaal.png,images/cb_driemaal.png,0,,,,,,,,,,,,,,,,,,,,,,
,,,,,,00046,2023-10-02_18h50.18.179,vbt_B1_day2,2022.2.4,Win32,59.5167242,,,,,,,,,,,,,,,,,,,,,,,,,,,down,0,8.3892,,0.421296296,0.001851859,1,0,0,0.4036,0,140,140,26,1,leuk,images/br_leuk.png,images/cb_leuk.png,0,,,,,,,,,,,,,,,,,,,,,,
,,,,,,00046,2023-10-02_18h50.18.179,vbt_B1_day2,2022.2.4,Win32,59.5167242,,,,,,,,,,,,,,,,,,,,,,,,,,,down,0,9.9993,,0.421296296,0.001851859,1,0,0,0.3282,0,141,141,172,1,weigeren,images/br_weigeren.png,images/cb_weigeren.png,0,,,,,,,,,,,,,,,,,,,,,,
,,,,,,00046,2023-10-02_18h50.18.179,vbt_B1_day2,2022.2.4,Win32,59.5167242,,,,,,,,,,,,,,,,,,,,,,,,,,,down,0,2.3242,,0.421296296,0.001851859,1,0,0,0.3013,0,142,142,19,1,geit,images/br_geit.png,images/cb_geit.png,1,geit,,,,,,,,,,,,,,,,,,,,,
,,,,,,00046,2023-10-02_18h50.18.179,vbt_B1_day2,2022.2.4,Win32,59.5167242,,,,,,,,,,,,,,,,,,,,,,,,,,,down,0,80.2605,,0.421296296,0.001851859,1,0,0,0.4057,0,143,143,90,1,geluid,images/br_geluid.png,images/cb_geluid.png,0,,,,,,,,,,,,,,,,,,,,,,
,,,,,,00046,2023-10-02_18h50.18.179,vbt_B1_day2,2022.2.4,Win32,59.5167242,,,,,,,,,,,,,,,,,,,,,,,,,,,down,0,6.7726,,0.421296296,0.001851859,1,0,0,0.5557,0,144,144,88,1,boeien,images/br_boeien.png,images/cb_boeien.png,0,,,,,,,,,,,,,,,,,,,,,,
,,,,,,00046,2023-10-02_18h50.18.179,vbt_B1_day2,2022.2.4,Win32,59.5167242,,,,,,,,,,,,,,,,,,,,,,,,,,,down,0,5.9841,,0.421296296,0.001851859,1,0,0,0.6957,0,145,145,36,1,vuur,images/br_vuur.png,images/cb_vuur.png,0,,,,,,,,,,,,,,,,,,,,,,
,,,,,,00046,2023-10-02_18h50.18.179,vbt_B1_day2,2022.2.4,Win32,59.5167242,,,,,,,,,,,,,,,,,,,,,,,,,,,down,0,32.4325,,0.421296296,0.001851859,1,0,0,0.5469,0,146,146,156,1,rechten,images/br_rechten.png,images/cb_rechten.png,0,,,,,,,,,,,,,,,,,,,,,,
,,,,,,00046,2023-10-02_18h50.18.179,vbt_B1_day2,2022.2.4,Win32,59.5167242,,,,,,,,,,,,,,,,,,,,,,,,,,,down,0,2.8306,,0.421296296,0.001851859,1,0,0,1.983,0,147,147,64,1,wegen,images/br_wegen.png,images/cb_wegen.png,0,,,,,,,,,,,,,,,,,,,,,,
,,,,,,00046,2023-10-02_18h50.18.179,vbt_B1_day2,2022.2.4,Win32,59.5167242,,,,,,,,,,,,,,,,,,,,,,,,,,,down,0,70.4876,,0.421296296,0.001851859,1,0,0,1.1273,0,148,148,108,1,excuus,images/br_excuus.png,images/cb_excuus.png,0,,,,,,,,,,,,,,,,,,,,,,
,,,,,,00046,2023-10-02_18h50.18.179,vbt_B1_day2,2022.2.4,Win32,59.5167242,,,,,,,,,,,,,,,,,,,,,,,,,,,down,0,13.967,,0.421296296,0.001851859,1,0,0,0.4607,0,149,149,83,1,mening,images/br_mening.png,images/cb_mening.png,0,,,,,,,,,,,,,,,,,,,,,,
,,,,,,00046,2023-10-02_18h50.18.179,vbt_B1_day2,2022.2.4,Win32,59.5167242,,,,,,,,,,,,,,,,,,,,,,,,,,,down,0,4.9673,,0.421296296,0.001851859,1,0,0,0.5002,0,150,150,6,1,diep,images/br_diep.png,images/cb_diep.png,0,,,,,,,,,,,,,,,,,,,,,,
,,,,,,00046,2023-10-02_18h50.18.179,vbt_B1_day2,2022.2.4,Win32,59.5167242,,,,,,,,,,,,,,,,,,,,,,,,,,,down,0,16.1001,,0.421296296,0.001851859,1,0,0,0.3394,0,151,151,129,1,verhaal,images/br_verhaal.png,images/cb_verhaal.png,0,,,,,,,,,,,,,,,,,,,,,,
,,,,,,00046,2023-10-02_18h50.18.179,vbt_B1_day2,2022.2.4,Win32,59.5167242,,,,,,,,,,,,,,,,,,,,,,,,,,,down,0,10.8833,,0.421296296,0.001851859,1,0,0,2.6168,0,152,152,147,1,komisch,images/br_komisch.png,images/cb_komisch.png,0,,,,,,,,,,,,,,,,,,,,,,
,,,,,,00046,2023-10-02_18h50.18.179,vbt_B1_day2,2022.2.4,Win32,59.5167242,,,,,,,,,,,,,,,,,,,,,,,,,,,down,0,8.7297,,0.421296296,0.001851859,1,0,0,1.0838,0,153,153,111,1,ticket,images/br_ticket.png,images/cb_ticket.png,0,,,,,,,,,,,,,,,,,,,,,,
,,,,,,00046,2023-10-02_18h50.18.179,vbt_B1_day2,2022.2.4,Win32,59.5167242,,,,,,,,,,,,,,,,,,,,,,,,,,,down,0,6.084,,0.421296296,0.001851859,1,0,0,0.3788,0,154,154,62,1,knaap,images/br_knaap.png,images/cb_knaap.png,0,,,,,,,,,,,,,,,,,,,,,,
,,,,,,00046,2023-10-02_18h50.18.179,vbt_B1_day2,2022.2.4,Win32,59.5167242,,,,,,,,,,,,,,,,,,,,,,,,,,,down,0,15.0139,,0.421296296,0.001851859,1,0,0,0.3708,0,155,155,192,1,schaamte,images/br_schaamte.png,images/cb_schaamte.png,0,,,,,,,,,,,,,,,,,,,,,,
,,,,,,00046,2023-10-02_18h50.18.179,vbt_B1_day2,2022.2.4,Win32,59.5167242,,,,,,,,,,,,,,,,,,,,,,,,,,,down,0,14.1697,,0.421296296,0.001851859,1,0,0,0.7047,0,156,156,159,1,sufferd,images/br_sufferd.png,images/cb_sufferd.png,0,,,,,,,,,,,,,,,,,,,,,,
,,,,,,00046,2023-10-02_18h50.18.179,vbt_B1_day2,2022.2.4,Win32,59.5167242,,,,,,,,,,,,,,,,,,,,,,,,,,,down,0,6.0962,,0.421296296,0.001851859,1,0,0,0.3282,0,157,157,5,1,blad,images/br_blad.png,images/cb_blad.png,0,,,,,,,,,,,,,,,,,,,,,,
,,,,,,00046,2023-10-02_18h50.18.179,vbt_B1_day2,2022.2.4,Win32,59.5167242,,,,,,,,,,,,,,,,,,,,,,,,,,,down,0,6.5347,,0.421296296,0.001851859,1,0,0,0.5506,0,158,158,137,1,trekker,images/br_trekker.png,images/cb_trekker.png,1,trekker,,,,,,,,,,,,,,,,,,,,,
,,,,,,00046,2023-10-02_18h50.18.179,vbt_B1_day2,2022.2.4,Win32,59.5167242,,,,,,,,,,,,,,,,,,,,,,,,,,,down,0,56.6945,,0.421296296,0.001851859,1,0,0,0.4463,0,159,159,158,1,innemen,images/br_innemen.png,images/cb_innemen.png,0,,,,,,,,,,,,,,,,,,,,,,
,,,,,,00046,2023-10-02_18h50.18.179,vbt_B1_day2,2022.2.4,Win32,59.5167242,,,,,,,,,,,,,,,,,,,,,,,,,,,down,0,10.4509,,0.421296296,0.001851859,1,0,0,0.4833,0,160,160,80,1,kanjer,images/br_kanjer.png,images/cb_kanjer.png,0,,,,,,,,,,,,,,,,,,,,,,
,,,,,,00046,2023-10-02_18h50.18.179,vbt_B1_day2,2022.2.4,Win32,59.5167242,,,,,,,,,,,,,,,,,,,,,,,,,,,down,0,12.2965,,0.421296296,0.001851859,1,0,0,0.4495,0,161,161,94,1,oceaan,images/br_oceaan.png,images/cb_oceaan.png,0,,,,,,,,,,,,,,,,,,,,,,
,,,,,,00046,2023-10-02_18h50.18.179,vbt_B1_day2,2022.2.4,Win32,59.5167242,,,,,,,,,,,,,,,,,,,,,,,,,,,down,0,2.426,,0.421296296,0.001851859,1,0,0,0.3684,0,162,162,33,1,vlek,images/br_vlek.png,images/cb_vlek.png,0,,,,,,,,,,,,,,,,,,,,,,
,,,,,,00046,2023-10-02_18h50.18.179,vbt_B1_day2,2022.2.4,Win32,59.5167242,,,,,,,,,,,,,,,,,,,,,,,,,,,down,0,2.6443,,0.421296296,0.001851859,1,0,0,4.7345,0,163,163,59,1,kring,images/br_kring.png,images/cb_kring.png,1,kring,,,,,,,,,,,,,,,,,,,,,
,,,,,,00046,2023-10-02_18h50.18.179,vbt_B1_day2,2022.2.4,Win32,59.5167242,,,,,,,,,,,,,,,,,,,,,,,,,,,down,0,16.0719,,0.421296296,0.001851859,1,0,0,0.3364,0,164,164,187,1,opkijken,images/br_opkijken.png,images/cb_opkijken.png,0,,,,,,,,,,,,,,,,,,,,,,
,,,,,,00046,2023-10-02_18h50.18.179,vbt_B1_day2,2022.2.4,Win32,59.5167242,,,,,,,,,,,,,,,,,,,,,,,,,,,down,0,8.6858,,0.421296296,0.001851859,1,0,0,0.3503,0,165,165,92,1,geheim,images/br_geheim.png,images/cb_geheim.png,0,,,,,,,,,,,,,,,,,,,,,,
,,,,,,00046,2023-10-02_18h50.18.179,vbt_B1_day2,2022.2.4,Win32,59.5167242,,,,,,,,,,,,,,,,,,,,,,,,,,,down,0,3.9272,,0.421296296,0.001851859,1,0,0,0.45,0,166,166,100,1,geduld,images/br_geduld.png,images/cb_geduld.png,0,,,,,,,,,,,,,,,,,,,,,,
,,,,,,00046,2023-10-02_18h50.18.179,vbt_B1_day2,2022.2.4,Win32,59.5167242,,,,,,,,,,,,,,,,,,,,,,,,,,,down,0,29.0267,,0.421296296,0.001851859,1,0,0,0.4026,0,167,167,119,1,liefje,images/br_liefje.png,images/cb_liefje.png,0,,,,,,,,,,,,,,,,,,,,,,
,,,,,,00046,2023-10-02_18h50.18.179,vbt_B1_day2,2022.2.4,Win32,59.5167242,,,,,,,,,,,,,,,,,,,,,,,,,,,down,0,4.5898,,0.421296296,0.001851859,1,0,0,0.3218,0,168,168,24,1,jurk,images/br_jurk.png,images/cb_jurk.png,0,,,,,,,,,,,,,,,,,,,,,,
,,,,,,00046,2023-10-02_18h50.18.179,vbt_B1_day2,2022.2.4,Win32,59.5167242,,,,,,,,,,,,,,,,,,,,,,,,,,,down,0,31.2386,,0.421296296,0.001851859,1,0,0,0.5335,0,169,169,86,1,woning,images/br_woning.png,images/cb_woning.png,0,,,,,,,,,,,,,,,,,,,,,,
,,,,,,00046,2023-10-02_18h50.18.179,vbt_B1_day2,2022.2.4,Win32,59.5167242,,,,,,,,,,,,,,,,,,,,,,,,,,,down,0,1.4621,,0.421296296,0.001851859,1,0,0,0.2,0,170,170,78,1,leren,images/br_leren.png,images/cb_leren.png,0,,,,,,,,,,,,,,,,,,,,,,
,,,,,,00046,2023-10-02_18h50.18.179,vbt_B1_day2,2022.2.4,Win32,59.5167242,,,,,,,,,,,,,,,,,,,,,,,,,,,down,0,7.8935,,0.421296296,0.001851859,1,0,0,0.2999,0,171,171,32,1,palm,images/br_palm.png,images/cb_palm.png,0,,,,,,,,,,,,,,,,,,,,,,
,,,,,,00046,2023-10-02_18h50.18.179,vbt_B1_day2,2022.2.4,Win32,59.5167242,,,,,,,,,,,,,,,,,,,,,,,,,,,down,0,2.6657,,0.421296296,0.001851859,1,0,0,0.2174,0,172,172,77,1,woede,images/br_woede.png,images/cb_woede.png,0,,,,,,,,,,,,,,,,,,,,,,
,,,,,,00046,2023-10-02_18h50.18.179,vbt_B1_day2,2022.2.4,Win32,59.5167242,,,,,,,,,,,,,,,,,,,,,,,,,,,down,0,3.6511,,0.421296296,0.001851859,1,0,0,0.383,0,173,173,69,1,waken,images/br_waken.png,images/cb_waken.png,0,,,,,,,,,,,,,,,,,,,,,,
,,,,,,00046,2023-10-02_18h50.18.179,vbt_B1_day2,2022.2.4,Win32,59.5167242,,,,,,,,,,,,,,,,,,,,,,,,,,,down,0,31.7658,,0.421296296,0.001851859,1,0,0,0.4431,0,174,174,185,1,mijnheer,images/br_mijnheer.png,images/cb_mijnheer.png,0,,,,,,,,,,,,,,,,,,,,,,
,,,,,,00046,2023-10-02_18h50.18.179,vbt_B1_day2,2022.2.4,Win32,59.5167242,,,,,,,,,,,,,,,,,,,,,,,,,,,down,0,18.5669,,0.421296296,0.001851859,1,0,0,1.0516,0,175,175,9,1,hier,images/br_hier.png,images/cb_hier.png,0,,,,,,,,,,,,,,,,,,,,,,
,,,,,,00046,2023-10-02_18h50.18.179,vbt_B1_day2,2022.2.4,Win32,59.5167242,,,,,,,,,,,,,,,,,,,,,,,,,,,down,0,57.8308,,0.421296296,0.001851859,1,0,0,1.411,0,176,176,160,1,daarheen,images/br_daarheen.png,images/cb_daarheen.png,0,,,,,,,,,,,,,,,,,,,,,,
,,,,,,00046,2023-10-02_18h50.18.179,vbt_B1_day2,2022.2.4,Win32,59.5167242,,,,,,,,,,,,,,,,,,,,,,,,,,,down,0,18.257,,0.421296296,0.001851859,1,0,0,0.4003,0,177,177,22,1,stof,images/br_stof.png,images/cb_stof.png,0,,,,,,,,,,,,,,,,,,,,,,
,,,,,,00046,2023-10-02_18h50.18.179,vbt_B1_day2,2022.2.4,Win32,59.5167242,,,,,,,,,,,,,,,,,,,,,,,,,,,down,0,57.1559,,0.421296296,0.001851859,1,0,0,0.706,0,178,178,175,1,heengaan,images/br_heengaan.png,images/cb_heengaan.png,0,,,,,,,,,,,,,,,,,,,,,,
,,,,,,00046,2023-10-02_18h50.18.179,vbt_B1_day2,2022.2.4,Win32,59.5167242,,,,,,,,,,,,,,,,,,,,,,,,,,,down,0,10.3014,,0.421296296,0.001851859,1,0,0,0.5516,0,179,179,178,1,huisdier,images/br_huisdier.png,images/cb_huisdier.png,1,huisdier,,,,,,,,,,,,,,,,,,,,,
,,,,,,00046,2023-10-02_18h50.18.179,vbt_B1_day2,2022.2.4,Win32,59.5167242,,,,,,,,,,,,,,,,,,,,,,,,,,,down,0,19.1272,,0.421296296,0.001851859,1,0,0,0.4225,0,180,180,166,1,strikken,images/br_strikken.png,images/cb_strikken.png,0,,,,,,,,,,,,,,,,,,,,,,
,,,,,,00046,2023-10-02_18h50.18.179,vbt_B1_day2,2022.2.4,Win32,59.5167242,,,,,,,,,,,,,,,,,,,,,,,,,,,down,0,25.3435,,0.421296296,0.001851859,1,0,0,0.4549,0,181,181,55,1,praat,images/br_praat.png,images/cb_praat.png,0,,,,,,,,,,,,,,,,,,,,,,
,,,,,,00046,2023-10-02_18h50.18.179,vbt_B1_day2,2022.2.4,Win32,59.5167242,,,,,,,,,,,,,,,,,,,,,,,,,,,down,0,22.8064,,0.421296296,0.001851859,1,0,0,1.105,0,182,182,161,1,attentie,images/br_attentie.png,images/cb_attentie.png,0,,,,,,,,,,,,,,,,,,,,,,
,,,,,,00046,2023-10-02_18h50.18.179,vbt_B1_day2,2022.2.4,Win32,59.5167242,,,,,,,,,,,,,,,,,,,,,,,,,,,down,0,13.0675,,0.421296296,0.001851859,1,0,0,0.3166,0,183,183,82,1,muziek,images/br_muziek.png,images/cb_muziek.png,0,,,,,,,,,,,,,,,,,,,,,,
,,,,,,00046,2023-10-02_18h50.18.179,vbt_B1_day2,2022.2.4,Win32,59.5167242,,,,,,,,,,,,,,,,,,,,,,,,,,,down,0,10.2827,,0.421296296,0.001851859,1,0,0,0.3981,0,184,184,45,1,piste,images/br_piste.png,images/cb_piste.png,0,,,,,,,,,,,,,,,,,,,,,,
,,,,,,00046,2023-10-02_18h50.18.179,vbt_B1_day2,2022.2.4,Win32,59.5167242,,,,,,,,,,,,,,,,,,,,,,,,,,,down,0,23.6989,,0.138888889,-0.202777792,1,0,0,0.7675,0,185,185,136,1,waarbij,images/br_waarbij.png,images/cb_waarbij.png,1,waarbij,,,,,,,,,,,,,,,,,,,,,
,,,,,,00046,2023-10-02_18h50.18.179,vbt_B1_day2,2022.2.4,Win32,59.5167242,,,,,,,,,,,,,,,,,,,,,,,,,,,down,0,21.9359,,0.138888889,-0.202777792,1,0,0,0.3936,0,186,186,127,1,doodmoe,images/br_doodmoe.png,images/cb_doodmoe.png,0,,,,,,,,,,,,,,,,,,,,,,
,,,,,,00046,2023-10-02_18h50.18.179,vbt_B1_day2,2022.2.4,Win32,59.5167242,,,,,,,,,,,,,,,,,,,,,,,,,,,down,0,4.7354,,0.138888889,-0.202777792,1,0,0,0.3717,0,187,187,8,1,knie,images/br_knie.png,images/cb_knie.png,0,,,,,,,,,,,,,,,,,,,,,,
,,,,,,00046,2023-10-02_18h50.18.179,vbt_B1_day2,2022.2.4,Win32,59.5167242,,,,,,,,,,,,,,,,,,,,,,,,,,,down,0,10.5146,,0.138888889,-0.202777792,1,0,0,0.3822,0,188,188,182,1,bijkomen,images/br_bijkomen.png,images/cb_bijkomen.png,0,,,,,,,,,,,,,,,,,,,,,,
,,,,,,00046,2023-10-02_18h50.18.179,vbt_B1_day2,2022.2.4,Win32,59.5167242,,,,,,,,,,,,,,,,,,,,,,,,,,,down,0,4.9412,,0.138888889,-0.202777792,1,0,0,0.2531,0,189,189,188,1,strekken,images/br_strekken.png,images/cb_strekken.png,0,,,,,,,,,,,,,,,,,,,,,,
,,,,,,00046,2023-10-02_18h50.18.179,vbt_B1_day2,2022.2.4,Win32,59.5167242,,,,,,,,,,,,,,,,,,,,,,,,,,,down,0,9.1491,,0.138888889,-0.202777792,1,0,0,0.4053,0,190,190,67,1,zwart,images/br_zwart.png,images/cb_zwart.png,0,,,,,,,,,,,,,,,,,,,,,,
,,,,,,00046,2023-10-02_18h50.18.179,vbt_B1_day2,2022.2.4,Win32,59.5167242,,,,,,,,,,,,,,,,,,,,,,,,,,,down,0,10.5988,,0.138888889,-0.202777792,1,0,0,0.3871,0,191,191,176,1,techniek,images/br_techniek.png,images/cb_techniek.png,1,techniek,,,,,,,,,,,,,,,,,,,,,
,,,,,,00046,2023-10-02_18h50.18.179,vbt_B1_day2,2022.2.4,Win32,59.5167242,,,,,,,,,,,,,,,,,,,,,,,,,,,down,0,0.7548,,0.138888889,-0.202777792,1,0,0,0.4221,0,192,192,10,1,leek,images/br_leek.png,images/cb_leek.png,0,,,,,,,,,,,,,,,,,,,,,,
,,,,,,00046,2023-10-02_18h50.18.179,vbt_B1_day2,2022.2.4,Win32,59.5167242,,,,,,,,,,,,,,,,,,,,,,,,,,,down,0,3.0019,,0.138888889,-0.202777792,1,0,0,0.3767,0,193,193,75,1,snoep,images/br_snoep.png,images/cb_snoep.png,0,,,,,,,,,,,,,,,,,,,,,,
,,,,,,00046,2023-10-02_18h50.18.179,vbt_B1_day2,2022.2.4,Win32,59.5167242,,,,,,,,,,,,,,,,,,,,,,,,,,,down,0,5.5856,,0.138888889,-0.202777792,1,0,0,0.544,0,194,194,120,1,klimmen,images/br_klimmen.png,images/cb_klimmen.png,0,,,,,,,,,,,,,,,,,,,,,,
,,,,,,00046,2023-10-02_18h50.18.179,vbt_B1_day2,2022.2.4,Win32,59.5167242,,,,,,,,,,,,,,,,,,,,,,,,,,,down,0,3.508,,0.138888889,-0.202777792,1,0,0,1.0167,0,195,195,125,1,aanzien,images/br_aanzien.png,images/cb_aanzien.png,0,,,,,,,,,,,,,,,,,,,,,,
,,,,,,00046,2023-10-02_18h50.18.179,vbt_B1_day2,2022.2.4,Win32,59.5167242,,,,,,,,,,,,,,,,,,,,,,,,,,,down,0,3.1179,,0.138888889,-0.202777792,1,0,0,0.2339,0,196,196,114,1,vullen,images/br_vullen.png,images/cb_vullen.png,0,,,,,,,,,,,,,,,,,,,,,,
,,,,,,00046,2023-10-02_18h50.18.179,vbt_B1_day2,2022.2.4,Win32,59.5167242,,,,,,,,,,,,,,,,,,,,,,,,,,,down,0,7.2036,,0.138888889,-0.202777792,1,0,0,3.0652,0,197,197,27,1,dans,images/br_dans.png,images/cb_dans.png,0,,,,,,,,,,,,,,,,,,,,,,
,,,,,,00046,2023-10-02_18h50.18.179,vbt_B1_day2,2022.2.4,Win32,59.5167242,,,,,,,,,,,,,,,,,,,,,,,,,,,down,0,42.3197,,0.138888889,-0.202777792,1,0,0,0.5293,0,198,198,102,1,legaal,images/br_legaal.png,images/cb_legaal.png,0,,,,,,,,,,,,,,,,,,,,,,
,,,,,,00046,2023-10-02_18h50.18.179,vbt_B1_day2,2022.2.4,Win32,59.5167242,,,,,,,,,,,,,,,,,,,,,,,,,,,down,0,22.051,,0.138888889,-0.202777792,1,0,0,1.6294,0,199,199,95,1,vreten,images/br_vreten.png,images/cb_vreten.png,0,,,,,,,,,,,,,,,,,,,,,,
,,,,,,00046,2023-10-02_18h50.18.179,vbt_B1_day2,2022.2.4,Win32,59.5167242,,,,,,,,,,,,,,,,,,,,,,,,,,,,,,,,,,,,,,,,,,,,,,,0.138888889,-0.202777792,1,0,0,,,,,,,,,,,,,,,,
,,,,,,00046,2023-10-02_18h50.18.179,vbt_B1_day2,2022.2.4,Win32,59.5167242,,,,,,,,,,,,,,,,,,,,,,,,,,,,,,,,,,,,,,,,,,,,,,,,,,,,0.138888889,-0.202777792,1,0,0,,,,,,,,,,,
,,,,,,00046,2023-10-02_18h50.18.179,vbt_B1_day2,2022.2.4,Win32,59.5167242,,,,,,,,,,,,,,,,,,,,,,,,,,,,,,,,,,,,,,,,,,feestdag,images/br_feestdag.png,images/cb_feestdag.png,,fee.....,,,,,,,,,,,0.138888889,-0.202777792,1,0,0,fee.....,0,0,0,17,1
,,,,,,00046,2023-10-02_18h50.18.179,vbt_B1_day2,2022.2.4,Win32,59.5167242,,,,,,,,,,,,,,,,,,,,,,,,,,,,,,,,,,,,,,,,,,trots,images/br_trots.png,images/cb_trots.png,,trots,,,,,,,,,,,0.37037037,-0.203703704,1,0,0,trots,0,1,1,44,1
,,,,,,00046,2023-10-02_18h50.18.179,vbt_B1_day2,2022.2.4,Win32,59.5167242,,,,,,,,,,,,,,,,,,,,,,,,,,,,,,,,,,,,,,,,,,agressie,images/br_agressie.png,images/cb_agressie.png,,agressie,,,,,,,,,,,0.375925982,-0.193518533,1,0,0,agressie,0,2,2,59,1
,,,,,,00046,2023-10-02_18h50.18.179,vbt_B1_day2,2022.2.4,Win32,59.5167242,,,,,,,,,,,,,,,,,,,,,,,,,,,,,,,,,,,,,,,,,,strikken,images/br_strikken.png,images/cb_strikken.png,,strikken,,,,,,,,,,,0.375925982,-0.193518533,1,0,0,strikken,0,3,3,18,1
,,,,,,00046,2023-10-02_18h50.18.179,vbt_B1_day2,2022.2.4,Win32,59.5167242,,,,,,,,,,,,,,,,,,,,,,,,,,,,,,,,,,,,,,,,,,aanvraag,images/br_aanvraag.png,images/cb_aanvraag.png,,aanvragen,,,,,,,,,,,0.375925982,-0.193518533,1,0,0,aanvragen,0,4,4,57,1
,,,,,,00046,2023-10-02_18h50.18.179,vbt_B1_day2,2022.2.4,Win32,59.5167242,,,,,,,,,,,,,,,,,,,,,,,,,,,,,,,,,,,,,,,,,,dode,images/br_dode.png,images/cb_dode.png,,dode,,,,,,,,,,,0.375925982,-0.193518533,1,0,0,dode,0,5,5,41,1
,,,,,,00046,2023-10-02_18h50.18.179,vbt_B1_day2,2022.2.4,Win32,59.5167242,,,,,,,,,,,,,,,,,,,,,,,,,,,,,,,,,,,,,,,,,,opdatten,images/br_opdatten.png,images/cb_opdatten.png,,opdatt..,,,,,,,,,,,0.374074159,-0.184259273,1,0,0,opdatt..,0,6,6,37,1
,,,,,,00046,2023-10-02_18h50.18.179,vbt_B1_day2,2022.2.4,Win32,59.5167242,,,,,,,,,,,,,,,,,,,,,,,,,,,,,,,,,,,,,,,,,,moes,images/br_moes.png,images/cb_moes.png,,moes,,,,,,,,,,,0.374074159,-0.184259273,1,0,0,moes,0,7,7,0,1
,,,,,,00046,2023-10-02_18h50.18.179,vbt_B1_day2,2022.2.4,Win32,59.5167242,,,,,,,,,,,,,,,,,,,,,,,,,,,,,,,,,,,,,,,,,,tand,images/br_tand.png,images/cb_tand.png,,tand,,,,,,,,,,,0.374074159,-0.184259273,1,0,0,tand,0,8,8,42,1
,,,,,,00046,2023-10-02_18h50.18.179,vbt_B1_day2,2022.2.4,Win32,59.5167242,,,,,,,,,,,,,,,,,,,,,,,,,,,,,,,,,,,,,,,,,,eenhoorn,images/br_eenhoorn.png,images/cb_eenhoorn.png,,eenhoorn,,,,,,,,,,,0.374074159,-0.184259273,1,0,0,eenhoorn,0,9,9,19,1
,,,,,,00046,2023-10-02_18h50.18.179,vbt_B1_day2,2022.2.4,Win32,59.5167242,,,,,,,,,,,,,,,,,,,,,,,,,,,,,,,,,,,,,,,,,,jong,images/br_jong.png,images/cb_jong.png,,jong,,,,,,,,,,,0.374074159,-0.184259273,1,0,0,jong,0,10,10,43,1
,,,,,,00046,2023-10-02_18h50.18.179,vbt_B1_day2,2022.2.4,Win32,59.5167242,,,,,,,,,,,,,,,,,,,,,,,,,,,,,,,,,,,,,,,,,,diep,images/br_diep.png,images/cb_diep.png,,diep,,,,,,,,,,,0.374074159,-0.184259273,1,0,0,diep,0,11,11,2,1
,,,,,,00046,2023-10-02_18h50.18.179,vbt_B1_day2,2022.2.4,Win32,59.5167242,,,,,,,,,,,,,,,,,,,,,,,,,,,,,,,,,,,,,,,,,,lokken,images/br_lokken.png,images/cb_lokken.png,,lokken,,,,,,,,,,,0.374074159,-0.184259273,1,0,0,lokken,0,12,12,8,1
,,,,,,00046,2023-10-02_18h50.18.179,vbt_B1_day2,2022.2.4,Win32,59.5167242,,,,,,,,,,,,,,,,,,,,,,,,,,,,,,,,,,,,,,,,,,heengeen,images/br_heengeen.png,images/cb_heengeen.png,,heen.ee.,,,,,,,,,,,0.374074159,-0.184259273,1,0,0,heen.ee.,0,13,13,38,1
,,,,,,00046,2023-10-02_18h50.18.179,vbt_B1_day2,2022.2.4,Win32,59.5167242,,,,,,,,,,,,,,,,,,,,,,,,,,,,,,,,,,,,,,,,,,flits,images/br_flits.png,images/cb_flits.png,,flits,,,,,,,,,,,0.372222194,-0.18240745,1,0,0,flits,0,14,14,4,1
,,,,,,00046,2023-10-02_18h50.18.179,vbt_B1_day2,2022.2.4,Win32,59.5167242,,,,,,,,,,,,,,,,,,,,,,,,,,,,,,,,,,,,,,,,,,thema,images/br_thema.png,images/cb_thema.png,,the..,,,,,,,,,,,0.372222194,-0.18240745,1,0,0,the..,0,15,15,47,1
,,,,,,00046,2023-10-02_18h50.18.179,vbt_B1_day2,2022.2.4,Win32,59.5167242,,,,,,,,,,,,,,,,,,,,,,,,,,,,,,,,,,,,,,,,,,sifferd,images/br_sifferd.png,images/cb_sifferd.png,,siffe..,,,,,,,,,,,0.372222194,-0.18240745,1,0,0,siffe..,0,16,16,32,1
,,,,,,00046,2023-10-02_18h50.18.179,vbt_B1_day2,2022.2.4,Win32,59.5167242,,,,,,,,,,,,,,,,,,,,,,,,,,,,,,,,,,,,,,,,,,sjijfel,images/br_sjijfel.png,images/cb_sjijfel.png,,sji....,,,,,,,,,,,0.372222194,-0.18240745,1,0,0,sji....,0,17,17,33,1
,,,,,,00046,2023-10-02_18h50.18.179,vbt_B1_day2,2022.2.4,Win32,59.5167242,,,,,,,,,,,,,,,,,,,,,,,,,,,,,,,,,,,,,,,,,,bereuwen,images/br_bereuwen.png,images/cb_bereuwen.png,,ber.....,,,,,,,,,,,0.372222194,-0.18240745,1,0,0,ber.....,0,18,18,39,1
,,,,,,00046,2023-10-02_18h50.18.179,vbt_B1_day2,2022.2.4,Win32,59.5167242,,,,,,,,,,,,,,,,,,,,,,,,,,,,,,,,,,,,,,,,,,ophuimen,images/br_ophuimen.png,images/cb_ophuimen.png,,ophuim..,,,,,,,,,,,0.372222194,-0.18240745,1,0,0,ophuim..,0,19,19,36,1
,,,,,,00046,2023-10-02_18h50.18.179,vbt_B1_day2,2022.2.4,Win32,59.5167242,,,,,,,,,,,,,,,,,,,,,,,,,,,,,,,,,,,,,,,,,,lurgen,images/br_lurgen.png,images/cb_lurgen.png,,lurgen,,,,,,,,,,,0.372222194,-0.18240745,1,0,0,lurgen,0,20,20,29,1
,,,,,,00046,2023-10-02_18h50.18.179,vbt_B1_day2,2022.2.4,Win32,59.5167242,,,,,,,,,,,,,,,,,,,,,,,,,,,,,,,,,,,,,,,,,,kijlen,images/br_kijlen.png,images/cb_kijlen.png,,kijlen,,,,,,,,,,,0.372222194,-0.18240745,1,0,0,kijlen,0,21,21,31,1
,,,,,,00046,2023-10-02_18h50.18.179,vbt_B1_day2,2022.2.4,Win32,59.5167242,,,,,,,,,,,,,,,,,,,,,,,,,,,,,,,,,,,,,,,,,,negel,images/br_negel.png,images/cb_negel.png,,negel,,,,,,,,,,,0.372222194,-0.18240745,1,0,0,negel,0,22,22,24,1
,,,,,,00046,2023-10-02_18h50.18.179,vbt_B1_day2,2022.2.4,Win32,59.5167242,,,,,,,,,,,,,,,,,,,,,,,,,,,,,,,,,,,,,,,,,,kenzis,images/br_kenzis.png,images/cb_kenzis.png,,kenzes,,,,,,,,,,,0.372222194,-0.18240745,1,0,0,kenzes,0,23,23,30,1
,,,,,,00046,2023-10-02_18h50.18.179,vbt_B1_day2,2022.2.4,Win32,59.5167242,,,,,,,,,,,,,,,,,,,,,,,,,,,,,,,,,,,,,,,,,,doodmoe,images/br_doodmoe.png,images/cb_doodmoe.png,,doodmoe,,,,,,,,,,,0.372222194,-0.18240745,1,0,0,doodmoe,0,24,24,15,1
,,,,,,00046,2023-10-02_18h50.18.179,vbt_B1_day2,2022.2.4,Win32,59.5167242,,,,,,,,,,,,,,,,,,,,,,,,,,,,,,,,,,,,,,,,,,remel,images/br_remel.png,images/cb_remel.png,,remel,,,,,,,,,,,0.372222194,-0.18240745,1,0,0,remel,0,25,25,25,1
,,,,,,00046,2023-10-02_18h50.18.179,vbt_B1_day2,2022.2.4,Win32,59.5167242,,,,,,,,,,,,,,,,,,,,,,,,,,,,,,,,,,,,,,,,,,zwager,images/br_zwager.png,images/cb_zwager.png,,zwag..,,,,,,,,,,,0.372222194,-0.18240745,1,0,0,zwag..,0,26,26,49,1
,,,,,,00046,2023-10-02_18h50.18.179,vbt_B1_day2,2022.2.4,Win32,59.5167242,,,,,,,,,,,,,,,,,,,,,,,,,,,,,,,,,,,,,,,,,,prekken,images/br_prekken.png,images/cb_prekken.png,,prekken,,,,,,,,,,,0.372222194,-0.18240745,1,0,0,prekken,0,27,27,34,1
,,,,,,00046,2023-10-02_18h50.18.179,vbt_B1_day2,2022.2.4,Win32,59.5167242,,,,,,,,,,,,,,,,,,,,,,,,,,,,,,,,,,,,,,,,,,woning,images/br_woning.png,images/cb_woning.png,,woning,,,,,,,,,,,0.372222194,-0.18240745,1,0,0,woning,0,28,28,10,1
,,,,,,00046,2023-10-02_18h50.18.179,vbt_B1_day2,2022.2.4,Win32,59.5167242,,,,,,,,,,,,,,,,,,,,,,,,,,,,,,,,,,,,,,,,,,ningen,images/br_ningen.png,images/cb_ningen.png,,ningen,,,,,,,,,,,0.372222194,-0.18240745,1,0,0,ningen,0,29,29,28,1
,,,,,,00046,2023-10-02_18h50.18.179,vbt_B1_day2,2022.2.4,Win32,59.5167242,,,,,,,,,,,,,,,,,,,,,,,,,,,,,,,,,,,,,,,,,,kabel,images/br_kabel.png,images/cb_kabel.png,,kabel,,,,,,,,,,,0.372222194,-0.18240745,1,0,0,kabel,0,30,30,7,1
,,,,,,00046,2023-10-02_18h50.18.179,vbt_B1_day2,2022.2.4,Win32,59.5167242,,,,,,,,,,,,,,,,,,,,,,,,,,,,,,,,,,,,,,,,,,jagen,images/br_jagen.png,images/cb_jagen.png,,jagen,,,,,,,,,,,0.372222194,-0.18240745,1,0,0,jagen,0,31,31,6,1
,,,,,,00046,2023-10-02_18h50.18.179,vbt_B1_day2,2022.2.4,Win32,59.5167242,,,,,,,,,,,,,,,,,,,,,,,,,,,,,,,,,,,,,,,,,,badon,images/br_badon.png,images/cb_badon.png,,baden,,,,,,,,,,,0.372222194,-0.18240745,1,0,0,baden,0,32,32,26,1
,,,,,,00046,2023-10-02_18h50.18.179,vbt_B1_day2,2022.2.4,Win32,59.5167242,,,,,,,,,,,,,,,,,,,,,,,,,,,,,,,,,,,,,,,,,,breuk,images/br_breuk.png,images/cb_breuk.png,,breuk,,,,,,,,,,,0.372222194,-0.18240745,1,0,0,breuk,0,33,33,45,1
,,,,,,00046,2023-10-02_18h50.18.179,vbt_B1_day2,2022.2.4,Win32,59.5167242,,,,,,,,,,,,,,,,,,,,,,,,,,,,,,,,,,,,,,,,,,manieren,images/br_manieren.png,images/cb_manieren.png,,manie...,,,,,,,,,,,0.372222194,-0.18240745,1,0,0,manie...,0,34,34,56,1
,,,,,,00046,2023-10-02_18h50.18.179,vbt_B1_day2,2022.2.4,Win32,59.5167242,,,,,,,,,,,,,,,,,,,,,,,,,,,,,,,,,,,,,,,,,,zomers,images/br_zomers.png,images/cb_zomers.png,,nemer.,,,,,,,,,,,0.021296325,-0.094444487,1,0,0,nemer.,0,35,35,48,1
,,,,,,00046,2023-10-02_18h50.18.179,vbt_B1_day2,2022.2.4,Win32,59.5167242,,,,,,,,,,,,,,,,,,,,,,,,,,,,,,,,,,,,,,,,,,aanzien,images/br_aanzien.png,images/cb_aanzien.png,,aanzien,,,,,,,,,,,0.021296325,-0.094444487,1,0,0,aanzien,0,36,36,13,1
,,,,,,00046,2023-10-02_18h50.18.179,vbt_B1_day2,2022.2.4,Win32,59.5167242,,,,,,,,,,,,,,,,,,,,,,,,,,,,,,,,,,,,,,,,,,zegel,images/br_zegel.png,images/cb_zegel.png,,negel,,,,,,,,,,,0.036111125,-0.085185192,1,0,0,negel,0,37,37,46,1
,,,,,,00046,2023-10-02_18h50.18.179,vbt_B1_day2,2022.2.4,Win32,59.5167242,,,,,,,,,,,,,,,,,,,,,,,,,,,,,,,,,,,,,,,,,,joes,images/br_joes.png,images/cb_joes.png,,joes,,,,,,,,,,,0.036111125,-0.085185192,1,0,0,joes,0,38,38,20,1
,,,,,,00046,2023-10-02_18h50.18.179,vbt_B1_day2,2022.2.4,Win32,59.5167242,,,,,,,,,,,,,,,,,,,,,,,,,,,,,,,,,,,,,,,,,,welzijn,images/br_welzijn.png,images/cb_welzijn.png,,welzijn,,,,,,,,,,,0.036111125,-0.085185192,1,0,0,welzijn,0,39,39,52,1
,,,,,,00046,2023-10-02_18h50.18.179,vbt_B1_day2,2022.2.4,Win32,59.5167242,,,,,,,,,,,,,,,,,,,,,,,,,,,,,,,,,,,,,,,,,,krimmen,images/br_krimmen.png,images/cb_krimmen.png,,krimm..,,,,,,,,,,,0.036111125,-0.085185192,1,0,0,krimm..,0,40,40,35,1
,,,,,,00046,2023-10-02_18h50.18.179,vbt_B1_day2,2022.2.4,Win32,59.5167242,,,,,,,,,,,,,,,,,,,,,,,,,,,,,,,,,,,,,,,,,,toeval,images/br_toeval.png,images/cb_toeval.png,,toeval,,,,,,,,,,,0.036111125,-0.085185192,1,0,0,toeval,0,41,41,11,1
,,,,,,00046,2023-10-02_18h50.18.179,vbt_B1_day2,2022.2.4,Win32,59.5167242,,,,,,,,,,,,,,,,,,,,,,,,,,,,,,,,,,,,,,,,,,koorts,images/br_koorts.png,images/cb_koorts.png,,koorts,,,,,,,,,,,0.036111125,-0.085185192,1,0,0,koorts,0,42,42,50,1
,,,,,,00046,2023-10-02_18h50.18.179,vbt_B1_day2,2022.2.4,Win32,59.5167242,,,,,,,,,,,,,,,,,,,,,,,,,,,,,,,,,,,,,,,,,,bloeien,images/br_bloeien.png,images/cb_bloeien.png,,bloeien,,,,,,,,,,,0.036111125,-0.085185192,1,0,0,bloeien,0,43,43,12,1
,,,,,,00046,2023-10-02_18h50.18.179,vbt_B1_day2,2022.2.4,Win32,59.5167242,,,,,,,,,,,,,,,,,,,,,,,,,,,,,,,,,,,,,,,,,,sora,images/br_sora.png,images/cb_sora.png,,sora,,,,,,,,,,,0.036111125,-0.085185192,1,0,0,sora,0,44,44,22,1
,,,,,,00046,2023-10-02_18h50.18.179,vbt_B1_day2,2022.2.4,Win32,59.5167242,,,,,,,,,,,,,,,,,,,,,,,,,,,,,,,,,,,,,,,,,,clan,images/br_clan.png,images/cb_clan.png,,clan,,,,,,,,,,,-0.050925926,0.041666667,1,0,0,clan,0,45,45,40,1
,,,,,,00046,2023-10-02_18h50.18.179,vbt_B1_day2,2022.2.4,Win32,59.5167242,,,,,,,,,,,,,,,,,,,,,,,,,,,,,,,,,,,,,,,,,,plannen,images/br_plannen.png,images/cb_plannen.png,,plannen,,,,,,,,,,,-0.050925926,0.041666667,1,0,0,plannen,0,46,46,55,1
,,,,,,00046,2023-10-02_18h50.18.179,vbt_B1_day2,2022.2.4,Win32,59.5167242,,,,,,,,,,,,,,,,,,,,,,,,,,,,,,,,,,,,,,,,,,heilig,images/br_heilig.png,images/cb_heilig.png,,heilig,,,,,,,,,,,-0.008333347,0.15648146,1,0,0,heilig,0,47,47,9,1
,,,,,,00046,2023-10-02_18h50.18.179,vbt_B1_day2,2022.2.4,Win32,59.5167242,,,,,,,,,,,,,,,,,,,,,,,,,,,,,,,,,,,,,,,,,,stes,images/br_stes.png,images/cb_stes.png,,stes,,,,,,,,,,,-0.008333347,0.15648146,1,0,0,stes,0,48,48,21,1
,,,,,,00046,2023-10-02_18h50.18.179,vbt_B1_day2,2022.2.4,Win32,59.5167242,,,,,,,,,,,,,,,,,,,,,,,,,,,,,,,,,,,,,,,,,,wijve,images/br_wijve.png,images/cb_wijve.png,,wijve,,,,,,,,,,,-0.008333347,0.15648146,1,0,0,wijve,0,49,49,27,1
,,,,,,00046,2023-10-02_18h50.18.179,vbt_B1_day2,2022.2.4,Win32,59.5167242,,,,,,,,,,,,,,,,,,,,,,,,,,,,,,,,,,,,,,,,,,anarchie,images/br_anarchie.png,images/cb_anarchie.png,,anarchie,,,,,,,,,,,-0.008333347,0.15648146,1,0,0,anarchie,0,50,50,16,1
,,,,,,00046,2023-10-02_18h50.18.179,vbt_B1_day2,2022.2.4,Win32,59.5167242,,,,,,,,,,,,,,,,,,,,,,,,,,,,,,,,,,,,,,,,,,inzicht,images/br_inzicht.png,images/cb_inzicht.png,,inzicht,,,,,,,,,,,-0.008333347,0.15648146,1,0,0,inzicht,0,51,51,53,1
,,,,,,00046,2023-10-02_18h50.18.179,vbt_B1_day2,2022.2.4,Win32,59.5167242,,,,,,,,,,,,,,,,,,,,,,,,,,,,,,,,,,,,,,,,,,lijnen,images/br_lijnen.png,images/cb_lijnen.png,,lijnen,,,,,,,,,,,-0.008333347,0.15648146,1,0,0,lijnen,0,52,52,51,1
,,,,,,00046,2023-10-02_18h50.18.179,vbt_B1_day2,2022.2.4,Win32,59.5167242,,,,,,,,,,,,,,,,,,,,,,,,,,,,,,,,,,,,,,,,,,kasteel,images/br_kasteel.png,images/cb_kasteel.png,,kasteel,,,,,,,,,,,-0.008333347,0.15648146,1,0,0,kasteel,0,53,53,14,1
,,,,,,00046,2023-10-02_18h50.18.179,vbt_B1_day2,2022.2.4,Win32,59.5167242,,,,,,,,,,,,,,,,,,,,,,,,,,,,,,,,,,,,,,,,,,goon,images/br_goon.png,images/cb_goon.png,,goon,,,,,,,,,,,-0.008333347,0.15648146,1,0,0,goon,0,54,54,23,1
,,,,,,00046,2023-10-02_18h50.18.179,vbt_B1_day2,2022.2.4,Win32,59.5167242,,,,,,,,,,,,,,,,,,,,,,,,,,,,,,,,,,,,,,,,,,blad,images/br_blad.png,images/cb_blad.png,,blad,,,,,,,,,,,-0.008333347,0.15648146,1,0,0,blad,0,55,55,1,1
,,,,,,00046,2023-10-02_18h50.18.179,vbt_B1_day2,2022.2.4,Win32,59.5167242,,,,,,,,,,,,,,,,,,,,,,,,,,,,,,,,,,,,,,,,,,piste,images/br_piste.png,images/cb_piste.png,,piste,,,,,,,,,,,-0.008333347,0.15648146,1,0,0,piste,0,56,56,5,1
,,,,,,00046,2023-10-02_18h50.18.179,vbt_B1_day2,2022.2.4,Win32,59.5167242,,,,,,,,,,,,,,,,,,,,,,,,,,,,,,,,,,,,,,,,,,geld,images/br_geld.png,images/cb_geld.png,,geld,,,,,,,,,,,-0.008333347,0.15648146,1,0,0,geld,0,57,57,3,1
,,,,,,00046,2023-10-02_18h50.18.179,vbt_B1_day2,2022.2.4,Win32,59.5167242,,,,,,,,,,,,,,,,,,,,,,,,,,,,,,,,,,,,,,,,,,systeem,images/br_systeem.png,images/cb_systeem.png,,systeem,,,,,,,,,,,-0.008333347,0.15648146,1,0,0,systeem,0,58,58,54,1
,,,,,,00046,2023-10-02_18h50.18.179,vbt_B1_day2,2022.2.4,Win32,59.5167242,,,,,,,,,,,,,,,,,,,,,,,,,,,,,,,,,,,,,,,,,,tweeling,images/br_tweeling.png,images/cb_tweeling.png,,tweeling,,,,,,,,,,,-0.008333347,0.15648146,1,0,0,tweeling,0,59,59,58,1
,,,,,,00046,2023-10-02_18h50.18.179,vbt_B1_day2,2022.2.4,Win32,59.5167242,,,,,,,,,,,,,,,,,,,,,,,,,,,,,,,,,,,,,,,,,,,,,,,,,,,,,,,,,,,,,,,,,,,
