welcome_mouse.x,welcome_mouse.y,welcome_mouse.leftButton,welcome_mouse.midButton,welcome_mouse.rightButton,welcome_mouse.time,"ID",date,expName,psychopyVersion,OS,frameRate,refresh_mouse.x,refresh_mouse.y,refresh_mouse.leftButton,refresh_mouse.midButton,refresh_mouse.rightButton,refresh_mouse.time,braille_mouse.x,braille_mouse.y,braille_mouse.leftButton,braille_mouse.midButton,braille_mouse.rightButton,braille_mouse.time,trials.thisRepN,trials.thisTrialN,trials.thisN,trials.thisIndex,trials.ran,nlLet,brLet,cbLet,trainInstr_mouse.x,trainInstr_mouse.y,trainInstr_mouse.leftButton,trainInstr_mouse.midButton,trainInstr_mouse.rightButton,trainInstr_mouse.time,translation_key.keys,translation_key.corr,translation_key.rt,word_rsp.text,word_mouse.x,word_mouse.y,word_mouse.leftButton,word_mouse.midButton,word_mouse.rightButton,word_mouse.time,train_loop.thisRepN,train_loop.thisTrialN,train_loop.thisN,train_loop.thisIndex,train_loop.ran,nlWrd,brWrd,cbWrd,test,testResp,mouse.x,mouse.y,mouse.leftButton,mouse.midButton,mouse.rightButton,testInstr_mouse.x,testInstr_mouse.y,testInstr_mouse.leftButton,testInstr_mouse.midButton,testInstr_mouse.rightButton,test_mouse.x,test_mouse.y,test_mouse.leftButton,test_mouse.midButton,test_mouse.rightButton,test_response.text,test_loop.thisRepN,test_loop.thisTrialN,test_loop.thisN,test_loop.thisIndex,test_loop.ran
0.111484036,-0.197962443,1,0,0,2.873,00020,2023-08-19_12h05.45.758,vbt_B1_day2,2022.2.4,MacIntel,60.0024001,,,,,,,,,,,,,,,,,,,,,,,,,,,,,,,,,,,,,,,,,,,,,,,,,,,,,,,,,,,,,,,,,,,
,,,,,,00020,2023-08-19_12h05.45.758,vbt_B1_day2,2022.2.4,MacIntel,60.0024001,0.111484036,-0.197962443,1,0,0,2.9624,,,,,,,,,,,,,,,,,,,,,,,,,,,,,,,,,,,,,,,,,,,,,,,,,,,,,,,,,,,,,
,,,,,,00020,2023-08-19_12h05.45.758,vbt_B1_day2,2022.2.4,MacIntel,60.0024001,,,,,,,0.165923191,-0.118207804,1,0,0,2.3976,0,0,0,22,1,w,images/br_w.png,images/cb_w.png,,,,,,,,,,,,,,,,,,,,,,,,,,,,,,,,,,,,,,,,,,,,,,,
,,,,,,00020,2023-08-19_12h05.45.758,vbt_B1_day2,2022.2.4,MacIntel,60.0024001,,,,,,,0.165923191,-0.118207804,1,0,0,3.5161,0,1,1,2,1,c,images/br_c.png,images/cb_c.png,,,,,,,,,,,,,,,,,,,,,,,,,,,,,,,,,,,,,,,,,,,,,,,
,,,,,,00020,2023-08-19_12h05.45.758,vbt_B1_day2,2022.2.4,MacIntel,60.0024001,,,,,,,0.165923191,-0.118207804,1,0,0,5.0336,0,2,2,13,1,n,images/br_n.png,images/cb_n.png,,,,,,,,,,,,,,,,,,,,,,,,,,,,,,,,,,,,,,,,,,,,,,,
,,,,,,00020,2023-08-19_12h05.45.758,vbt_B1_day2,2022.2.4,MacIntel,60.0024001,,,,,,,0.182535604,-0.083198174,1,0,0,2.3836,0,3,3,17,1,r,images/br_r.png,images/cb_r.png,,,,,,,,,,,,,,,,,,,,,,,,,,,,,,,,,,,,,,,,,,,,,,,
,,,,,,00020,2023-08-19_12h05.45.758,vbt_B1_day2,2022.2.4,MacIntel,60.0024001,,,,,,,0.182535604,-0.083198174,1,0,0,0.5338,0,4,4,18,1,s,images/br_s.png,images/cb_s.png,,,,,,,,,,,,,,,,,,,,,,,,,,,,,,,,,,,,,,,,,,,,,,,
,,,,,,00020,2023-08-19_12h05.45.758,vbt_B1_day2,2022.2.4,MacIntel,60.0024001,,,,,,,0.182535604,-0.083198174,1,0,0,1.0997,0,5,5,25,1,z,images/br_z.png,images/cb_z.png,,,,,,,,,,,,,,,,,,,,,,,,,,,,,,,,,,,,,,,,,,,,,,,
,,,,,,00020,2023-08-19_12h05.45.758,vbt_B1_day2,2022.2.4,MacIntel,60.0024001,,,,,,,0.182535604,-0.083198174,1,0,0,5.3988,0,6,6,24,1,y,images/br_y.png,images/cb_y.png,,,,,,,,,,,,,,,,,,,,,,,,,,,,,,,,,,,,,,,,,,,,,,,
,,,,,,00020,2023-08-19_12h05.45.758,vbt_B1_day2,2022.2.4,MacIntel,60.0024001,,,,,,,0.182535604,-0.083198174,1,0,0,1.0169,0,7,7,19,1,t,images/br_t.png,images/cb_t.png,,,,,,,,,,,,,,,,,,,,,,,,,,,,,,,,,,,,,,,,,,,,,,,
,,,,,,00020,2023-08-19_12h05.45.758,vbt_B1_day2,2022.2.4,MacIntel,60.0024001,,,,,,,0.182535604,-0.083198174,1,0,0,6.499,0,8,8,12,1,m,images/br_m.png,images/cb_m.png,,,,,,,,,,,,,,,,,,,,,,,,,,,,,,,,,,,,,,,,,,,,,,,
,,,,,,00020,2023-08-19_12h05.45.758,vbt_B1_day2,2022.2.4,MacIntel,60.0024001,,,,,,,0.182535604,-0.083198174,1,0,0,2.1331,0,9,9,21,1,v,images/br_v.png,images/cb_v.png,,,,,,,,,,,,,,,,,,,,,,,,,,,,,,,,,,,,,,,,,,,,,,,
,,,,,,00020,2023-08-19_12h05.45.758,vbt_B1_day2,2022.2.4,MacIntel,60.0024001,,,,,,,0.182535604,-0.083198174,1,0,0,2.3662,0,10,10,9,1,j,images/br_j.png,images/cb_j.png,,,,,,,,,,,,,,,,,,,,,,,,,,,,,,,,,,,,,,,,,,,,,,,
,,,,,,00020,2023-08-19_12h05.45.758,vbt_B1_day2,2022.2.4,MacIntel,60.0024001,,,,,,,0.182535604,-0.083198174,1,0,0,8.1331,0,11,11,20,1,u,images/br_u.png,images/cb_u.png,,,,,,,,,,,,,,,,,,,,,,,,,,,,,,,,,,,,,,,,,,,,,,,
,,,,,,00020,2023-08-19_12h05.45.758,vbt_B1_day2,2022.2.4,MacIntel,60.0024001,,,,,,,0.182535604,-0.083198174,1,0,0,0.4164,0,12,12,4,1,e,images/br_e.png,images/cb_e.png,,,,,,,,,,,,,,,,,,,,,,,,,,,,,,,,,,,,,,,,,,,,,,,
,,,,,,00020,2023-08-19_12h05.45.758,vbt_B1_day2,2022.2.4,MacIntel,60.0024001,,,,,,,0.182279595,-0.082942166,1,0,0,0.2329,0,13,13,8,1,i,images/br_i.png,images/cb_i.png,,,,,,,,,,,,,,,,,,,,,,,,,,,,,,,,,,,,,,,,,,,,,,,
,,,,,,00020,2023-08-19_12h05.45.758,vbt_B1_day2,2022.2.4,MacIntel,60.0024001,,,,,,,0.182279595,-0.082942166,1,0,0,0.2666,0,14,14,16,1,q,images/br_q.png,images/cb_q.png,,,,,,,,,,,,,,,,,,,,,,,,,,,,,,,,,,,,,,,,,,,,,,,
,,,,,,00020,2023-08-19_12h05.45.758,vbt_B1_day2,2022.2.4,MacIntel,60.0024001,,,,,,,0.182279595,-0.082942166,1,0,0,4.716,0,15,15,5,1,f,images/br_f.png,images/cb_f.png,,,,,,,,,,,,,,,,,,,,,,,,,,,,,,,,,,,,,,,,,,,,,,,
,,,,,,00020,2023-08-19_12h05.45.758,vbt_B1_day2,2022.2.4,MacIntel,60.0024001,,,,,,,0.182279595,-0.082942166,1,0,0,0.5831,0,16,16,10,1,k,images/br_k.png,images/cb_k.png,,,,,,,,,,,,,,,,,,,,,,,,,,,,,,,,,,,,,,,,,,,,,,,
,,,,,,00020,2023-08-19_12h05.45.758,vbt_B1_day2,2022.2.4,MacIntel,60.0024001,,,,,,,0.182279595,-0.082942166,1,0,0,0.8321,0,17,17,23,1,x,images/br_x.png,images/cb_x.png,,,,,,,,,,,,,,,,,,,,,,,,,,,,,,,,,,,,,,,,,,,,,,,
,,,,,,00020,2023-08-19_12h05.45.758,vbt_B1_day2,2022.2.4,MacIntel,60.0024001,,,,,,,0.182279595,-0.082942166,1,0,0,0.1353,0,18,18,0,1,a,images/br_a.png,images/cb_a.png,,,,,,,,,,,,,,,,,,,,,,,,,,,,,,,,,,,,,,,,,,,,,,,
,,,,,,00020,2023-08-19_12h05.45.758,vbt_B1_day2,2022.2.4,MacIntel,60.0024001,,,,,,,0.182279595,-0.082942166,1,0,0,0.9323,0,19,19,11,1,l,images/br_l.png,images/cb_l.png,,,,,,,,,,,,,,,,,,,,,,,,,,,,,,,,,,,,,,,,,,,,,,,
,,,,,,00020,2023-08-19_12h05.45.758,vbt_B1_day2,2022.2.4,MacIntel,60.0024001,,,,,,,0.182279595,-0.082942166,1,0,0,0.1659,0,20,20,6,1,g,images/br_g.png,images/cb_g.png,,,,,,,,,,,,,,,,,,,,,,,,,,,,,,,,,,,,,,,,,,,,,,,
,,,,,,00020,2023-08-19_12h05.45.758,vbt_B1_day2,2022.2.4,MacIntel,60.0024001,,,,,,,0.182279595,-0.082942166,1,0,0,4.1863,0,21,21,3,1,d,images/br_d.png,images/cb_d.png,,,,,,,,,,,,,,,,,,,,,,,,,,,,,,,,,,,,,,,,,,,,,,,
,,,,,,00020,2023-08-19_12h05.45.758,vbt_B1_day2,2022.2.4,MacIntel,60.0024001,,,,,,,0.182279595,-0.082942166,1,0,0,0.5814,0,22,22,1,1,b,images/br_b.png,images/cb_b.png,,,,,,,,,,,,,,,,,,,,,,,,,,,,,,,,,,,,,,,,,,,,,,,
,,,,,,00020,2023-08-19_12h05.45.758,vbt_B1_day2,2022.2.4,MacIntel,60.0024001,,,,,,,0.182279595,-0.082942166,1,0,0,0.9995,0,23,23,14,1,o,images/br_o.png,images/cb_o.png,,,,,,,,,,,,,,,,,,,,,,,,,,,,,,,,,,,,,,,,,,,,,,,
,,,,,,00020,2023-08-19_12h05.45.758,vbt_B1_day2,2022.2.4,MacIntel,60.0024001,,,,,,,0.182279595,-0.082942166,1,0,0,1.6685,0,24,24,15,1,p,images/br_p.png,images/cb_p.png,,,,,,,,,,,,,,,,,,,,,,,,,,,,,,,,,,,,,,,,,,,,,,,
,,,,,,00020,2023-08-19_12h05.45.758,vbt_B1_day2,2022.2.4,MacIntel,60.0024001,,,,,,,0.182279595,-0.082942166,1,0,0,2.3859,0,25,25,7,1,h,images/br_h.png,images/cb_h.png,,,,,,,,,,,,,,,,,,,,,,,,,,,,,,,,,,,,,,,,,,,,,,,
,,,,,,00020,2023-08-19_12h05.45.758,vbt_B1_day2,2022.2.4,MacIntel,60.0024001,,,,,,,,,,,,,,,,,,,,,0.184632975,0.007754381,1,0,0,34.2366,,,,,,,,,,,,,,,,,,,,,,,,,,,,,,,,,,,,,,,,,
,,,,,,00020,2023-08-19_12h05.45.758,vbt_B1_day2,2022.2.4,MacIntel,60.0024001,,,,,,,,,,,,,,,,,,,,,,,,,,,down,0,21.3331,,-0.264391988,-0.081024306,1,0,0,4.2627,0,0,0,181,1,toegeven,images/br_toegeven.png,images/cb_toegeven.png,0,,,,,,,,,,,,,,,,,,,,,,
,,,,,,00020,2023-08-19_12h05.45.758,vbt_B1_day2,2022.2.4,MacIntel,60.0024001,,,,,,,,,,,,,,,,,,,,,,,,,,,down,0,11.5334,,-0.264391988,-0.081024306,1,0,0,3.4133,0,1,1,145,1,invloed,images/br_invloed.png,images/cb_invloed.png,0,,,,,,,,,,,,,,,,,,,,,,
,,,,,,00020,2023-08-19_12h05.45.758,vbt_B1_day2,2022.2.4,MacIntel,60.0024001,,,,,,,,,,,,,,,,,,,,,,,,,,,down,0,6.7672,,-0.264391988,-0.081024306,1,0,0,3.631,0,2,2,158,1,innemen,images/br_innemen.png,images/cb_innemen.png,0,,,,,,,,,,,,,,,,,,,,,,
,,,,,,00020,2023-08-19_12h05.45.758,vbt_B1_day2,2022.2.4,MacIntel,60.0024001,,,,,,,,,,,,,,,,,,,,,,,,,,,down,0,8.3669,,-0.264391988,-0.080508355,1,0,0,2.1497,0,3,3,137,1,trekker,images/br_trekker.png,images/cb_trekker.png,1,trekker,,,,,,,,,,,,,,,,,,,,,
,,,,,,00020,2023-08-19_12h05.45.758,vbt_B1_day2,2022.2.4,MacIntel,60.0024001,,,,,,,,,,,,,,,,,,,,,,,,,,,down,0,2.7665,,-0.264391988,-0.080508355,1,0,0,0.8863,0,4,4,78,1,leren,images/br_leren.png,images/cb_leren.png,0,,,,,,,,,,,,,,,,,,,,,,
,,,,,,00020,2023-08-19_12h05.45.758,vbt_B1_day2,2022.2.4,MacIntel,60.0024001,,,,,,,,,,,,,,,,,,,,,,,,,,,down,0,8.9998,,-0.072202555,-0.019118212,1,0,0,2.9002,0,5,5,99,1,koffie,images/br_koffie.png,images/cb_koffie.png,1,koffie,,,,,,,,,,,,,,,,,,,,,
,,,,,,00020,2023-08-19_12h05.45.758,vbt_B1_day2,2022.2.4,MacIntel,60.0024001,,,,,,,,,,,,,,,,,,,,,,,,,,,down,0,8.567,,-0.072202555,-0.019118212,1,0,0,6.6511,0,6,6,70,1,ijdel,images/br_ijdel.png,images/cb_ijdel.png,0,,,,,,,,,,,,,,,,,,,,,,
,,,,,,00020,2023-08-19_12h05.45.758,vbt_B1_day2,2022.2.4,MacIntel,60.0024001,,,,,,,,,,,,,,,,,,,,,,,,,,,down,0,7.9668,,-0.054100613,-0.102909682,1,0,0,0.8676,0,7,7,80,1,kanjer,images/br_kanjer.png,images/cb_kanjer.png,0,,,,,,,,,,,,,,,,,,,,,,
,,,,,,00020,2023-08-19_12h05.45.758,vbt_B1_day2,2022.2.4,MacIntel,60.0024001,,,,,,,,,,,,,,,,,,,,,,,,,,,down,0,5.1334,,-0.054100613,-0.102909682,1,0,0,2.1131,0,8,8,135,1,gedicht,images/br_gedicht.png,images/cb_gedicht.png,0,,,,,,,,,,,,,,,,,,,,,,
,,,,,,00020,2023-08-19_12h05.45.758,vbt_B1_day2,2022.2.4,MacIntel,60.0024001,,,,,,,,,,,,,,,,,,,,,,,,,,,down,0,9.1994,,-0.054100613,-0.101596341,1,0,0,1.4846,0,9,9,162,1,uitdelen,images/br_uitdelen.png,images/cb_uitdelen.png,0,,,,,,,,,,,,,,,,,,,,,,
,,,,,,00020,2023-08-19_12h05.45.758,vbt_B1_day2,2022.2.4,MacIntel,60.0024001,,,,,,,,,,,,,,,,,,,,,,,,,,,down,0,4.8837,,-0.054100613,-0.101596341,1,0,0,3.8484,0,10,10,113,1,koppen,images/br_koppen.png,images/cb_koppen.png,0,,,,,,,,,,,,,,,,,,,,,,
,,,,,,00020,2023-08-19_12h05.45.758,vbt_B1_day2,2022.2.4,MacIntel,60.0024001,,,,,,,,,,,,,,,,,,,,,,,,,,,down,0,2.7827,,-0.054100613,-0.101596341,1,0,0,0.7314,0,11,11,27,1,dans,images/br_dans.png,images/cb_dans.png,0,,,,,,,,,,,,,,,,,,,,,,
,,,,,,00020,2023-08-19_12h05.45.758,vbt_B1_day2,2022.2.4,MacIntel,60.0024001,,,,,,,,,,,,,,,,,,,,,,,,,,,down,0,10.601,,-0.054100613,-0.101596341,1,0,0,2.9475,0,12,12,193,1,weeshuis,images/br_weeshuis.png,images/cb_weeshuis.png,0,,,,,,,,,,,,,,,,,,,,,,
,,,,,,00020,2023-08-19_12h05.45.758,vbt_B1_day2,2022.2.4,MacIntel,60.0024001,,,,,,,,,,,,,,,,,,,,,,,,,,,down,0,4.0336,,-0.054100613,-0.101596341,1,0,0,0.5989,0,13,13,87,1,toeval,images/br_toeval.png,images/cb_toeval.png,0,,,,,,,,,,,,,,,,,,,,,,
,,,,,,00020,2023-08-19_12h05.45.758,vbt_B1_day2,2022.2.4,MacIntel,60.0024001,,,,,,,,,,,,,,,,,,,,,,,,,,,down,0,3.6834,,-0.054100613,-0.101596341,1,0,0,0.6328,0,14,14,107,1,maling,images/br_maling.png,images/cb_maling.png,0,,,,,,,,,,,,,,,,,,,,,,
,,,,,,00020,2023-08-19_12h05.45.758,vbt_B1_day2,2022.2.4,MacIntel,60.0024001,,,,,,,,,,,,,,,,,,,,,,,,,,,down,0,13.2828,,-0.054100613,-0.101596341,1,0,0,4.65,0,15,15,198,1,bedoelen,images/br_bedoelen.png,images/cb_bedoelen.png,0,,,,,,,,,,,,,,,,,,,,,,
,,,,,,00020,2023-08-19_12h05.45.758,vbt_B1_day2,2022.2.4,MacIntel,60.0024001,,,,,,,,,,,,,,,,,,,,,,,,,,,down,0,10.4205,,-0.054100613,-0.101596341,1,0,0,9.598,0,16,16,159,1,sufferd,images/br_sufferd.png,images/cb_sufferd.png,0,,,,,,,,,,,,,,,,,,,,,,
,,,,,,00020,2023-08-19_12h05.45.758,vbt_B1_day2,2022.2.4,MacIntel,60.0024001,,,,,,,,,,,,,,,,,,,,,,,,,,,down,0,1.7007,,-0.054100613,-0.101596341,1,0,0,0.8981,0,17,17,22,1,stof,images/br_stof.png,images/cb_stof.png,0,,,,,,,,,,,,,,,,,,,,,,
,,,,,,00020,2023-08-19_12h05.45.758,vbt_B1_day2,2022.2.4,MacIntel,60.0024001,,,,,,,,,,,,,,,,,,,,,,,,,,,down,0,3.1337,,-0.054100613,-0.101596341,1,0,0,0.5169,0,18,18,41,1,maken,images/br_maken.png,images/cb_maken.png,0,,,,,,,,,,,,,,,,,,,,,,
,,,,,,00020,2023-08-19_12h05.45.758,vbt_B1_day2,2022.2.4,MacIntel,60.0024001,,,,,,,,,,,,,,,,,,,,,,,,,,,down,0,3.0335,,-0.054100613,-0.101596341,1,0,0,0.6317,0,19,19,16,1,ziek,images/br_ziek.png,images/cb_ziek.png,1,ziek,,,,,,,,,,,,,,,,,,,,,
,,,,,,00020,2023-08-19_12h05.45.758,vbt_B1_day2,2022.2.4,MacIntel,60.0024001,,,,,,,,,,,,,,,,,,,,,,,,,,,down,0,4.6333,,-0.054100613,-0.101596341,1,0,0,0.4671,0,20,20,79,1,nodig,images/br_nodig.png,images/cb_nodig.png,0,,,,,,,,,,,,,,,,,,,,,,
,,,,,,00020,2023-08-19_12h05.45.758,vbt_B1_day2,2022.2.4,MacIntel,60.0024001,,,,,,,,,,,,,,,,,,,,,,,,,,,down,0,3.0166,,-0.054100613,-0.101596341,1,0,0,0.7335,0,21,21,45,1,piste,images/br_piste.png,images/cb_piste.png,0,,,,,,,,,,,,,,,,,,,,,,
,,,,,,00020,2023-08-19_12h05.45.758,vbt_B1_day2,2022.2.4,MacIntel,60.0024001,,,,,,,,,,,,,,,,,,,,,,,,,,,down,0,13.2498,,-0.053844604,-0.101596341,1,0,0,2.9144,0,22,22,165,1,feestdag,images/br_feestdag.png,images/cb_feestdag.png,0,,,,,,,,,,,,,,,,,,,,,,
,,,,,,00020,2023-08-19_12h05.45.758,vbt_B1_day2,2022.2.4,MacIntel,60.0024001,,,,,,,,,,,,,,,,,,,,,,,,,,,down,0,6.3339,,-0.053844604,-0.101596341,1,0,0,0.5335,0,23,23,143,1,hechten,images/br_hechten.png,images/cb_hechten.png,0,,,,,,,,,,,,,,,,,,,,,,
,,,,,,00020,2023-08-19_12h05.45.758,vbt_B1_day2,2022.2.4,MacIntel,60.0024001,,,,,,,,,,,,,,,,,,,,,,,,,,,down,0,3.9342,,-0.053844604,-0.101596341,1,0,0,0.6196,0,24,24,166,1,strikken,images/br_strikken.png,images/cb_strikken.png,0,,,,,,,,,,,,,,,,,,,,,,
,,,,,,00020,2023-08-19_12h05.45.758,vbt_B1_day2,2022.2.4,MacIntel,60.0024001,,,,,,,,,,,,,,,,,,,,,,,,,,,down,0,3.5374,,-0.053844604,-0.101596341,1,0,0,0.981,0,25,25,3,1,mand,images/br_mand.png,images/cb_mand.png,0,,,,,,,,,,,,,,,,,,,,,,
,,,,,,00020,2023-08-19_12h05.45.758,vbt_B1_day2,2022.2.4,MacIntel,60.0024001,,,,,,,,,,,,,,,,,,,,,,,,,,,down,0,2.5841,,-0.053844604,-0.101596341,1,0,0,0.6484,0,26,26,52,1,wagon,images/br_wagon.png,images/cb_wagon.png,0,,,,,,,,,,,,,,,,,,,,,,
,,,,,,00020,2023-08-19_12h05.45.758,vbt_B1_day2,2022.2.4,MacIntel,60.0024001,,,,,,,,,,,,,,,,,,,,,,,,,,,down,0,2.7839,,-0.053844604,-0.101596341,1,0,0,0.6196,0,27,27,54,1,gebit,images/br_gebit.png,images/cb_gebit.png,0,,,,,,,,,,,,,,,,,,,,,,
,,,,,,00020,2023-08-19_12h05.45.758,vbt_B1_day2,2022.2.4,MacIntel,60.0024001,,,,,,,,,,,,,,,,,,,,,,,,,,,down,0,6.4347,,-0.053844604,-0.101596341,1,0,0,0.6316,0,28,28,173,1,apparaat,images/br_apparaat.png,images/cb_apparaat.png,0,,,,,,,,,,,,,,,,,,,,,,
,,,,,,00020,2023-08-19_12h05.45.758,vbt_B1_day2,2022.2.4,MacIntel,60.0024001,,,,,,,,,,,,,,,,,,,,,,,,,,,down,0,8.2667,,-0.053844604,-0.101596341,1,0,0,0.5517,0,29,29,142,1,snuiven,images/br_snuiven.png,images/cb_snuiven.png,0,,,,,,,,,,,,,,,,,,,,,,
,,,,,,00020,2023-08-19_12h05.45.758,vbt_B1_day2,2022.2.4,MacIntel,60.0024001,,,,,,,,,,,,,,,,,,,,,,,,,,,down,0,6.601,,-0.053844604,-0.101596341,1,0,0,0.9837,0,30,30,147,1,komisch,images/br_komisch.png,images/cb_komisch.png,0,,,,,,,,,,,,,,,,,,,,,,
,,,,,,00020,2023-08-19_12h05.45.758,vbt_B1_day2,2022.2.4,MacIntel,60.0024001,,,,,,,,,,,,,,,,,,,,,,,,,,,down,0,5.7167,,-0.053844604,-0.101596341,1,0,0,0.5508,0,31,31,144,1,eetlust,images/br_eetlust.png,images/cb_eetlust.png,0,,,,,,,,,,,,,,,,,,,,,,
,,,,,,00020,2023-08-19_12h05.45.758,vbt_B1_day2,2022.2.4,MacIntel,60.0024001,,,,,,,,,,,,,,,,,,,,,,,,,,,down,0,1.9509,,-0.053844604,-0.101596341,1,0,0,0.6155,0,32,32,53,1,baron,images/br_baron.png,images/cb_baron.png,0,,,,,,,,,,,,,,,,,,,,,,
,,,,,,00020,2023-08-19_12h05.45.758,vbt_B1_day2,2022.2.4,MacIntel,60.0024001,,,,,,,,,,,,,,,,,,,,,,,,,,,down,0,3.5836,,-0.053844604,-0.101596341,1,0,0,0.6498,0,33,33,164,1,anarchie,images/br_anarchie.png,images/cb_anarchie.png,0,,,,,,,,,,,,,,,,,,,,,,
,,,,,,00020,2023-08-19_12h05.45.758,vbt_B1_day2,2022.2.4,MacIntel,60.0024001,,,,,,,,,,,,,,,,,,,,,,,,,,,down,0,6.7358,,-0.053844604,-0.101596341,1,0,0,5.9032,0,34,34,127,1,doodmoe,images/br_doodmoe.png,images/cb_doodmoe.png,0,,,,,,,,,,,,,,,,,,,,,,
,,,,,,00020,2023-08-19_12h05.45.758,vbt_B1_day2,2022.2.4,MacIntel,60.0024001,,,,,,,,,,,,,,,,,,,,,,,,,,,down,0,5.0996,,-0.053844604,-0.101596341,1,0,0,1.3185,0,35,35,76,1,afval,images/br_afval.png,images/cb_afval.png,0,,,,,,,,,,,,,,,,,,,,,,
,,,,,,00020,2023-08-19_12h05.45.758,vbt_B1_day2,2022.2.4,MacIntel,60.0024001,,,,,,,,,,,,,,,,,,,,,,,,,,,down,0,1.1837,,-0.053844604,-0.101596341,1,0,0,1.9361,0,36,36,2,1,jaar,images/br_jaar.png,images/cb_jaar.png,0,,,,,,,,,,,,,,,,,,,,,,
,,,,,,00020,2023-08-19_12h05.45.758,vbt_B1_day2,2022.2.4,MacIntel,60.0024001,,,,,,,,,,,,,,,,,,,,,,,,,,,down,0,1.6013,,-0.053844604,-0.101596341,1,0,0,0.5856,0,37,37,67,1,zwart,images/br_zwart.png,images/cb_zwart.png,0,,,,,,,,,,,,,,,,,,,,,,
,,,,,,00020,2023-08-19_12h05.45.758,vbt_B1_day2,2022.2.4,MacIntel,60.0024001,,,,,,,,,,,,,,,,,,,,,,,,,,,down,0,1.7379,,-0.053844604,-0.101596341,1,0,0,1.6989,0,38,38,38,1,baai,images/br_baai.png,images/cb_baai.png,0,,,,,,,,,,,,,,,,,,,,,,
,,,,,,00020,2023-08-19_12h05.45.758,vbt_B1_day2,2022.2.4,MacIntel,60.0024001,,,,,,,,,,,,,,,,,,,,,,,,,,,down,0,2.4178,,-0.053844604,-0.101596341,1,0,0,1.5502,0,39,39,15,1,soda,images/br_soda.png,images/cb_soda.png,0,,,,,,,,,,,,,,,,,,,,,,
,,,,,,00020,2023-08-19_12h05.45.758,vbt_B1_day2,2022.2.4,MacIntel,60.0024001,,,,,,,,,,,,,,,,,,,,,,,,,,,down,0,3.0837,,-0.053844604,-0.101596341,1,0,0,0.6154,0,40,40,86,1,woning,images/br_woning.png,images/cb_woning.png,0,,,,,,,,,,,,,,,,,,,,,,
,,,,,,00020,2023-08-19_12h05.45.758,vbt_B1_day2,2022.2.4,MacIntel,60.0024001,,,,,,,,,,,,,,,,,,,,,,,,,,,down,0,2.251,,-0.053844604,-0.101596341,1,0,0,0.501,0,41,41,12,1,kust,images/br_kust.png,images/cb_kust.png,0,,,,,,,,,,,,,,,,,,,,,,
,,,,,,00020,2023-08-19_12h05.45.758,vbt_B1_day2,2022.2.4,MacIntel,60.0024001,,,,,,,,,,,,,,,,,,,,,,,,,,,down,0,2.4508,,-0.053844604,-0.101596341,1,0,0,0.6979,0,42,42,120,1,klimmen,images/br_klimmen.png,images/cb_klimmen.png,0,,,,,,,,,,,,,,,,,,,,,,
,,,,,,00020,2023-08-19_12h05.45.758,vbt_B1_day2,2022.2.4,MacIntel,60.0024001,,,,,,,,,,,,,,,,,,,,,,,,,,,down,0,1.454,,-0.053844604,-0.101596341,1,0,0,0.8153,0,43,43,161,1,attentie,images/br_attentie.png,images/cb_attentie.png,0,,,,,,,,,,,,,,,,,,,,,,
,,,,,,00020,2023-08-19_12h05.45.758,vbt_B1_day2,2022.2.4,MacIntel,60.0024001,,,,,,,,,,,,,,,,,,,,,,,,,,,down,0,3.767,,-0.053844604,-0.101596341,1,0,0,0.702,0,44,44,160,1,daarheen,images/br_daarheen.png,images/cb_daarheen.png,0,,,,,,,,,,,,,,,,,,,,,,
,,,,,,00020,2023-08-19_12h05.45.758,vbt_B1_day2,2022.2.4,MacIntel,60.0024001,,,,,,,,,,,,,,,,,,,,,,,,,,,down,0,1.6332,,-0.053844604,-0.101596341,1,0,0,0.4991,0,45,45,26,1,leuk,images/br_leuk.png,images/cb_leuk.png,0,,,,,,,,,,,,,,,,,,,,,,
,,,,,,00020,2023-08-19_12h05.45.758,vbt_B1_day2,2022.2.4,MacIntel,60.0024001,,,,,,,,,,,,,,,,,,,,,,,,,,,down,0,4.618,,-0.053844604,-0.101596341,1,0,0,0.6634,0,46,46,92,1,geheim,images/br_geheim.png,images/cb_geheim.png,0,,,,,,,,,,,,,,,,,,,,,,
,,,,,,00020,2023-08-19_12h05.45.758,vbt_B1_day2,2022.2.4,MacIntel,60.0024001,,,,,,,,,,,,,,,,,,,,,,,,,,,down,0,4.7499,,0.013164944,-0.040356649,1,0,0,1.6825,0,47,47,176,1,techniek,images/br_techniek.png,images/cb_techniek.png,1,techniek,,,,,,,,,,,,,,,,,,,,,
,,,,,,00020,2023-08-19_12h05.45.758,vbt_B1_day2,2022.2.4,MacIntel,60.0024001,,,,,,,,,,,,,,,,,,,,,,,,,,,down,0,11.2841,,0.130199246,-0.124039374,1,0,0,0.5484,0,48,48,175,1,heengaan,images/br_heengaan.png,images/cb_heengaan.png,0,,,,,,,,,,,,,,,,,,,,,,
,,,,,,00020,2023-08-19_12h05.45.758,vbt_B1_day2,2022.2.4,MacIntel,60.0024001,,,,,,,,,,,,,,,,,,,,,,,,,,,down,0,1.9182,,0.130199246,-0.124039374,1,0,0,0.4652,0,49,49,32,1,palm,images/br_palm.png,images/cb_palm.png,0,,,,,,,,,,,,,,,,,,,,,,
,,,,,,00020,2023-08-19_12h05.45.758,vbt_B1_day2,2022.2.4,MacIntel,60.0024001,,,,,,,,,,,,,,,,,,,,,,,,,,,down,0,3.1335,,0.130199246,-0.124039374,1,0,0,0.4986,0,50,50,104,1,zweven,images/br_zweven.png,images/cb_zweven.png,0,,,,,,,,,,,,,,,,,,,,,,
,,,,,,00020,2023-08-19_12h05.45.758,vbt_B1_day2,2022.2.4,MacIntel,60.0024001,,,,,,,,,,,,,,,,,,,,,,,,,,,down,0,6.9841,,0.130199246,-0.124039374,1,0,0,1.884,0,51,51,11,1,mode,images/br_mode.png,images/cb_mode.png,0,,,,,,,,,,,,,,,,,,,,,,
,,,,,,00020,2023-08-19_12h05.45.758,vbt_B1_day2,2022.2.4,MacIntel,60.0024001,,,,,,,,,,,,,,,,,,,,,,,,,,,down,0,3.5703,,0.130199246,-0.124039374,1,0,0,0.4325,0,52,52,40,1,schep,images/br_schep.png,images/cb_schep.png,0,,,,,,,,,,,,,,,,,,,,,,
,,,,,,00020,2023-08-19_12h05.45.758,vbt_B1_day2,2022.2.4,MacIntel,60.0024001,,,,,,,,,,,,,,,,,,,,,,,,,,,down,0,5.5175,,0.129943237,-0.124039374,1,0,0,1.2165,0,53,53,189,1,aanraden,images/br_aanraden.png,images/cb_aanraden.png,0,,,,,,,,,,,,,,,,,,,,,,
,,,,,,00020,2023-08-19_12h05.45.758,vbt_B1_day2,2022.2.4,MacIntel,60.0024001,,,,,,,,,,,,,,,,,,,,,,,,,,,down,0,6.8175,,0.129943237,-0.124039374,1,0,0,0.9976,0,54,54,134,1,geliefd,images/br_geliefd.png,images/cb_geliefd.png,0,,,,,,,,,,,,,,,,,,,,,,
,,,,,,00020,2023-08-19_12h05.45.758,vbt_B1_day2,2022.2.4,MacIntel,60.0024001,,,,,,,,,,,,,,,,,,,,,,,,,,,down,0,3.8171,,0.129943237,-0.124039374,1,0,0,0.6159,0,55,55,18,1,blik,images/br_blik.png,images/cb_blik.png,1,blik,,,,,,,,,,,,,,,,,,,,,
,,,,,,00020,2023-08-19_12h05.45.758,vbt_B1_day2,2022.2.4,MacIntel,60.0024001,,,,,,,,,,,,,,,,,,,,,,,,,,,down,0,2.6005,,0.129943237,-0.124039374,1,0,0,0.633,0,56,56,116,1,besmet,images/br_besmet.png,images/cb_besmet.png,0,,,,,,,,,,,,,,,,,,,,,,
,,,,,,00020,2023-08-19_12h05.45.758,vbt_B1_day2,2022.2.4,MacIntel,60.0024001,,,,,,,,,,,,,,,,,,,,,,,,,,,down,0,2.4165,,0.129943237,-0.124039374,1,0,0,0.7184,0,57,57,83,1,mening,images/br_mening.png,images/cb_mening.png,0,,,,,,,,,,,,,,,,,,,,,,
,,,,,,00020,2023-08-19_12h05.45.758,vbt_B1_day2,2022.2.4,MacIntel,60.0024001,,,,,,,,,,,,,,,,,,,,,,,,,,,down,0,2.4505,,0.129943237,-0.124039374,1,0,0,0.4337,0,58,58,89,1,slapen,images/br_slapen.png,images/cb_slapen.png,0,,,,,,,,,,,,,,,,,,,,,,
,,,,,,00020,2023-08-19_12h05.45.758,vbt_B1_day2,2022.2.4,MacIntel,60.0024001,,,,,,,,,,,,,,,,,,,,,,,,,,,down,0,4.2341,,0.129943237,-0.124039374,1,0,0,0.6833,0,59,59,170,1,schatten,images/br_schatten.png,images/cb_schatten.png,0,,,,,,,,,,,,,,,,,,,,,,
,,,,,,00020,2023-08-19_12h05.45.758,vbt_B1_day2,2022.2.4,MacIntel,60.0024001,,,,,,,,,,,,,,,,,,,,,,,,,,,down,0,1.467,,0.129943237,-0.124039374,1,0,0,0.9024,0,60,60,51,1,samen,images/br_samen.png,images/cb_samen.png,0,,,,,,,,,,,,,,,,,,,,,,
,,,,,,00020,2023-08-19_12h05.45.758,vbt_B1_day2,2022.2.4,MacIntel,60.0024001,,,,,,,,,,,,,,,,,,,,,,,,,,,down,0,1.3167,,0.129943237,-0.124039374,1,0,0,0.4993,0,61,61,72,1,strak,images/br_strak.png,images/cb_strak.png,0,,,,,,,,,,,,,,,,,,,,,,
,,,,,,00020,2023-08-19_12h05.45.758,vbt_B1_day2,2022.2.4,MacIntel,60.0024001,,,,,,,,,,,,,,,,,,,,,,,,,,,down,0,10.9339,,0.129943237,-0.124039374,1,0,0,0.6186,0,62,62,121,1,twijfel,images/br_twijfel.png,images/cb_twijfel.png,0,,,,,,,,,,,,,,,,,,,,,,
,,,,,,00020,2023-08-19_12h05.45.758,vbt_B1_day2,2022.2.4,MacIntel,60.0024001,,,,,,,,,,,,,,,,,,,,,,,,,,,down,0,4.4012,,0.129943237,-0.124039374,1,0,0,0.5153,0,63,63,183,1,getuigen,images/br_getuigen.png,images/cb_getuigen.png,0,,,,,,,,,,,,,,,,,,,,,,
,,,,,,00020,2023-08-19_12h05.45.758,vbt_B1_day2,2022.2.4,MacIntel,60.0024001,,,,,,,,,,,,,,,,,,,,,,,,,,,down,0,0.7169,,0.129943237,-0.124039374,1,0,0,0.5339,0,64,64,5,1,blad,images/br_blad.png,images/cb_blad.png,0,,,,,,,,,,,,,,,,,,,,,,
,,,,,,00020,2023-08-19_12h05.45.758,vbt_B1_day2,2022.2.4,MacIntel,60.0024001,,,,,,,,,,,,,,,,,,,,,,,,,,,down,0,1.0836,,0.129943237,-0.124039374,1,0,0,0.567,0,65,65,17,1,taal,images/br_taal.png,images/cb_taal.png,1,taal,,,,,,,,,,,,,,,,,,,,,
,,,,,,00020,2023-08-19_12h05.45.758,vbt_B1_day2,2022.2.4,MacIntel,60.0024001,,,,,,,,,,,,,,,,,,,,,,,,,,,down,0,4.1671,,0.129943237,-0.124039374,1,0,0,2.5009,0,66,66,197,1,spanning,images/br_spanning.png,images/cb_spanning.png,0,,,,,,,,,,,,,,,,,,,,,,
,,,,,,00020,2023-08-19_12h05.45.758,vbt_B1_day2,2022.2.4,MacIntel,60.0024001,,,,,,,,,,,,,,,,,,,,,,,,,,,down,0,0.8206,,0.129943237,-0.124039374,1,0,0,4.0825,0,67,67,119,1,liefje,images/br_liefje.png,images/cb_liefje.png,0,,,,,,,,,,,,,,,,,,,,,,
,,,,,,00020,2023-08-19_12h05.45.758,vbt_B1_day2,2022.2.4,MacIntel,60.0024001,,,,,,,,,,,,,,,,,,,,,,,,,,,down,0,4.4669,,0.129943237,-0.124039374,1,0,0,0.6841,0,68,68,133,1,seizoen,images/br_seizoen.png,images/cb_seizoen.png,0,,,,,,,,,,,,,,,,,,,,,,
,,,,,,00020,2023-08-19_12h05.45.758,vbt_B1_day2,2022.2.4,MacIntel,60.0024001,,,,,,,,,,,,,,,,,,,,,,,,,,,down,0,1.651,,0.129943237,-0.124039374,1,0,0,0.5168,0,69,69,65,1,parel,images/br_parel.png,images/cb_parel.png,0,,,,,,,,,,,,,,,,,,,,,,
,,,,,,00020,2023-08-19_12h05.45.758,vbt_B1_day2,2022.2.4,MacIntel,60.0024001,,,,,,,,,,,,,,,,,,,,,,,,,,,down,0,2.1897,,0.129943237,-0.124039374,1,0,0,0.6312,0,70,70,101,1,staren,images/br_staren.png,images/cb_staren.png,0,,,,,,,,,,,,,,,,,,,,,,
,,,,,,00020,2023-08-19_12h05.45.758,vbt_B1_day2,2022.2.4,MacIntel,60.0024001,,,,,,,,,,,,,,,,,,,,,,,,,,,down,0,6.201,,0.129943237,-0.124039374,1,0,0,2.0172,0,71,71,167,1,eenhoorn,images/br_eenhoorn.png,images/cb_eenhoorn.png,0,,,,,,,,,,,,,,,,,,,,,,
,,,,,,00020,2023-08-19_12h05.45.758,vbt_B1_day2,2022.2.4,MacIntel,60.0024001,,,,,,,,,,,,,,,,,,,,,,,,,,,down,0,4.5336,,0.129943237,-0.124039374,1,0,0,0.5165,0,72,72,24,1,jurk,images/br_jurk.png,images/cb_jurk.png,0,,,,,,,,,,,,,,,,,,,,,,
,,,,,,00020,2023-08-19_12h05.45.758,vbt_B1_day2,2022.2.4,MacIntel,60.0024001,,,,,,,,,,,,,,,,,,,,,,,,,,,down,0,9.1495,,0.129943237,-0.124039374,1,0,0,2.1485,0,73,73,124,1,bloeien,images/br_bloeien.png,images/cb_bloeien.png,0,,,,,,,,,,,,,,,,,,,,,,
,,,,,,00020,2023-08-19_12h05.45.758,vbt_B1_day2,2022.2.4,MacIntel,60.0024001,,,,,,,,,,,,,,,,,,,,,,,,,,,down,0,3.6342,,0.129943237,-0.124039374,1,0,0,0.4328,0,74,74,59,1,kring,images/br_kring.png,images/cb_kring.png,1,kring,,,,,,,,,,,,,,,,,,,,,
,,,,,,00020,2023-08-19_12h05.45.758,vbt_B1_day2,2022.2.4,MacIntel,60.0024001,,,,,,,,,,,,,,,,,,,,,,,,,,,down,0,2.1667,,0.129943237,-0.124039374,1,0,0,0.548,0,75,75,174,1,stemming,images/br_stemming.png,images/cb_stemming.png,0,,,,,,,,,,,,,,,,,,,,,,
,,,,,,00020,2023-08-19_12h05.45.758,vbt_B1_day2,2022.2.4,MacIntel,60.0024001,,,,,,,,,,,,,,,,,,,,,,,,,,,down,0,4.9335,,0.129943237,-0.124039374,1,0,0,1.6666,0,76,76,66,1,lever,images/br_lever.png,images/cb_lever.png,0,,,,,,,,,,,,,,,,,,,,,,
,,,,,,00020,2023-08-19_12h05.45.758,vbt_B1_day2,2022.2.4,MacIntel,60.0024001,,,,,,,,,,,,,,,,,,,,,,,,,,,down,0,2.3168,,0.129943237,-0.124039374,1,0,0,3.0153,0,77,77,6,1,diep,images/br_diep.png,images/cb_diep.png,0,,,,,,,,,,,,,,,,,,,,,,
,,,,,,00020,2023-08-19_12h05.45.758,vbt_B1_day2,2022.2.4,MacIntel,60.0024001,,,,,,,,,,,,,,,,,,,,,,,,,,,down,0,4.8981,,0.124669732,-0.047374878,1,0,0,0.9346,0,78,78,114,1,vullen,images/br_vullen.png,images/cb_vullen.png,0,,,,,,,,,,,,,,,,,,,,,,
,,,,,,00020,2023-08-19_12h05.45.758,vbt_B1_day2,2022.2.4,MacIntel,60.0024001,,,,,,,,,,,,,,,,,,,,,,,,,,,down,0,13.1507,,0.124669732,-0.047630887,1,0,0,0.9676,0,79,79,182,1,bijkomen,images/br_bijkomen.png,images/cb_bijkomen.png,0,,,,,,,,,,,,,,,,,,,,,,
,,,,,,00020,2023-08-19_12h05.45.758,vbt_B1_day2,2022.2.4,MacIntel,60.0024001,,,,,,,,,,,,,,,,,,,,,,,,,,,down,0,4.4685,,0.124669732,-0.047630887,1,0,0,0.6173,0,80,80,106,1,zingen,images/br_zingen.png,images/cb_zingen.png,0,,,,,,,,,,,,,,,,,,,,,,
,,,,,,00020,2023-08-19_12h05.45.758,vbt_B1_day2,2022.2.4,MacIntel,60.0024001,,,,,,,,,,,,,,,,,,,,,,,,,,,down,0,1.6504,,0.124669732,-0.047630887,1,0,0,0.6667,0,81,81,115,1,kleren,images/br_kleren.png,images/cb_kleren.png,0,,,,,,,,,,,,,,,,,,,,,,
,,,,,,00020,2023-08-19_12h05.45.758,vbt_B1_day2,2022.2.4,MacIntel,60.0024001,,,,,,,,,,,,,,,,,,,,,,,,,,,down,0,3.0837,,0.111409912,-0.104208374,1,0,0,1.1676,0,82,82,43,1,klauw,images/br_klauw.png,images/cb_klauw.png,0,,,,,,,,,,,,,,,,,,,,,,
,,,,,,00020,2023-08-19_12h05.45.758,vbt_B1_day2,2022.2.4,MacIntel,60.0024001,,,,,,,,,,,,,,,,,,,,,,,,,,,down,0,3.5089,,0.111409912,-0.104208374,1,0,0,2.2983,0,83,83,81,1,dubbel,images/br_dubbel.png,images/cb_dubbel.png,0,,,,,,,,,,,,,,,,,,,,,,
,,,,,,00020,2023-08-19_12h05.45.758,vbt_B1_day2,2022.2.4,MacIntel,60.0024001,,,,,,,,,,,,,,,,,,,,,,,,,,,down,0,2.6004,,0.111409912,-0.104208374,1,0,0,0.5995,0,84,84,57,1,steek,images/br_steek.png,images/cb_steek.png,1,steek,,,,,,,,,,,,,,,,,,,,,
,,,,,,00020,2023-08-19_12h05.45.758,vbt_B1_day2,2022.2.4,MacIntel,60.0024001,,,,,,,,,,,,,,,,,,,,,,,,,,,down,0,6.7003,,0.111409912,-0.104208374,1,0,0,1.201,0,85,85,95,1,vreten,images/br_vreten.png,images/cb_vreten.png,0,,,,,,,,,,,,,,,,,,,,,,
,,,,,,00020,2023-08-19_12h05.45.758,vbt_B1_day2,2022.2.4,MacIntel,60.0024001,,,,,,,,,,,,,,,,,,,,,,,,,,,down,0,4.2038,,0.111409912,-0.104208374,1,0,0,0.6659,0,86,86,149,1,redding,images/br_redding.png,images/cb_redding.png,0,,,,,,,,,,,,,,,,,,,,,,
,,,,,,00020,2023-08-19_12h05.45.758,vbt_B1_day2,2022.2.4,MacIntel,60.0024001,,,,,,,,,,,,,,,,,,,,,,,,,,,down,0,8.7672,,0.111409912,-0.104208374,1,0,0,1.7503,0,87,87,154,1,aflopen,images/br_aflopen.png,images/cb_aflopen.png,0,,,,,,,,,,,,,,,,,,,,,,
,,,,,,00020,2023-08-19_12h05.45.758,vbt_B1_day2,2022.2.4,MacIntel,60.0024001,,,,,,,,,,,,,,,,,,,,,,,,,,,down,0,3.5501,,0.111409912,-0.104208374,1,0,0,0.6497,0,88,88,172,1,weigeren,images/br_weigeren.png,images/cb_weigeren.png,0,,,,,,,,,,,,,,,,,,,,,,
,,,,,,00020,2023-08-19_12h05.45.758,vbt_B1_day2,2022.2.4,MacIntel,60.0024001,,,,,,,,,,,,,,,,,,,,,,,,,,,down,0,7.9165,,-0.007912462,-0.301002604,1,0,0,4.2689,0,89,89,97,1,loyaal,images/br_loyaal.png,images/cb_loyaal.png,1,lokaal,,,,,,,,,,,,,,,,,,,,,
,,,,,,00020,2023-08-19_12h05.45.758,vbt_B1_day2,2022.2.4,MacIntel,60.0024001,,,,,,,,,,,,,,,,,,,,,,,,,,,down,0,5.3507,,-0.007912462,-0.301002604,1,0,0,0.4986,0,90,90,171,1,aarzelen,images/br_aarzelen.png,images/cb_aarzelen.png,0,,,,,,,,,,,,,,,,,,,,,,
,,,,,,00020,2023-08-19_12h05.45.758,vbt_B1_day2,2022.2.4,MacIntel,60.0024001,,,,,,,,,,,,,,,,,,,,,,,,,,,down,0,3.3176,,-0.007912462,-0.301002604,1,0,0,0.682,0,91,91,146,1,opkomen,images/br_opkomen.png,images/cb_opkomen.png,0,,,,,,,,,,,,,,,,,,,,,,
,,,,,,00020,2023-08-19_12h05.45.758,vbt_B1_day2,2022.2.4,MacIntel,60.0024001,,,,,,,,,,,,,,,,,,,,,,,,,,,down,0,11.0335,,-0.007912462,-0.301002604,1,0,0,0.8657,0,92,92,136,1,waarbij,images/br_waarbij.png,images/cb_waarbij.png,1,waarbij,,,,,,,,,,,,,,,,,,,,,
,,,,,,00020,2023-08-19_12h05.45.758,vbt_B1_day2,2022.2.4,MacIntel,60.0024001,,,,,,,,,,,,,,,,,,,,,,,,,,,down,0,1.6502,,-0.007912462,-0.301002604,1,0,0,0.6323,0,93,93,39,1,laag,images/br_laag.png,images/cb_laag.png,0,,,,,,,,,,,,,,,,,,,,,,
,,,,,,00020,2023-08-19_12h05.45.758,vbt_B1_day2,2022.2.4,MacIntel,60.0024001,,,,,,,,,,,,,,,,,,,,,,,,,,,down,0,12.3177,,-0.007912462,-0.301002604,1,0,0,0.7977,0,94,94,185,1,mijnheer,images/br_mijnheer.png,images/cb_mijnheer.png,0,,,,,,,,,,,,,,,,,,,,,,
,,,,,,00020,2023-08-19_12h05.45.758,vbt_B1_day2,2022.2.4,MacIntel,60.0024001,,,,,,,,,,,,,,,,,,,,,,,,,,,down,0,1.7333,,-0.007912462,-0.301002604,1,0,0,0.535,0,95,95,132,1,grappen,images/br_grappen.png,images/cb_grappen.png,0,,,,,,,,,,,,,,,,,,,,,,
,,,,,,00020,2023-08-19_12h05.45.758,vbt_B1_day2,2022.2.4,MacIntel,60.0024001,,,,,,,,,,,,,,,,,,,,,,,,,,,down,0,1.0165,,0.013754747,-0.192179159,1,0,0,0.5989,0,96,96,10,1,leek,images/br_leek.png,images/cb_leek.png,0,,,,,,,,,,,,,,,,,,,,,,
,,,,,,00020,2023-08-19_12h05.45.758,vbt_B1_day2,2022.2.4,MacIntel,60.0024001,,,,,,,,,,,,,,,,,,,,,,,,,,,down,0,0.9009,,0.041176622,-0.135927192,1,0,0,1.3656,0,97,97,9,1,hier,images/br_hier.png,images/cb_hier.png,0,,,,,,,,,,,,,,,,,,,,,,
,,,,,,00020,2023-08-19_12h05.45.758,vbt_B1_day2,2022.2.4,MacIntel,60.0024001,,,,,,,,,,,,,,,,,,,,,,,,,,,down,0,1.5831,,0.041176622,-0.135927192,1,0,0,0.5154,0,98,98,84,1,lokken,images/br_lokken.png,images/cb_lokken.png,0,,,,,,,,,,,,,,,,,,,,,,
,,,,,,00020,2023-08-19_12h05.45.758,vbt_B1_day2,2022.2.4,MacIntel,60.0024001,,,,,,,,,,,,,,,,,,,,,,,,,,,down,0,2.9823,,0.041176622,-0.135927192,1,0,0,0.7835,0,99,99,110,1,zuster,images/br_zuster.png,images/cb_zuster.png,0,,,,,,,,,,,,,,,,,,,,,,
,,,,,,00020,2023-08-19_12h05.45.758,vbt_B1_day2,2022.2.4,MacIntel,60.0024001,,,,,,,,,,,,,,,,,,,,,,,,,,,down,0,1.0833,,0.041176622,-0.135927192,1,0,0,0.6318,0,100,100,141,1,knielen,images/br_knielen.png,images/cb_knielen.png,0,,,,,,,,,,,,,,,,,,,,,,
,,,,,,00020,2023-08-19_12h05.45.758,vbt_B1_day2,2022.2.4,MacIntel,60.0024001,,,,,,,,,,,,,,,,,,,,,,,,,,,down,0,4.2336,,0.041176622,-0.135927192,1,0,0,1.218,0,101,101,103,1,joggen,images/br_joggen.png,images/cb_joggen.png,0,,,,,,,,,,,,,,,,,,,,,,
,,,,,,00020,2023-08-19_12h05.45.758,vbt_B1_day2,2022.2.4,MacIntel,60.0024001,,,,,,,,,,,,,,,,,,,,,,,,,,,down,0,10.0163,,0.041176622,-0.135927192,1,0,0,0.5976,0,102,102,190,1,goedkoop,images/br_goedkoop.png,images/cb_goedkoop.png,0,,,,,,,,,,,,,,,,,,,,,,
,,,,,,00020,2023-08-19_12h05.45.758,vbt_B1_day2,2022.2.4,MacIntel,60.0024001,,,,,,,,,,,,,,,,,,,,,,,,,,,down,0,0.568,,0.041176622,-0.135927192,1,0,0,1.1153,0,103,103,49,1,laken,images/br_laken.png,images/cb_laken.png,0,,,,,,,,,,,,,,,,,,,,,,
,,,,,,00020,2023-08-19_12h05.45.758,vbt_B1_day2,2022.2.4,MacIntel,60.0024001,,,,,,,,,,,,,,,,,,,,,,,,,,,down,0,7.8343,,0.041176622,-0.135927192,1,0,0,0.6684,0,104,104,122,1,waarvan,images/br_waarvan.png,images/cb_waarvan.png,0,,,,,,,,,,,,,,,,,,,,,,
,,,,,,00020,2023-08-19_12h05.45.758,vbt_B1_day2,2022.2.4,MacIntel,60.0024001,,,,,,,,,,,,,,,,,,,,,,,,,,,down,0,7.0185,,0.041176622,-0.135927192,1,0,0,0.7967,0,105,105,191,1,opheffen,images/br_opheffen.png,images/cb_opheffen.png,0,,,,,,,,,,,,,,,,,,,,,,
,,,,,,00020,2023-08-19_12h05.45.758,vbt_B1_day2,2022.2.4,MacIntel,60.0024001,,,,,,,,,,,,,,,,,,,,,,,,,,,down,0,4.2523,,0.041176622,-0.135927192,1,0,0,0.4653,0,106,106,180,1,openbaar,images/br_openbaar.png,images/cb_openbaar.png,0,,,,,,,,,,,,,,,,,,,,,,
,,,,,,00020,2023-08-19_12h05.45.758,vbt_B1_day2,2022.2.4,MacIntel,60.0024001,,,,,,,,,,,,,,,,,,,,,,,,,,,down,0,7.0544,,0.041176622,-0.135927192,1,0,0,1.7813,0,107,107,199,1,beseffen,images/br_beseffen.png,images/cb_beseffen.png,0,,,,,,,,,,,,,,,,,,,,,,
,,,,,,00020,2023-08-19_12h05.45.758,vbt_B1_day2,2022.2.4,MacIntel,60.0024001,,,,,,,,,,,,,,,,,,,,,,,,,,,down,0,0.7511,,0.041176622,-0.135927192,1,0,0,0.4993,0,108,108,29,1,baas,images/br_baas.png,images/cb_baas.png,0,,,,,,,,,,,,,,,,,,,,,,
,,,,,,00020,2023-08-19_12h05.45.758,vbt_B1_day2,2022.2.4,MacIntel,60.0024001,,,,,,,,,,,,,,,,,,,,,,,,,,,down,0,4.8337,,0.041176622,-0.135927192,1,0,0,0.7144,0,109,109,36,1,vuur,images/br_vuur.png,images/cb_vuur.png,0,,,,,,,,,,,,,,,,,,,,,,
,,,,,,00020,2023-08-19_12h05.45.758,vbt_B1_day2,2022.2.4,MacIntel,60.0024001,,,,,,,,,,,,,,,,,,,,,,,,,,,down,0,1.0334,,0.041176622,-0.135927192,1,0,0,1.3822,0,110,110,50,1,stoom,images/br_stoom.png,images/cb_stoom.png,0,,,,,,,,,,,,,,,,,,,,,,
,,,,,,00020,2023-08-19_12h05.45.758,vbt_B1_day2,2022.2.4,MacIntel,60.0024001,,,,,,,,,,,,,,,,,,,,,,,,,,,down,0,9.8501,,0.041176622,-0.135927192,1,0,0,1.2153,0,111,111,184,1,aandelen,images/br_aandelen.png,images/cb_aandelen.png,0,,,,,,,,,,,,,,,,,,,,,,
,,,,,,00020,2023-08-19_12h05.45.758,vbt_B1_day2,2022.2.4,MacIntel,60.0024001,,,,,,,,,,,,,,,,,,,,,,,,,,,down,0,6.0161,,0.041176622,-0.135927192,1,0,0,0.4999,0,112,112,77,1,woede,images/br_woede.png,images/cb_woede.png,0,,,,,,,,,,,,,,,,,,,,,,
,,,,,,00020,2023-08-19_12h05.45.758,vbt_B1_day2,2022.2.4,MacIntel,60.0024001,,,,,,,,,,,,,,,,,,,,,,,,,,,down,0,3.0836,,0.041176622,-0.135927192,1,0,0,3.3334,0,113,113,30,1,uien,images/br_uien.png,images/cb_uien.png,0,,,,,,,,,,,,,,,,,,,,,,
,,,,,,00020,2023-08-19_12h05.45.758,vbt_B1_day2,2022.2.4,MacIntel,60.0024001,,,,,,,,,,,,,,,,,,,,,,,,,,,down,0,2.0169,,0.041176622,-0.135927192,1,0,0,0.6028,0,114,114,148,1,smullen,images/br_smullen.png,images/cb_smullen.png,0,,,,,,,,,,,,,,,,,,,,,,
,,,,,,00020,2023-08-19_12h05.45.758,vbt_B1_day2,2022.2.4,MacIntel,60.0024001,,,,,,,,,,,,,,,,,,,,,,,,,,,down,0,1.2011,,0.04065389,-0.135927192,1,0,0,1.4362,0,115,115,93,1,waarop,images/br_waarop.png,images/cb_waarop.png,0,,,,,,,,,,,,,,,,,,,,,,
,,,,,,00020,2023-08-19_12h05.45.758,vbt_B1_day2,2022.2.4,MacIntel,60.0024001,,,,,,,,,,,,,,,,,,,,,,,,,,,down,0,7.9001,,0.04065389,-0.135927192,1,0,0,0.4834,0,116,116,123,1,hiervan,images/br_hiervan.png,images/cb_hiervan.png,0,,,,,,,,,,,,,,,,,,,,,,
,,,,,,00020,2023-08-19_12h05.45.758,vbt_B1_day2,2022.2.4,MacIntel,60.0024001,,,,,,,,,,,,,,,,,,,,,,,,,,,down,0,13.6165,,0.04065389,-0.135927192,1,0,0,0.6832,0,117,117,108,1,excuus,images/br_excuus.png,images/cb_excuus.png,0,,,,,,,,,,,,,,,,,,,,,,
,,,,,,00020,2023-08-19_12h05.45.758,vbt_B1_day2,2022.2.4,MacIntel,60.0024001,,,,,,,,,,,,,,,,,,,,,,,,,,,down,0,7.4837,,0.04065389,-0.135927192,1,0,0,3.2835,0,118,118,14,1,rijp,images/br_rijp.png,images/cb_rijp.png,0,,,,,,,,,,,,,,,,,,,,,,
,,,,,,00020,2023-08-19_12h05.45.758,vbt_B1_day2,2022.2.4,MacIntel,60.0024001,,,,,,,,,,,,,,,,,,,,,,,,,,,down,0,5.2011,,0.04065389,-0.135927192,1,0,0,2.1828,0,119,119,100,1,geduld,images/br_geduld.png,images/cb_geduld.png,0,,,,,,,,,,,,,,,,,,,,,,
,,,,,,00020,2023-08-19_12h05.45.758,vbt_B1_day2,2022.2.4,MacIntel,60.0024001,,,,,,,,,,,,,,,,,,,,,,,,,,,down,0,17.3651,,0.270333049,-0.101529948,1,0,0,3.6334,0,120,120,178,1,huisdier,images/br_huisdier.png,images/cb_huisdier.png,1,huisdier,,,,,,,,,,,,,,,,,,,,,
,,,,,,00020,2023-08-19_12h05.45.758,vbt_B1_day2,2022.2.4,MacIntel,60.0024001,,,,,,,,,,,,,,,,,,,,,,,,,,,down,0,3.9013,,0.270333049,-0.101529948,1,0,0,0.5506,0,121,121,62,1,knaap,images/br_knaap.png,images/cb_knaap.png,0,,,,,,,,,,,,,,,,,,,,,,
,,,,,,00020,2023-08-19_12h05.45.758,vbt_B1_day2,2022.2.4,MacIntel,60.0024001,,,,,,,,,,,,,,,,,,,,,,,,,,,down,0,7.9655,,0.270333049,-0.101529948,1,0,0,0.5666,0,122,122,194,1,driemaal,images/br_driemaal.png,images/cb_driemaal.png,0,,,,,,,,,,,,,,,,,,,,,,
,,,,,,00020,2023-08-19_12h05.45.758,vbt_B1_day2,2022.2.4,MacIntel,60.0024001,,,,,,,,,,,,,,,,,,,,,,,,,,,down,0,7.4163,,0.270333049,-0.101529948,1,0,0,2.7013,0,123,123,125,1,aanzien,images/br_aanzien.png,images/cb_aanzien.png,0,,,,,,,,,,,,,,,,,,,,,,
,,,,,,00020,2023-08-19_12h05.45.758,vbt_B1_day2,2022.2.4,MacIntel,60.0024001,,,,,,,,,,,,,,,,,,,,,,,,,,,down,0,5.1167,,0.270333049,-0.101529948,1,0,0,0.4849,0,124,124,177,1,maaltijd,images/br_maaltijd.png,images/cb_maaltijd.png,1,maaltijd,,,,,,,,,,,,,,,,,,,,,
,,,,,,00020,2023-08-19_12h05.45.758,vbt_B1_day2,2022.2.4,MacIntel,60.0024001,,,,,,,,,,,,,,,,,,,,,,,,,,,down,0,3.9848,,0.270333049,-0.101529948,1,0,0,0.5999,0,125,125,90,1,geluid,images/br_geluid.png,images/cb_geluid.png,0,,,,,,,,,,,,,,,,,,,,,,
,,,,,,00020,2023-08-19_12h05.45.758,vbt_B1_day2,2022.2.4,MacIntel,60.0024001,,,,,,,,,,,,,,,,,,,,,,,,,,,down,0,0.4501,,0.267004123,-0.099737481,1,0,0,0.4831,0,126,126,1,1,zaal,images/br_zaal.png,images/cb_zaal.png,0,,,,,,,,,,,,,,,,,,,,,,
,,,,,,00020,2023-08-19_12h05.45.758,vbt_B1_day2,2022.2.4,MacIntel,60.0024001,,,,,,,,,,,,,,,,,,,,,,,,,,,down,0,0.9162,,0.267798801,-0.099737481,1,0,0,1.1167,0,127,127,4,1,moes,images/br_moes.png,images/cb_moes.png,0,,,,,,,,,,,,,,,,,,,,,,
,,,,,,00020,2023-08-19_12h05.45.758,vbt_B1_day2,2022.2.4,MacIntel,60.0024001,,,,,,,,,,,,,,,,,,,,,,,,,,,down,0,2.5873,,0.267798801,-0.099737481,1,0,0,0.5496,0,128,128,192,1,schaamte,images/br_schaamte.png,images/cb_schaamte.png,0,,,,,,,,,,,,,,,,,,,,,,
,,,,,,00020,2023-08-19_12h05.45.758,vbt_B1_day2,2022.2.4,MacIntel,60.0024001,,,,,,,,,,,,,,,,,,,,,,,,,,,down,0,3.5836,,0.267798801,-0.099737481,1,0,0,1.9169,0,129,129,71,1,bever,images/br_bever.png,images/cb_bever.png,0,,,,,,,,,,,,,,,,,,,,,,
,,,,,,00020,2023-08-19_12h05.45.758,vbt_B1_day2,2022.2.4,MacIntel,60.0024001,,,,,,,,,,,,,,,,,,,,,,,,,,,down,0,6.9006,,0.267798801,-0.099737481,1,0,0,0.6995,0,130,130,187,1,opkijken,images/br_opkijken.png,images/cb_opkijken.png,0,,,,,,,,,,,,,,,,,,,,,,
,,,,,,00020,2023-08-19_12h05.45.758,vbt_B1_day2,2022.2.4,MacIntel,60.0024001,,,,,,,,,,,,,,,,,,,,,,,,,,,down,0,1.7665,,0.267798801,-0.099737481,1,0,0,0.5505,0,131,131,31,1,poes,images/br_poes.png,images/cb_poes.png,0,,,,,,,,,,,,,,,,,,,,,,
,,,,,,00020,2023-08-19_12h05.45.758,vbt_B1_day2,2022.2.4,MacIntel,60.0024001,,,,,,,,,,,,,,,,,,,,,,,,,,,down,0,5.3191,,0.267798801,-0.099737481,1,0,0,2.4499,0,132,132,129,1,verhaal,images/br_verhaal.png,images/cb_verhaal.png,0,,,,,,,,,,,,,,,,,,,,,,
,,,,,,00020,2023-08-19_12h05.45.758,vbt_B1_day2,2022.2.4,MacIntel,60.0024001,,,,,,,,,,,,,,,,,,,,,,,,,,,down,0,0.1001,,0.267798801,-0.099737481,1,0,0,0.5172,0,133,133,8,1,knie,images/br_knie.png,images/cb_knie.png,0,,,,,,,,,,,,,,,,,,,,,,
,,,,,,00020,2023-08-19_12h05.45.758,vbt_B1_day2,2022.2.4,MacIntel,60.0024001,,,,,,,,,,,,,,,,,,,,,,,,,,,down,0,2.3167,,0.267798801,-0.099737481,1,0,0,0.5325,0,134,134,96,1,slagen,images/br_slagen.png,images/cb_slagen.png,1,slagen,,,,,,,,,,,,,,,,,,,,,
,,,,,,00020,2023-08-19_12h05.45.758,vbt_B1_day2,2022.2.4,MacIntel,60.0024001,,,,,,,,,,,,,,,,,,,,,,,,,,,down,0,5.5677,,0.267798801,-0.099737481,1,0,0,0.6183,0,135,135,155,1,gerucht,images/br_gerucht.png,images/cb_gerucht.png,0,,,,,,,,,,,,,,,,,,,,,,
,,,,,,00020,2023-08-19_12h05.45.758,vbt_B1_day2,2022.2.4,MacIntel,60.0024001,,,,,,,,,,,,,,,,,,,,,,,,,,,down,0,2.6345,,0.267798801,-0.099737481,1,0,0,0.5333,0,136,136,140,1,blijven,images/br_blijven.png,images/cb_blijven.png,0,,,,,,,,,,,,,,,,,,,,,,
,,,,,,00020,2023-08-19_12h05.45.758,vbt_B1_day2,2022.2.4,MacIntel,60.0024001,,,,,,,,,,,,,,,,,,,,,,,,,,,down,0,0.8509,,0.267798801,-0.099737481,1,0,0,0.6,0,137,137,35,1,lust,images/br_lust.png,images/cb_lust.png,0,,,,,,,,,,,,,,,,,,,,,,
,,,,,,00020,2023-08-19_12h05.45.758,vbt_B1_day2,2022.2.4,MacIntel,60.0024001,,,,,,,,,,,,,,,,,,,,,,,,,,,down,0,0.6685,,0.206935086,-0.098954332,1,0,0,0.5333,0,138,138,112,1,lukken,images/br_lukken.png,images/cb_lukken.png,0,,,,,,,,,,,,,,,,,,,,,,
,,,,,,00020,2023-08-19_12h05.45.758,vbt_B1_day2,2022.2.4,MacIntel,60.0024001,,,,,,,,,,,,,,,,,,,,,,,,,,,down,0,1.2212,,0.206935086,-0.098954332,1,0,0,0.5153,0,139,139,188,1,strekken,images/br_strekken.png,images/cb_strekken.png,0,,,,,,,,,,,,,,,,,,,,,,
,,,,,,00020,2023-08-19_12h05.45.758,vbt_B1_day2,2022.2.4,MacIntel,60.0024001,,,,,,,,,,,,,,,,,,,,,,,,,,,down,0,0.234,,0.206935086,-0.098954332,1,0,0,0.6167,0,140,140,42,1,bleek,images/br_bleek.png,images/cb_bleek.png,0,,,,,,,,,,,,,,,,,,,,,,
,,,,,,00020,2023-08-19_12h05.45.758,vbt_B1_day2,2022.2.4,MacIntel,60.0024001,,,,,,,,,,,,,,,,,,,,,,,,,,,down,0,3.9685,,0.206935086,-0.098954332,1,0,0,0.6833,0,141,141,58,1,tekst,images/br_tekst.png,images/cb_tekst.png,1,tekst,,,,,,,,,,,,,,,,,,,,,
,,,,,,00020,2023-08-19_12h05.45.758,vbt_B1_day2,2022.2.4,MacIntel,60.0024001,,,,,,,,,,,,,,,,,,,,,,,,,,,down,0,1.7344,,0.206935086,-0.098954332,1,0,0,0.7008,0,142,142,75,1,snoep,images/br_snoep.png,images/cb_snoep.png,0,,,,,,,,,,,,,,,,,,,,,,
,,,,,,00020,2023-08-19_12h05.45.758,vbt_B1_day2,2022.2.4,MacIntel,60.0024001,,,,,,,,,,,,,,,,,,,,,,,,,,,down,0,3.7344,,0.206935086,-0.098954332,1,0,0,0.6328,0,143,143,151,1,aanzoek,images/br_aanzoek.png,images/cb_aanzoek.png,0,,,,,,,,,,,,,,,,,,,,,,
,,,,,,00020,2023-08-19_12h05.45.758,vbt_B1_day2,2022.2.4,MacIntel,60.0024001,,,,,,,,,,,,,,,,,,,,,,,,,,,down,0,5.4455,,0.206935086,-0.098954332,1,0,0,1.7656,0,144,144,44,1,flits,images/br_flits.png,images/cb_flits.png,0,,,,,,,,,,,,,,,,,,,,,,
,,,,,,00020,2023-08-19_12h05.45.758,vbt_B1_day2,2022.2.4,MacIntel,60.0024001,,,,,,,,,,,,,,,,,,,,,,,,,,,down,0,1.0668,,0.206935086,-0.098954332,1,0,0,0.5011,0,145,145,61,1,groen,images/br_groen.png,images/cb_groen.png,0,,,,,,,,,,,,,,,,,,,,,,
,,,,,,00020,2023-08-19_12h05.45.758,vbt_B1_day2,2022.2.4,MacIntel,60.0024001,,,,,,,,,,,,,,,,,,,,,,,,,,,down,0,8.5003,,0.206935086,-0.098954332,1,0,0,3.3656,0,146,146,34,1,vorm,images/br_vorm.png,images/cb_vorm.png,0,,,,,,,,,,,,,,,,,,,,,,
,,,,,,00020,2023-08-19_12h05.45.758,vbt_B1_day2,2022.2.4,MacIntel,60.0024001,,,,,,,,,,,,,,,,,,,,,,,,,,,down,0,5.0002,,0.206935086,-0.098954332,1,0,0,0.6329,0,147,147,37,1,mijn,images/br_mijn.png,images/cb_mijn.png,0,,,,,,,,,,,,,,,,,,,,,,
,,,,,,00020,2023-08-19_12h05.45.758,vbt_B1_day2,2022.2.4,MacIntel,60.0024001,,,,,,,,,,,,,,,,,,,,,,,,,,,down,0,0.6379,,0.206935086,-0.098954332,1,0,0,0.65,0,148,148,0,1,slak,images/br_slak.png,images/cb_slak.png,0,,,,,,,,,,,,,,,,,,,,,,
,,,,,,00020,2023-08-19_12h05.45.758,vbt_B1_day2,2022.2.4,MacIntel,60.0024001,,,,,,,,,,,,,,,,,,,,,,,,,,,down,0,5.5502,,0.206935086,-0.098954332,1,0,0,0.9005,0,149,149,111,1,ticket,images/br_ticket.png,images/cb_ticket.png,0,,,,,,,,,,,,,,,,,,,,,,
,,,,,,00020,2023-08-19_12h05.45.758,vbt_B1_day2,2022.2.4,MacIntel,60.0024001,,,,,,,,,,,,,,,,,,,,,,,,,,,down,0,1.1864,,0.206935086,-0.098954332,1,0,0,0.5007,0,150,150,102,1,legaal,images/br_legaal.png,images/cb_legaal.png,0,,,,,,,,,,,,,,,,,,,,,,
,,,,,,00020,2023-08-19_12h05.45.758,vbt_B1_day2,2022.2.4,MacIntel,60.0024001,,,,,,,,,,,,,,,,,,,,,,,,,,,down,0,0.2543,,0.206935086,-0.098954332,1,0,0,0.4314,0,151,151,109,1,totaal,images/br_totaal.png,images/cb_totaal.png,0,,,,,,,,,,,,,,,,,,,,,,
,,,,,,00020,2023-08-19_12h05.45.758,vbt_B1_day2,2022.2.4,MacIntel,60.0024001,,,,,,,,,,,,,,,,,,,,,,,,,,,down,0,4.6534,,0.206935086,-0.098954332,1,0,0,1.449,0,152,152,168,1,bisschop,images/br_bisschop.png,images/cb_bisschop.png,0,,,,,,,,,,,,,,,,,,,,,,
,,,,,,00020,2023-08-19_12h05.45.758,vbt_B1_day2,2022.2.4,MacIntel,60.0024001,,,,,,,,,,,,,,,,,,,,,,,,,,,down,0,1.2691,,0.206935086,-0.098954332,1,0,0,0.5322,0,153,153,56,1,traag,images/br_traag.png,images/cb_traag.png,1,traag,,,,,,,,,,,,,,,,,,,,,
,,,,,,00020,2023-08-19_12h05.45.758,vbt_B1_day2,2022.2.4,MacIntel,60.0024001,,,,,,,,,,,,,,,,,,,,,,,,,,,down,0,6.4335,,0.206935086,-0.098954332,1,0,0,4.9835,0,154,154,85,1,heilig,images/br_heilig.png,images/cb_heilig.png,0,,,,,,,,,,,,,,,,,,,,,,
,,,,,,00020,2023-08-19_12h05.45.758,vbt_B1_day2,2022.2.4,MacIntel,60.0024001,,,,,,,,,,,,,,,,,,,,,,,,,,,down,0,2.8218,,0.206935086,-0.098954332,1,0,0,0.5654,0,155,155,163,1,schuilen,images/br_schuilen.png,images/cb_schuilen.png,0,,,,,,,,,,,,,,,,,,,,,,
,,,,,,00020,2023-08-19_12h05.45.758,vbt_B1_day2,2022.2.4,MacIntel,60.0024001,,,,,,,,,,,,,,,,,,,,,,,,,,,down,0,0.5171,,0.206935086,-0.098954332,1,0,0,0.5171,0,156,156,21,1,mist,images/br_mist.png,images/cb_mist.png,0,,,,,,,,,,,,,,,,,,,,,,
,,,,,,00020,2023-08-19_12h05.45.758,vbt_B1_day2,2022.2.4,MacIntel,60.0024001,,,,,,,,,,,,,,,,,,,,,,,,,,,down,0,3.5366,,0.206935086,-0.098954332,1,0,0,0.4985,0,157,157,25,1,plek,images/br_plek.png,images/cb_plek.png,0,,,,,,,,,,,,,,,,,,,,,,
,,,,,,00020,2023-08-19_12h05.45.758,vbt_B1_day2,2022.2.4,MacIntel,60.0024001,,,,,,,,,,,,,,,,,,,,,,,,,,,down,0,2.2002,,0.206935086,-0.098954332,1,0,0,0.585,0,158,158,156,1,rechten,images/br_rechten.png,images/cb_rechten.png,0,,,,,,,,,,,,,,,,,,,,,,
,,,,,,00020,2023-08-19_12h05.45.758,vbt_B1_day2,2022.2.4,MacIntel,60.0024001,,,,,,,,,,,,,,,,,,,,,,,,,,,down,0,4.9214,,0.206935086,-0.098954332,1,0,0,0.516,0,159,159,196,1,nakijken,images/br_nakijken.png,images/cb_nakijken.png,0,,,,,,,,,,,,,,,,,,,,,,
,,,,,,00020,2023-08-19_12h05.45.758,vbt_B1_day2,2022.2.4,MacIntel,60.0024001,,,,,,,,,,,,,,,,,,,,,,,,,,,down,0,7.5502,,0.206935086,-0.098954332,1,0,0,0.5001,0,160,160,153,1,vervoer,images/br_vervoer.png,images/cb_vervoer.png,0,,,,,,,,,,,,,,,,,,,,,,
,,,,,,00020,2023-08-19_12h05.45.758,vbt_B1_day2,2022.2.4,MacIntel,60.0024001,,,,,,,,,,,,,,,,,,,,,,,,,,,down,0,6.8149,,0.206935086,-0.098954332,1,0,0,1.1001,0,161,161,60,1,jasje,images/br_jasje.png,images/cb_jasje.png,0,,,,,,,,,,,,,,,,,,,,,,
,,,,,,00020,2023-08-19_12h05.45.758,vbt_B1_day2,2022.2.4,MacIntel,60.0024001,,,,,,,,,,,,,,,,,,,,,,,,,,,down,0,2.3339,,0.206935086,-0.098954332,1,0,0,0.5502,0,162,162,55,1,praat,images/br_praat.png,images/cb_praat.png,0,,,,,,,,,,,,,,,,,,,,,,
,,,,,,00020,2023-08-19_12h05.45.758,vbt_B1_day2,2022.2.4,MacIntel,60.0024001,,,,,,,,,,,,,,,,,,,,,,,,,,,down,0,1.6001,,0.206935086,-0.098954332,1,0,0,0.5175,0,163,163,7,1,geld,images/br_geld.png,images/cb_geld.png,0,,,,,,,,,,,,,,,,,,,,,,
,,,,,,00020,2023-08-19_12h05.45.758,vbt_B1_day2,2022.2.4,MacIntel,60.0024001,,,,,,,,,,,,,,,,,,,,,,,,,,,down,0,2.3519,,0.206935086,-0.098954332,1,0,0,0.5999,0,164,164,82,1,muziek,images/br_muziek.png,images/cb_muziek.png,0,,,,,,,,,,,,,,,,,,,,,,
,,,,,,00020,2023-08-19_12h05.45.758,vbt_B1_day2,2022.2.4,MacIntel,60.0024001,,,,,,,,,,,,,,,,,,,,,,,,,,,down,0,0.5172,,0.206935086,-0.098954332,1,0,0,0.6015,0,165,165,28,1,stal,images/br_stal.png,images/cb_stal.png,0,,,,,,,,,,,,,,,,,,,,,,
,,,,,,00020,2023-08-19_12h05.45.758,vbt_B1_day2,2022.2.4,MacIntel,60.0024001,,,,,,,,,,,,,,,,,,,,,,,,,,,down,0,0.3651,,0.206935086,-0.098954332,1,0,0,0.5484,0,166,166,126,1,kasteel,images/br_kasteel.png,images/cb_kasteel.png,0,,,,,,,,,,,,,,,,,,,,,,
,,,,,,00020,2023-08-19_12h05.45.758,vbt_B1_day2,2022.2.4,MacIntel,60.0024001,,,,,,,,,,,,,,,,,,,,,,,,,,,down,0,4.9168,,0.206935086,-0.098954332,1,0,0,0.7149,0,167,167,157,1,uitlaat,images/br_uitlaat.png,images/cb_uitlaat.png,0,,,,,,,,,,,,,,,,,,,,,,
,,,,,,00020,2023-08-19_12h05.45.758,vbt_B1_day2,2022.2.4,MacIntel,60.0024001,,,,,,,,,,,,,,,,,,,,,,,,,,,down,0,1.8013,,0.206935086,-0.098954332,1,0,0,1.8164,0,168,168,117,1,kennis,images/br_kennis.png,images/cb_kennis.png,0,,,,,,,,,,,,,,,,,,,,,,
,,,,,,00020,2023-08-19_12h05.45.758,vbt_B1_day2,2022.2.4,MacIntel,60.0024001,,,,,,,,,,,,,,,,,,,,,,,,,,,down,0,11.6165,,0.282245755,-0.017386339,1,0,0,0.9668,0,169,169,179,1,woestijn,images/br_woestijn.png,images/cb_woestijn.png,1,woestijn,,,,,,,,,,,,,,,,,,,,,
,,,,,,00020,2023-08-19_12h05.45.758,vbt_B1_day2,2022.2.4,MacIntel,60.0024001,,,,,,,,,,,,,,,,,,,,,,,,,,,down,0,4.718,,0.282245755,-0.017386339,1,0,0,1.6184,0,170,170,94,1,oceaan,images/br_oceaan.png,images/cb_oceaan.png,0,,,,,,,,,,,,,,,,,,,,,,
,,,,,,00020,2023-08-19_12h05.45.758,vbt_B1_day2,2022.2.4,MacIntel,60.0024001,,,,,,,,,,,,,,,,,,,,,,,,,,,down,0,3.3176,,0.282245755,-0.017386339,1,0,0,0.5837,0,171,171,98,1,kreeft,images/br_kreeft.png,images/cb_kreeft.png,1,kreeft,,,,,,,,,,,,,,,,,,,,,
,,,,,,00020,2023-08-19_12h05.45.758,vbt_B1_day2,2022.2.4,MacIntel,60.0024001,,,,,,,,,,,,,,,,,,,,,,,,,,,down,0,3.3005,,0.282245755,-0.017386339,1,0,0,0.5338,0,172,172,105,1,wijlen,images/br_wijlen.png,images/cb_wijlen.png,0,,,,,,,,,,,,,,,,,,,,,,
,,,,,,00020,2023-08-19_12h05.45.758,vbt_B1_day2,2022.2.4,MacIntel,60.0024001,,,,,,,,,,,,,,,,,,,,,,,,,,,down,0,1.6158,,0.282245755,-0.017386339,1,0,0,3.0169,0,173,173,47,1,kabel,images/br_kabel.png,images/cb_kabel.png,0,,,,,,,,,,,,,,,,,,,,,,
,,,,,,00020,2023-08-19_12h05.45.758,vbt_B1_day2,2022.2.4,MacIntel,60.0024001,,,,,,,,,,,,,,,,,,,,,,,,,,,down,0,5.9667,,0.282245755,-0.017386339,1,0,0,0.783,0,174,174,118,1,vinger,images/br_vinger.png,images/cb_vinger.png,0,,,,,,,,,,,,,,,,,,,,,,
,,,,,,00020,2023-08-19_12h05.45.758,vbt_B1_day2,2022.2.4,MacIntel,60.0024001,,,,,,,,,,,,,,,,,,,,,,,,,,,down,0,3.9165,,0.282245755,-0.017386339,1,0,0,0.5815,0,175,175,63,1,flirt,images/br_flirt.png,images/cb_flirt.png,0,,,,,,,,,,,,,,,,,,,,,,
,,,,,,00020,2023-08-19_12h05.45.758,vbt_B1_day2,2022.2.4,MacIntel,60.0024001,,,,,,,,,,,,,,,,,,,,,,,,,,,down,0,6.1528,,0.282245755,-0.017386339,1,0,0,0.5662,0,176,176,130,1,keihard,images/br_keihard.png,images/cb_keihard.png,0,,,,,,,,,,,,,,,,,,,,,,
,,,,,,00020,2023-08-19_12h05.45.758,vbt_B1_day2,2022.2.4,MacIntel,60.0024001,,,,,,,,,,,,,,,,,,,,,,,,,,,down,0,5.0202,,0.282245755,-0.017386339,1,0,0,0.6666,0,177,177,88,1,boeien,images/br_boeien.png,images/cb_boeien.png,0,,,,,,,,,,,,,,,,,,,,,,
,,,,,,00020,2023-08-19_12h05.45.758,vbt_B1_day2,2022.2.4,MacIntel,60.0024001,,,,,,,,,,,,,,,,,,,,,,,,,,,down,0,2.6165,,0.282245755,-0.017386339,1,0,0,0.8537,0,178,178,128,1,prikken,images/br_prikken.png,images/cb_prikken.png,0,,,,,,,,,,,,,,,,,,,,,,
,,,,,,00020,2023-08-19_12h05.45.758,vbt_B1_day2,2022.2.4,MacIntel,60.0024001,,,,,,,,,,,,,,,,,,,,,,,,,,,down,0,0.0034,,0.282245755,-0.017386339,1,0,0,0.6003,0,179,179,74,1,graaf,images/br_graaf.png,images/cb_graaf.png,0,,,,,,,,,,,,,,,,,,,,,,
,,,,,,00020,2023-08-19_12h05.45.758,vbt_B1_day2,2022.2.4,MacIntel,60.0024001,,,,,,,,,,,,,,,,,,,,,,,,,,,down,0,1.1672,,0.282245755,-0.017386339,1,0,0,0.4832,0,180,180,20,1,site,images/br_site.png,images/cb_site.png,0,,,,,,,,,,,,,,,,,,,,,,
,,,,,,00020,2023-08-19_12h05.45.758,vbt_B1_day2,2022.2.4,MacIntel,60.0024001,,,,,,,,,,,,,,,,,,,,,,,,,,,down,0,3.8671,,0.282245755,-0.017386339,1,0,0,1.75,0,181,181,73,1,volop,images/br_volop.png,images/cb_volop.png,0,,,,,,,,,,,,,,,,,,,,,,
,,,,,,00020,2023-08-19_12h05.45.758,vbt_B1_day2,2022.2.4,MacIntel,60.0024001,,,,,,,,,,,,,,,,,,,,,,,,,,,down,0,3.2508,,0.282245755,-0.017386339,1,0,0,1.8682,0,182,182,186,1,voorraad,images/br_voorraad.png,images/cb_voorraad.png,0,,,,,,,,,,,,,,,,,,,,,,
,,,,,,00020,2023-08-19_12h05.45.758,vbt_B1_day2,2022.2.4,MacIntel,60.0024001,,,,,,,,,,,,,,,,,,,,,,,,,,,down,0,2.084,,0.282245755,-0.017386339,1,0,0,0.5167,0,183,183,91,1,gezond,images/br_gezond.png,images/cb_gezond.png,0,,,,,,,,,,,,,,,,,,,,,,
,,,,,,00020,2023-08-19_12h05.45.758,vbt_B1_day2,2022.2.4,MacIntel,60.0024001,,,,,,,,,,,,,,,,,,,,,,,,,,,down,0,6.3869,,0.282245755,-0.017386339,1,0,0,2.5336,0,184,184,131,1,opzicht,images/br_opzicht.png,images/cb_opzicht.png,0,,,,,,,,,,,,,,,,,,,,,,
,,,,,,00020,2023-08-19_12h05.45.758,vbt_B1_day2,2022.2.4,MacIntel,60.0024001,,,,,,,,,,,,,,,,,,,,,,,,,,,down,0,1.6521,,0.282245755,-0.017386339,1,0,0,2.3336,0,185,185,23,1,zout,images/br_zout.png,images/cb_zout.png,0,,,,,,,,,,,,,,,,,,,,,,
,,,,,,00020,2023-08-19_12h05.45.758,vbt_B1_day2,2022.2.4,MacIntel,60.0024001,,,,,,,,,,,,,,,,,,,,,,,,,,,down,0,4.3675,,0.282245755,-0.017386339,1,0,0,0.5986,0,186,186,19,1,geit,images/br_geit.png,images/cb_geit.png,1,geit,,,,,,,,,,,,,,,,,,,,,
,,,,,,00020,2023-08-19_12h05.45.758,vbt_B1_day2,2022.2.4,MacIntel,60.0024001,,,,,,,,,,,,,,,,,,,,,,,,,,,down,0,0.1675,,0.282245755,-0.017386339,1,0,0,0.4181,0,187,187,13,1,kaal,images/br_kaal.png,images/cb_kaal.png,0,,,,,,,,,,,,,,,,,,,,,,
,,,,,,00020,2023-08-19_12h05.45.758,vbt_B1_day2,2022.2.4,MacIntel,60.0024001,,,,,,,,,,,,,,,,,,,,,,,,,,,down,0,8.5008,,0.282245755,-0.017386339,1,0,0,0.4332,0,188,188,68,1,schat,images/br_schat.png,images/cb_schat.png,0,,,,,,,,,,,,,,,,,,,,,,
,,,,,,00020,2023-08-19_12h05.45.758,vbt_B1_day2,2022.2.4,MacIntel,60.0024001,,,,,,,,,,,,,,,,,,,,,,,,,,,down,0,3.2842,,0.282245755,-0.017386339,1,0,0,2.6989,0,189,189,69,1,waken,images/br_waken.png,images/cb_waken.png,0,,,,,,,,,,,,,,,,,,,,,,
,,,,,,00020,2023-08-19_12h05.45.758,vbt_B1_day2,2022.2.4,MacIntel,60.0024001,,,,,,,,,,,,,,,,,,,,,,,,,,,down,0,3.9511,,0.282245755,-0.017386339,1,0,0,0.3837,0,190,190,138,1,akkoord,images/br_akkoord.png,images/cb_akkoord.png,1,akkoord,,,,,,,,,,,,,,,,,,,,,
,,,,,,00020,2023-08-19_12h05.45.758,vbt_B1_day2,2022.2.4,MacIntel,60.0024001,,,,,,,,,,,,,,,,,,,,,,,,,,,down,0,2.3666,,0.080323147,-0.070449761,1,0,0,0.5997,0,191,191,150,1,gegeven,images/br_gegeven.png,images/cb_gegeven.png,0,,,,,,,,,,,,,,,,,,,,,,
,,,,,,00020,2023-08-19_12h05.45.758,vbt_B1_day2,2022.2.4,MacIntel,60.0024001,,,,,,,,,,,,,,,,,,,,,,,,,,,down,0,0.0992,,0.080323147,-0.070449761,1,0,0,0.5173,0,192,192,64,1,wegen,images/br_wegen.png,images/cb_wegen.png,0,,,,,,,,,,,,,,,,,,,,,,
,,,,,,00020,2023-08-19_12h05.45.758,vbt_B1_day2,2022.2.4,MacIntel,60.0024001,,,,,,,,,,,,,,,,,,,,,,,,,,,down,0,4.3668,,0.104590725,-0.074895901,1,0,0,1.1494,0,193,193,139,1,stiekem,images/br_stiekem.png,images/cb_stiekem.png,1,stiekem,,,,,,,,,,,,,,,,,,,,,
,,,,,,00020,2023-08-19_12h05.45.758,vbt_B1_day2,2022.2.4,MacIntel,60.0024001,,,,,,,,,,,,,,,,,,,,,,,,,,,down,0,0.3673,,0.104590725,-0.074895901,1,0,0,0.6325,0,194,194,48,1,steel,images/br_steel.png,images/cb_steel.png,0,,,,,,,,,,,,,,,,,,,,,,
,,,,,,00020,2023-08-19_12h05.45.758,vbt_B1_day2,2022.2.4,MacIntel,60.0024001,,,,,,,,,,,,,,,,,,,,,,,,,,,down,0,1.0338,,0.104590725,-0.074895901,1,0,0,0.5318,0,195,195,33,1,vlek,images/br_vlek.png,images/cb_vlek.png,0,,,,,,,,,,,,,,,,,,,,,,
,,,,,,00020,2023-08-19_12h05.45.758,vbt_B1_day2,2022.2.4,MacIntel,60.0024001,,,,,,,,,,,,,,,,,,,,,,,,,,,down,0,7.7355,,0.104590725,-0.074895901,1,0,0,0.7666,0,196,196,46,1,jagen,images/br_jagen.png,images/cb_jagen.png,0,,,,,,,,,,,,,,,,,,,,,,
,,,,,,00020,2023-08-19_12h05.45.758,vbt_B1_day2,2022.2.4,MacIntel,60.0024001,,,,,,,,,,,,,,,,,,,,,,,,,,,down,0,4.9337,,0.104590725,-0.074895901,1,0,0,0.4833,0,197,197,152,1,afnemen,images/br_afnemen.png,images/cb_afnemen.png,0,,,,,,,,,,,,,,,,,,,,,,
,,,,,,00020,2023-08-19_12h05.45.758,vbt_B1_day2,2022.2.4,MacIntel,60.0024001,,,,,,,,,,,,,,,,,,,,,,,,,,,down,0,8.5179,,0.104590725,-0.074895901,1,0,0,4.965,0,198,198,195,1,middelen,images/br_middelen.png,images/cb_middelen.png,0,,,,,,,,,,,,,,,,,,,,,,
,,,,,,00020,2023-08-19_12h05.45.758,vbt_B1_day2,2022.2.4,MacIntel,60.0024001,,,,,,,,,,,,,,,,,,,,,,,,,,,down,0,1.7508,,0.104590725,-0.074895901,1,0,0,0.5159,0,199,199,169,1,oprotten,images/br_oprotten.png,images/cb_oprotten.png,0,,,,,,,,,,,,,,,,,,,,,,
,,,,,,00020,2023-08-19_12h05.45.758,vbt_B1_day2,2022.2.4,MacIntel,60.0024001,,,,,,,,,,,,,,,,,,,,,,,,,,,,,,,,,,,,,,,,,,,,,,,0.216100803,-0.150637343,1,0,0,,,,,,,,,,,,,,,,
,,,,,,00020,2023-08-19_12h05.45.758,vbt_B1_day2,2022.2.4,MacIntel,60.0024001,,,,,,,,,,,,,,,,,,,,,,,,,,,,,,,,,,,,,,,,,,,,,,,,,,,,0.215560845,-0.150370551,1,0,0,,,,,,,,,,,
,,,,,,00020,2023-08-19_12h05.45.758,vbt_B1_day2,2022.2.4,MacIntel,60.0024001,,,,,,,,,,,,,,,,,,,,,,,,,,,,,,,,,,,,,,,,,,zomers,images/br_zomers.png,images/cb_zomers.png,,zomers,,,,,,,,,,,0.215560845,-0.150370551,1,0,0,zomers,0,0,0,48,1
,,,,,,00020,2023-08-19_12h05.45.758,vbt_B1_day2,2022.2.4,MacIntel,60.0024001,,,,,,,,,,,,,,,,,,,,,,,,,,,,,,,,,,,,,,,,,,plannen,images/br_plannen.png,images/cb_plannen.png,,.lannen,,,,,,,,,,,0.215560845,-0.150370551,1,0,0,.lannen,0,1,1,55,1
,,,,,,00020,2023-08-19_12h05.45.758,vbt_B1_day2,2022.2.4,MacIntel,60.0024001,,,,,,,,,,,,,,,,,,,,,,,,,,,,,,,,,,,,,,,,,,badon,images/br_badon.png,images/cb_badon.png,,ba.on,,,,,,,,,,,0.215560845,-0.150370551,1,0,0,ba.on,0,2,2,26,1
,,,,,,00020,2023-08-19_12h05.45.758,vbt_B1_day2,2022.2.4,MacIntel,60.0024001,,,,,,,,,,,,,,,,,,,,,,,,,,,,,,,,,,,,,,,,,,piste,images/br_piste.png,images/cb_piste.png,,piste,,,,,,,,,,,0.215560845,-0.150370551,1,0,0,piste,0,3,3,5,1
,,,,,,00020,2023-08-19_12h05.45.758,vbt_B1_day2,2022.2.4,MacIntel,60.0024001,,,,,,,,,,,,,,,,,,,,,,,,,,,,,,,,,,,,,,,,,,kabel,images/br_kabel.png,images/cb_kabel.png,,kabel,,,,,,,,,,,0.215560845,-0.150370551,1,0,0,kabel,0,4,4,7,1
,,,,,,00020,2023-08-19_12h05.45.758,vbt_B1_day2,2022.2.4,MacIntel,60.0024001,,,,,,,,,,,,,,,,,,,,,,,,,,,,,,,,,,,,,,,,,,dode,images/br_dode.png,images/cb_dode.png,,dode,,,,,,,,,,,0.215560845,-0.150370551,1,0,0,dode,0,5,5,41,1
,,,,,,00020,2023-08-19_12h05.45.758,vbt_B1_day2,2022.2.4,MacIntel,60.0024001,,,,,,,,,,,,,,,,,,,,,,,,,,,,,,,,,,,,,,,,,,stes,images/br_stes.png,images/cb_stes.png,,stes,,,,,,,,,,,0.215560845,-0.150114543,1,0,0,stes,0,6,6,21,1
,,,,,,00020,2023-08-19_12h05.45.758,vbt_B1_day2,2022.2.4,MacIntel,60.0024001,,,,,,,,,,,,,,,,,,,,,,,,,,,,,,,,,,,,,,,,,,eenhoorn,images/br_eenhoorn.png,images/cb_eenhoorn.png,,eenhoorn,,,,,,,,,,,0.215560845,-0.150114543,1,0,0,eenhoorn,0,7,7,19,1
,,,,,,00020,2023-08-19_12h05.45.758,vbt_B1_day2,2022.2.4,MacIntel,60.0024001,,,,,,,,,,,,,,,,,,,,,,,,,,,,,,,,,,,,,,,,,,lurgen,images/br_lurgen.png,images/cb_lurgen.png,,lurgen,,,,,,,,,,,0.215560845,-0.149858534,1,0,0,lurgen,0,8,8,29,1
,,,,,,00020,2023-08-19_12h05.45.758,vbt_B1_day2,2022.2.4,MacIntel,60.0024001,,,,,,,,,,,,,,,,,,,,,,,,,,,,,,,,,,,,,,,,,,sjijfel,images/br_sjijfel.png,images/cb_sjijfel.png,,s.e.rge.,,,,,,,,,,,0.215560845,-0.149858534,1,0,0,s.e.rge.,0,9,9,33,1
,,,,,,00020,2023-08-19_12h05.45.758,vbt_B1_day2,2022.2.4,MacIntel,60.0024001,,,,,,,,,,,,,,,,,,,,,,,,,,,,,,,,,,,,,,,,,,woning,images/br_woning.png,images/cb_woning.png,,woning,,,,,,,,,,,0.124363471,-0.090172865,1,0,0,woning,0,10,10,10,1
,,,,,,00020,2023-08-19_12h05.45.758,vbt_B1_day2,2022.2.4,MacIntel,60.0024001,,,,,,,,,,,,,,,,,,,,,,,,,,,,,,,,,,,,,,,,,,zegel,images/br_zegel.png,images/cb_zegel.png,,zegel,,,,,,,,,,,-0.043087023,-0.145630222,1,0,0,zegel,0,11,11,46,1
,,,,,,00020,2023-08-19_12h05.45.758,vbt_B1_day2,2022.2.4,MacIntel,60.0024001,,,,,,,,,,,,,,,,,,,,,,,,,,,,,,,,,,,,,,,,,,aanvraag,images/br_aanvraag.png,images/cb_aanvraag.png,,aanvraag,,,,,,,,,,,0.147978312,-0.084931302,1,0,0,aanvraag,0,12,12,57,1
,,,,,,00020,2023-08-19_12h05.45.758,vbt_B1_day2,2022.2.4,MacIntel,60.0024001,,,,,,,,,,,,,,,,,,,,,,,,,,,,,,,,,,,,,,,,,,flits,images/br_flits.png,images/cb_flits.png,,flits,,,,,,,,,,,0.147978312,-0.084931302,1,0,0,flits,0,13,13,4,1
,,,,,,00020,2023-08-19_12h05.45.758,vbt_B1_day2,2022.2.4,MacIntel,60.0024001,,,,,,,,,,,,,,,,,,,,,,,,,,,,,,,,,,,,,,,,,,sifferd,images/br_sifferd.png,images/cb_sifferd.png,,si.er.,,,,,,,,,,,0.046006809,-0.243040771,1,0,0,si.er.,0,14,14,32,1
,,,,,,00020,2023-08-19_12h05.45.758,vbt_B1_day2,2022.2.4,MacIntel,60.0024001,,,,,,,,,,,,,,,,,,,,,,,,,,,,,,,,,,,,,,,,,,geld,images/br_geld.png,images/cb_geld.png,,geld,,,,,,,,,,,0.014958835,-0.094066162,1,0,0,geld,0,15,15,3,1
,,,,,,00020,2023-08-19_12h05.45.758,vbt_B1_day2,2022.2.4,MacIntel,60.0024001,,,,,,,,,,,,,,,,,,,,,,,,,,,,,,,,,,,,,,,,,,breuk,images/br_breuk.png,images/cb_breuk.png,,breuk,,,,,,,,,,,0.014958835,-0.094066162,1,0,0,breuk,0,16,16,45,1
,,,,,,00020,2023-08-19_12h05.45.758,vbt_B1_day2,2022.2.4,MacIntel,60.0024001,,,,,,,,,,,,,,,,,,,,,,,,,,,,,,,,,,,,,,,,,,heengeen,images/br_heengeen.png,images/cb_heengeen.png,,heengeen,,,,,,,,,,,0.094134861,-0.168194173,1,0,0,heengeen,0,17,17,38,1
,,,,,,00020,2023-08-19_12h05.45.758,vbt_B1_day2,2022.2.4,MacIntel,60.0024001,,,,,,,,,,,,,,,,,,,,,,,,,,,,,,,,,,,,,,,,,,toeval,images/br_toeval.png,images/cb_toeval.png,,toeval,,,,,,,,,,,0.057384983,-0.148898383,1,0,0,toeval,0,18,18,11,1
,,,,,,00020,2023-08-19_12h05.45.758,vbt_B1_day2,2022.2.4,MacIntel,60.0024001,,,,,,,,,,,,,,,,,,,,,,,,,,,,,,,,,,,,,,,,,,lijnen,images/br_lijnen.png,images/cb_lijnen.png,,lijnen,,,,,,,,,,,0.153966539,-0.064574992,1,0,0,lijnen,0,19,19,51,1
,,,,,,00020,2023-08-19_12h05.45.758,vbt_B1_day2,2022.2.4,MacIntel,60.0024001,,,,,,,,,,,,,,,,,,,,,,,,,,,,,,,,,,,,,,,,,,thema,images/br_thema.png,images/cb_thema.png,,thema,,,,,,,,,,,-0.016684842,-0.086932373,1,0,0,thema,0,20,20,47,1
,,,,,,00020,2023-08-19_12h05.45.758,vbt_B1_day2,2022.2.4,MacIntel,60.0024001,,,,,,,,,,,,,,,,,,,,,,,,,,,,,,,,,,,,,,,,,,bloeien,images/br_bloeien.png,images/cb_bloeien.png,,bloeien,,,,,,,,,,,0.002103746,-0.208256836,1,0,0,bloeien,0,21,21,12,1
,,,,,,00020,2023-08-19_12h05.45.758,vbt_B1_day2,2022.2.4,MacIntel,60.0024001,,,,,,,,,,,,,,,,,,,,,,,,,,,,,,,,,,,,,,,,,,moes,images/br_moes.png,images/cb_moes.png,,moes,,,,,,,,,,,0.155163167,-0.077745565,1,0,0,moes,0,22,22,0,1
,,,,,,00020,2023-08-19_12h05.45.758,vbt_B1_day2,2022.2.4,MacIntel,60.0024001,,,,,,,,,,,,,,,,,,,,,,,,,,,,,,,,,,,,,,,,,,tweeling,images/br_tweeling.png,images/cb_tweeling.png,,tweeling,,,,,,,,,,,0.155163167,-0.077745565,1,0,0,tweeling,0,23,23,58,1
,,,,,,00020,2023-08-19_12h05.45.758,vbt_B1_day2,2022.2.4,MacIntel,60.0024001,,,,,,,,,,,,,,,,,,,,,,,,,,,,,,,,,,,,,,,,,,trots,images/br_trots.png,images/cb_trots.png,,trots,,,,,,,,,,,-0.08046441,-0.018741455,1,0,0,trots,0,24,24,44,1
,,,,,,00020,2023-08-19_12h05.45.758,vbt_B1_day2,2022.2.4,MacIntel,60.0024001,,,,,,,,,,,,,,,,,,,,,,,,,,,,,,,,,,,,,,,,,,blad,images/br_blad.png,images/cb_blad.png,,blad,,,,,,,,,,,0.043035889,-0.042641602,1,0,0,blad,0,25,25,1,1
,,,,,,00020,2023-08-19_12h05.45.758,vbt_B1_day2,2022.2.4,MacIntel,60.0024001,,,,,,,,,,,,,,,,,,,,,,,,,,,,,,,,,,,,,,,,,,clan,images/br_clan.png,images/cb_clan.png,,clan,,,,,,,,,,,0.105791626,-0.123118896,1,0,0,clan,0,26,26,40,1
,,,,,,00020,2023-08-19_12h05.45.758,vbt_B1_day2,2022.2.4,MacIntel,60.0024001,,,,,,,,,,,,,,,,,,,,,,,,,,,,,,,,,,,,,,,,,,strikken,images/br_strikken.png,images/cb_strikken.png,,strekken,,,,,,,,,,,0.028715142,-0.101430393,1,0,0,strekken,0,27,27,18,1
,,,,,,00020,2023-08-19_12h05.45.758,vbt_B1_day2,2022.2.4,MacIntel,60.0024001,,,,,,,,,,,,,,,,,,,,,,,,,,,,,,,,,,,,,,,,,,kenzis,images/br_kenzis.png,images/cb_kenzis.png,,kenzis,,,,,,,,,,,0.050888943,-0.068951416,1,0,0,kenzis,0,28,28,30,1
,,,,,,00020,2023-08-19_12h05.45.758,vbt_B1_day2,2022.2.4,MacIntel,60.0024001,,,,,,,,,,,,,,,,,,,,,,,,,,,,,,,,,,,,,,,,,,systeem,images/br_systeem.png,images/cb_systeem.png,,systeem,,,,,,,,,,,0.022623834,0.015471225,1,0,0,systeem,0,29,29,54,1
,,,,,,00020,2023-08-19_12h05.45.758,vbt_B1_day2,2022.2.4,MacIntel,60.0024001,,,,,,,,,,,,,,,,,,,,,,,,,,,,,,,,,,,,,,,,,,kasteel,images/br_kasteel.png,images/cb_kasteel.png,,kasteel,,,,,,,,,,,-0.05318434,-0.08251614,1,0,0,kasteel,0,30,30,14,1
,,,,,,00020,2023-08-19_12h05.45.758,vbt_B1_day2,2022.2.4,MacIntel,60.0024001,,,,,,,,,,,,,,,,,,,,,,,,,,,,,,,,,,,,,,,,,,tand,images/br_tand.png,images/cb_tand.png,,tand,,,,,,,,,,,-0.05318434,-0.08251614,1,0,0,tand,0,31,31,42,1
,,,,,,00020,2023-08-19_12h05.45.758,vbt_B1_day2,2022.2.4,MacIntel,60.0024001,,,,,,,,,,,,,,,,,,,,,,,,,,,,,,,,,,,,,,,,,,heilig,images/br_heilig.png,images/cb_heilig.png,,heilig,,,,,,,,,,,0.156797485,0.033863729,1,0,0,heilig,0,32,32,9,1
,,,,,,00020,2023-08-19_12h05.45.758,vbt_B1_day2,2022.2.4,MacIntel,60.0024001,,,,,,,,,,,,,,,,,,,,,,,,,,,,,,,,,,,,,,,,,,diep,images/br_diep.png,images/cb_diep.png,,diep,,,,,,,,,,,0.117969428,-0.086731839,1,0,0,diep,0,33,33,2,1
,,,,,,00020,2023-08-19_12h05.45.758,vbt_B1_day2,2022.2.4,MacIntel,60.0024001,,,,,,,,,,,,,,,,,,,,,,,,,,,,,,,,,,,,,,,,,,inzicht,images/br_inzicht.png,images/cb_inzicht.png,,inzicht,,,,,,,,,,,0.107495117,-0.004900309,1,0,0,inzicht,0,34,34,53,1
,,,,,,00020,2023-08-19_12h05.45.758,vbt_B1_day2,2022.2.4,MacIntel,60.0024001,,,,,,,,,,,,,,,,,,,,,,,,,,,,,,,,,,,,,,,,,,doodmoe,images/br_doodmoe.png,images/cb_doodmoe.png,,doodmoe,,,,,,,,,,,-0.061756049,-0.048333198,1,0,0,doodmoe,0,35,35,15,1
,,,,,,00020,2023-08-19_12h05.45.758,vbt_B1_day2,2022.2.4,MacIntel,60.0024001,,,,,,,,,,,,,,,,,,,,,,,,,,,,,,,,,,,,,,,,,,krimmen,images/br_krimmen.png,images/cb_krimmen.png,,kaim...,,,,,,,,,,,0.051494751,-0.056471863,1,0,0,kaim...,0,36,36,35,1
,,,,,,00020,2023-08-19_12h05.45.758,vbt_B1_day2,2022.2.4,MacIntel,60.0024001,,,,,,,,,,,,,,,,,,,,,,,,,,,,,,,,,,,,,,,,,,agressie,images/br_agressie.png,images/cb_agressie.png,,agressie,,,,,,,,,,,0.130168864,-0.005392422,1,0,0,agressie,0,37,37,59,1
,,,,,,00020,2023-08-19_12h05.45.758,vbt_B1_day2,2022.2.4,MacIntel,60.0024001,,,,,,,,,,,,,,,,,,,,,,,,,,,,,,,,,,,,,,,,,,prekken,images/br_prekken.png,images/cb_prekken.png,,prekken,,,,,,,,,,,-0.03382114,-0.110818685,1,0,0,prekken,0,38,38,34,1
,,,,,,00020,2023-08-19_12h05.45.758,vbt_B1_day2,2022.2.4,MacIntel,60.0024001,,,,,,,,,,,,,,,,,,,,,,,,,,,,,,,,,,,,,,,,,,ningen,images/br_ningen.png,images/cb_ningen.png,,ningen,,,,,,,,,,,0.077980618,-0.083409492,1,0,0,ningen,0,39,39,28,1
,,,,,,00020,2023-08-19_12h05.45.758,vbt_B1_day2,2022.2.4,MacIntel,60.0024001,,,,,,,,,,,,,,,,,,,,,,,,,,,,,,,,,,,,,,,,,,feestdag,images/br_feestdag.png,images/cb_feestdag.png,,jeest...,,,,,,,,,,,0.110500624,0.003314073,1,0,0,jeest...,0,40,40,17,1
,,,,,,00020,2023-08-19_12h05.45.758,vbt_B1_day2,2022.2.4,MacIntel,60.0024001,,,,,,,,,,,,,,,,,,,,,,,,,,,,,,,,,,,,,,,,,,aanzien,images/br_aanzien.png,images/cb_aanzien.png,,aanzien,,,,,,,,,,,-0.019111735,-0.085808377,1,0,0,aanzien,0,41,41,13,1
,,,,,,00020,2023-08-19_12h05.45.758,vbt_B1_day2,2022.2.4,MacIntel,60.0024001,,,,,,,,,,,,,,,,,,,,,,,,,,,,,,,,,,,,,,,,,,goon,images/br_goon.png,images/cb_goon.png,,goon,,,,,,,,,,,-0.019111735,-0.085808377,1,0,0,goon,0,42,42,23,1
,,,,,,00020,2023-08-19_12h05.45.758,vbt_B1_day2,2022.2.4,MacIntel,60.0024001,,,,,,,,,,,,,,,,,,,,,,,,,,,,,,,,,,,,,,,,,,zwager,images/br_zwager.png,images/cb_zwager.png,,zwager,,,,,,,,,,,0.081737671,-0.089166192,1,0,0,zwager,0,43,43,49,1
,,,,,,00020,2023-08-19_12h05.45.758,vbt_B1_day2,2022.2.4,MacIntel,60.0024001,,,,,,,,,,,,,,,,,,,,,,,,,,,,,,,,,,,,,,,,,,anarchie,images/br_anarchie.png,images/cb_anarchie.png,,anarchie,,,,,,,,,,,0.10580485,-0.017286004,1,0,0,anarchie,0,44,44,16,1
,,,,,,00020,2023-08-19_12h05.45.758,vbt_B1_day2,2022.2.4,MacIntel,60.0024001,,,,,,,,,,,,,,,,,,,,,,,,,,,,,,,,,,,,,,,,,,jong,images/br_jong.png,images/cb_jong.png,,dong,,,,,,,,,,,0.08987264,-0.068002794,1,0,0,dong,0,45,45,43,1
,,,,,,00020,2023-08-19_12h05.45.758,vbt_B1_day2,2022.2.4,MacIntel,60.0024001,,,,,,,,,,,,,,,,,,,,,,,,,,,,,,,,,,,,,,,,,,koorts,images/br_koorts.png,images/cb_koorts.png,,koorts,,,,,,,,,,,0.08987264,-0.068002794,1,0,0,koorts,0,46,46,50,1
,,,,,,00020,2023-08-19_12h05.45.758,vbt_B1_day2,2022.2.4,MacIntel,60.0024001,,,,,,,,,,,,,,,,,,,,,,,,,,,,,,,,,,,,,,,,,,ophuimen,images/br_ophuimen.png,images/cb_ophuimen.png,,op.u...,,,,,,,,,,,0.025989176,-0.008524848,1,0,0,op.u...,0,47,47,36,1
,,,,,,00020,2023-08-19_12h05.45.758,vbt_B1_day2,2022.2.4,MacIntel,60.0024001,,,,,,,,,,,,,,,,,,,,,,,,,,,,,,,,,,,,,,,,,,opdatten,images/br_opdatten.png,images/cb_opdatten.png,,opvatten,,,,,,,,,,,0.108745253,-0.002874552,1,0,0,opvatten,0,48,48,37,1
,,,,,,00020,2023-08-19_12h05.45.758,vbt_B1_day2,2022.2.4,MacIntel,60.0024001,,,,,,,,,,,,,,,,,,,,,,,,,,,,,,,,,,,,,,,,,,lokken,images/br_lokken.png,images/cb_lokken.png,,lokken,,,,,,,,,,,0.070998806,-0.093585273,1,0,0,lokken,0,49,49,8,1
,,,,,,00020,2023-08-19_12h05.45.758,vbt_B1_day2,2022.2.4,MacIntel,60.0024001,,,,,,,,,,,,,,,,,,,,,,,,,,,,,,,,,,,,,,,,,,remel,images/br_remel.png,images/cb_remel.png,,remel,,,,,,,,,,,0.070998806,-0.093585273,1,0,0,remel,0,50,50,25,1
,,,,,,00020,2023-08-19_12h05.45.758,vbt_B1_day2,2022.2.4,MacIntel,60.0024001,,,,,,,,,,,,,,,,,,,,,,,,,,,,,,,,,,,,,,,,,,jagen,images/br_jagen.png,images/cb_jagen.png,,dagen,,,,,,,,,,,0.05895874,-0.015420973,1,0,0,dagen,0,51,51,6,1
,,,,,,00020,2023-08-19_12h05.45.758,vbt_B1_day2,2022.2.4,MacIntel,60.0024001,,,,,,,,,,,,,,,,,,,,,,,,,,,,,,,,,,,,,,,,,,kijlen,images/br_kijlen.png,images/cb_kijlen.png,,kidlen,,,,,,,,,,,-0.002798937,-0.031524082,1,0,0,kidlen,0,52,52,31,1
,,,,,,00020,2023-08-19_12h05.45.758,vbt_B1_day2,2022.2.4,MacIntel,60.0024001,,,,,,,,,,,,,,,,,,,,,,,,,,,,,,,,,,,,,,,,,,wijve,images/br_wijve.png,images/cb_wijve.png,,wedui,,,,,,,,,,,-0.002798937,-0.031524082,1,0,0,wedui,0,53,53,27,1
,,,,,,00020,2023-08-19_12h05.45.758,vbt_B1_day2,2022.2.4,MacIntel,60.0024001,,,,,,,,,,,,,,,,,,,,,,,,,,,,,,,,,,,,,,,,,,manieren,images/br_manieren.png,images/cb_manieren.png,,manieren,,,,,,,,,,,-0.002798937,-0.031524082,1,0,0,manieren,0,54,54,56,1
,,,,,,00020,2023-08-19_12h05.45.758,vbt_B1_day2,2022.2.4,MacIntel,60.0024001,,,,,,,,,,,,,,,,,,,,,,,,,,,,,,,,,,,,,,,,,,bereuwen,images/br_bereuwen.png,images/cb_bereuwen.png,,bere..en,,,,,,,,,,,0.108702121,0.023764072,1,0,0,bere..en,0,55,55,39,1
,,,,,,00020,2023-08-19_12h05.45.758,vbt_B1_day2,2022.2.4,MacIntel,60.0024001,,,,,,,,,,,,,,,,,,,,,,,,,,,,,,,,,,,,,,,,,,sora,images/br_sora.png,images/cb_sora.png,,sora,,,,,,,,,,,0.097068007,-0.015215997,1,0,0,sora,0,56,56,22,1
,,,,,,00020,2023-08-19_12h05.45.758,vbt_B1_day2,2022.2.4,MacIntel,60.0024001,,,,,,,,,,,,,,,,,,,,,,,,,,,,,,,,,,,,,,,,,,welzijn,images/br_welzijn.png,images/cb_welzijn.png,,welzijn,,,,,,,,,,,-0.227628377,-0.067617255,1,0,0,welzijn,0,57,57,52,1
,,,,,,00020,2023-08-19_12h05.45.758,vbt_B1_day2,2022.2.4,MacIntel,60.0024001,,,,,,,,,,,,,,,,,,,,,,,,,,,,,,,,,,,,,,,,,,negel,images/br_negel.png,images/cb_negel.png,,negel,,,,,,,,,,,-0.071939087,0.01058275,1,0,0,negel,0,58,58,24,1
,,,,,,00020,2023-08-19_12h05.45.758,vbt_B1_day2,2022.2.4,MacIntel,60.0024001,,,,,,,,,,,,,,,,,,,,,,,,,,,,,,,,,,,,,,,,,,joes,images/br_joes.png,images/cb_joes.png,,does,,,,,,,,,,,-0.0339485,-0.073842909,1,0,0,does,0,59,59,20,1
,,,,,,00020,2023-08-19_12h05.45.758,vbt_B1_day2,2022.2.4,MacIntel,60.0024001,,,,,,,,,,,,,,,,,,,,,,,,,,,,,,,,,,,,,,,,,,,,,,,,,,,,,,,,,,,,,,,,,,,
