welcome_mouse.x,welcome_mouse.y,welcome_mouse.leftButton,welcome_mouse.midButton,welcome_mouse.rightButton,welcome_mouse.time,"ID",date,expName,psychopyVersion,OS,frameRate,refresh_mouse.x,refresh_mouse.y,refresh_mouse.leftButton,refresh_mouse.midButton,refresh_mouse.rightButton,refresh_mouse.time,braille_mouse.x,braille_mouse.y,braille_mouse.leftButton,braille_mouse.midButton,braille_mouse.rightButton,braille_mouse.time,trials.thisRepN,trials.thisTrialN,trials.thisN,trials.thisIndex,trials.ran,nlLet,brLet,cbLet,trainInstr_mouse.x,trainInstr_mouse.y,trainInstr_mouse.leftButton,trainInstr_mouse.midButton,trainInstr_mouse.rightButton,trainInstr_mouse.time,translation_key.keys,translation_key.corr,translation_key.rt,testResp,word_rsp.text,word_mouse.x,word_mouse.y,word_mouse.leftButton,word_mouse.midButton,word_mouse.rightButton,word_mouse.time,train_loop.thisRepN,train_loop.thisTrialN,train_loop.thisN,train_loop.thisIndex,train_loop.ran,nlWrd,brWrd,cbWrd,test,mouse.x,mouse.y,mouse.leftButton,mouse.midButton,mouse.rightButton,testInstr_mouse.x,testInstr_mouse.y,testInstr_mouse.leftButton,testInstr_mouse.midButton,testInstr_mouse.rightButton,test_mouse.x,test_mouse.y,test_mouse.leftButton,test_mouse.midButton,test_mouse.rightButton,test_response.text,test_loop.thisRepN,test_loop.thisTrialN,test_loop.thisN,test_loop.thisIndex,test_loop.ran
-0.066554905,-0.111451348,1,0,0,6.5995,00100,2023-11-09_14h59.34.387,vbt_B1_day2,2022.2.4,MacIntel,60.0024001,,,,,,,,,,,,,,,,,,,,,,,,,,,,,,,,,,,,,,,,,,,,,,,,,,,,,,,,,,,,,,,,,,,
,,,,,,00100,2023-11-09_14h59.34.387,vbt_B1_day2,2022.2.4,MacIntel,60.0024001,0.196172553,-0.115312839,1,0,0,5.9625,,,,,,,,,,,,,,,,,,,,,,,,,,,,,,,,,,,,,,,,,,,,,,,,,,,,,,,,,,,,,
,,,,,,00100,2023-11-09_14h59.34.387,vbt_B1_day2,2022.2.4,MacIntel,60.0024001,,,,,,,0.280507541,0.119326308,1,0,0,1.5669,0,0,0,8,1,i,images/br_i.png,images/cb_i.png,,,,,,,,,,,,,,,,,,,,,,,,,,,,,,,,,,,,,,,,,,,,,,,
,,,,,,00100,2023-11-09_14h59.34.387,vbt_B1_day2,2022.2.4,MacIntel,60.0024001,,,,,,,0.219559055,-0.023119439,1,0,0,0.6676,0,1,1,19,1,t,images/br_t.png,images/cb_t.png,,,,,,,,,,,,,,,,,,,,,,,,,,,,,,,,,,,,,,,,,,,,,,,
,,,,,,00100,2023-11-09_14h59.34.387,vbt_B1_day2,2022.2.4,MacIntel,60.0024001,,,,,,,0.182778456,0.001934136,1,0,0,0.2865,0,2,2,21,1,v,images/br_v.png,images/cb_v.png,,,,,,,,,,,,,,,,,,,,,,,,,,,,,,,,,,,,,,,,,,,,,,,
,,,,,,00100,2023-11-09_14h59.34.387,vbt_B1_day2,2022.2.4,MacIntel,60.0024001,,,,,,,0.230715332,0.051716309,1,0,0,0.3334,0,3,3,13,1,n,images/br_n.png,images/cb_n.png,,,,,,,,,,,,,,,,,,,,,,,,,,,,,,,,,,,,,,,,,,,,,,,
,,,,,,00100,2023-11-09_14h59.34.387,vbt_B1_day2,2022.2.4,MacIntel,60.0024001,,,,,,,0.306226942,0.179138862,1,0,0,0.5661,0,4,4,0,1,a,images/br_a.png,images/cb_a.png,,,,,,,,,,,,,,,,,,,,,,,,,,,,,,,,,,,,,,,,,,,,,,,
,,,,,,00100,2023-11-09_14h59.34.387,vbt_B1_day2,2022.2.4,MacIntel,60.0024001,,,,,,,0.265965712,0.157849969,1,0,0,0.548,0,5,5,4,1,e,images/br_e.png,images/cb_e.png,,,,,,,,,,,,,,,,,,,,,,,,,,,,,,,,,,,,,,,,,,,,,,,
,,,,,,00100,2023-11-09_14h59.34.387,vbt_B1_day2,2022.2.4,MacIntel,60.0024001,,,,,,,0.266812337,0.158891195,1,0,0,3.2803,0,6,6,20,1,u,images/br_u.png,images/cb_u.png,,,,,,,,,,,,,,,,,,,,,,,,,,,,,,,,,,,,,,,,,,,,,,,
,,,,,,00100,2023-11-09_14h59.34.387,vbt_B1_day2,2022.2.4,MacIntel,60.0024001,,,,,,,0.249676785,0.137108527,1,0,0,0.4816,0,7,7,24,1,y,images/br_y.png,images/cb_y.png,,,,,,,,,,,,,,,,,,,,,,,,,,,,,,,,,,,,,,,,,,,,,,,
,,,,,,00100,2023-11-09_14h59.34.387,vbt_B1_day2,2022.2.4,MacIntel,60.0024001,,,,,,,0.248670993,0.13652988,1,0,0,0.6693,0,8,8,16,1,q,images/br_q.png,images/cb_q.png,,,,,,,,,,,,,,,,,,,,,,,,,,,,,,,,,,,,,,,,,,,,,,,
,,,,,,00100,2023-11-09_14h59.34.387,vbt_B1_day2,2022.2.4,MacIntel,60.0024001,,,,,,,0.232611355,0.106388211,1,0,0,1.2373,0,9,9,5,1,f,images/br_f.png,images/cb_f.png,,,,,,,,,,,,,,,,,,,,,,,,,,,,,,,,,,,,,,,,,,,,,,,
,,,,,,00100,2023-11-09_14h59.34.387,vbt_B1_day2,2022.2.4,MacIntel,60.0024001,,,,,,,0.201679891,-0.003412137,1,0,0,0.2847,0,10,10,10,1,k,images/br_k.png,images/cb_k.png,,,,,,,,,,,,,,,,,,,,,,,,,,,,,,,,,,,,,,,,,,,,,,,
,,,,,,00100,2023-11-09_14h59.34.387,vbt_B1_day2,2022.2.4,MacIntel,60.0024001,,,,,,,0.240067749,0.044951104,1,0,0,0.2798,0,11,11,11,1,l,images/br_l.png,images/cb_l.png,,,,,,,,,,,,,,,,,,,,,,,,,,,,,,,,,,,,,,,,,,,,,,,
,,,,,,00100,2023-11-09_14h59.34.387,vbt_B1_day2,2022.2.4,MacIntel,60.0024001,,,,,,,0.218203464,-0.014742839,1,0,0,0.8338,0,12,12,9,1,j,images/br_j.png,images/cb_j.png,,,,,,,,,,,,,,,,,,,,,,,,,,,,,,,,,,,,,,,,,,,,,,,
,,,,,,00100,2023-11-09_14h59.34.387,vbt_B1_day2,2022.2.4,MacIntel,60.0024001,,,,,,,0.216010335,-0.014190131,1,0,0,0.3969,0,13,13,7,1,h,images/br_h.png,images/cb_h.png,,,,,,,,,,,,,,,,,,,,,,,,,,,,,,,,,,,,,,,,,,,,,,,
,,,,,,00100,2023-11-09_14h59.34.387,vbt_B1_day2,2022.2.4,MacIntel,60.0024001,,,,,,,0.245348985,0.127936707,1,0,0,0.8168,0,14,14,23,1,x,images/br_x.png,images/cb_x.png,,,,,,,,,,,,,,,,,,,,,,,,,,,,,,,,,,,,,,,,,,,,,,,
,,,,,,00100,2023-11-09_14h59.34.387,vbt_B1_day2,2022.2.4,MacIntel,60.0024001,,,,,,,0.259456651,0.146353556,1,0,0,0.1642,0,15,15,1,1,b,images/br_b.png,images/cb_b.png,,,,,,,,,,,,,,,,,,,,,,,,,,,,,,,,,,,,,,,,,,,,,,,
,,,,,,00100,2023-11-09_14h59.34.387,vbt_B1_day2,2022.2.4,MacIntel,60.0024001,,,,,,,0.278158366,0.22311398,1,0,0,0.483,0,16,16,14,1,o,images/br_o.png,images/cb_o.png,,,,,,,,,,,,,,,,,,,,,,,,,,,,,,,,,,,,,,,,,,,,,,,
,,,,,,00100,2023-11-09_14h59.34.387,vbt_B1_day2,2022.2.4,MacIntel,60.0024001,,,,,,,0.276079983,0.164964532,1,0,0,0.4175,0,17,17,6,1,g,images/br_g.png,images/cb_g.png,,,,,,,,,,,,,,,,,,,,,,,,,,,,,,,,,,,,,,,,,,,,,,,
,,,,,,00100,2023-11-09_14h59.34.387,vbt_B1_day2,2022.2.4,MacIntel,60.0024001,,,,,,,0.45862915,0.171525167,1,0,0,0.1672,0,18,18,18,1,s,images/br_s.png,images/cb_s.png,,,,,,,,,,,,,,,,,,,,,,,,,,,,,,,,,,,,,,,,,,,,,,,
,,,,,,00100,2023-11-09_14h59.34.387,vbt_B1_day2,2022.2.4,MacIntel,60.0024001,,,,,,,0.45862915,0.171525167,1,0,0,9.2686,0,19,19,3,1,d,images/br_d.png,images/cb_d.png,,,,,,,,,,,,,,,,,,,,,,,,,,,,,,,,,,,,,,,,,,,,,,,
,,,,,,00100,2023-11-09_14h59.34.387,vbt_B1_day2,2022.2.4,MacIntel,60.0024001,,,,,,,0.133076579,0.117279358,1,0,0,7.7174,0,20,20,2,1,c,images/br_c.png,images/cb_c.png,,,,,,,,,,,,,,,,,,,,,,,,,,,,,,,,,,,,,,,,,,,,,,,
,,,,,,00100,2023-11-09_14h59.34.387,vbt_B1_day2,2022.2.4,MacIntel,60.0024001,,,,,,,0.133076579,0.117279358,1,0,0,0.0836,0,21,21,22,1,w,images/br_w.png,images/cb_w.png,,,,,,,,,,,,,,,,,,,,,,,,,,,,,,,,,,,,,,,,,,,,,,,
,,,,,,00100,2023-11-09_14h59.34.387,vbt_B1_day2,2022.2.4,MacIntel,60.0024001,,,,,,,0.197871229,0.202960307,1,0,0,0.1801,0,22,22,15,1,p,images/br_p.png,images/cb_p.png,,,,,,,,,,,,,,,,,,,,,,,,,,,,,,,,,,,,,,,,,,,,,,,
,,,,,,00100,2023-11-09_14h59.34.387,vbt_B1_day2,2022.2.4,MacIntel,60.0024001,,,,,,,0.197871229,0.202960307,1,0,0,2.2819,0,23,23,12,1,m,images/br_m.png,images/cb_m.png,,,,,,,,,,,,,,,,,,,,,,,,,,,,,,,,,,,,,,,,,,,,,,,
,,,,,,00100,2023-11-09_14h59.34.387,vbt_B1_day2,2022.2.4,MacIntel,60.0024001,,,,,,,0.196600003,0.192040202,1,0,0,0.485,0,24,24,25,1,z,images/br_z.png,images/cb_z.png,,,,,,,,,,,,,,,,,,,,,,,,,,,,,,,,,,,,,,,,,,,,,,,
,,,,,,00100,2023-11-09_14h59.34.387,vbt_B1_day2,2022.2.4,MacIntel,60.0024001,,,,,,,0.196600003,0.192040202,1,0,0,0.6996,0,25,25,17,1,r,images/br_r.png,images/cb_r.png,,,,,,,,,,,,,,,,,,,,,,,,,,,,,,,,,,,,,,,,,,,,,,,
,,,,,,00100,2023-11-09_14h59.34.387,vbt_B1_day2,2022.2.4,MacIntel,60.0024001,,,,,,,,,,,,,,,,,,,,,0.196600003,0.192040202,1,0,0,15.3688,,,,,,,,,,,,,,,,,,,,,,,,,,,,,,,,,,,,,,,,,
,,,,,,00100,2023-11-09_14h59.34.387,vbt_B1_day2,2022.2.4,MacIntel,60.0024001,,,,,,,,,,,,,,,,,,,,,,,,,,,down,0,14.1337,waarbij,,0.204868232,0.067412177,1,0,0,11.3173,0,0,0,136,1,waarbij,images/br_waarbij.png,images/cb_waarbij.png,1,,,,,,,,,,,,,,,,,,,,,
,,,,,,00100,2023-11-09_14h59.34.387,vbt_B1_day2,2022.2.4,MacIntel,60.0024001,,,,,,,,,,,,,,,,,,,,,,,,,,,down,0,16.3187,,,0.199738566,0.140832045,1,0,0,2.6193,0,1,1,141,1,knielen,images/br_knielen.png,images/cb_knielen.png,0,,,,,,,,,,,,,,,,,,,,,
,,,,,,00100,2023-11-09_14h59.34.387,vbt_B1_day2,2022.2.4,MacIntel,60.0024001,,,,,,,,,,,,,,,,,,,,,,,,,,,down,0,3.9187,,,0.204014418,0.06760671,1,0,0,5.8012,0,2,2,6,1,diep,images/br_diep.png,images/cb_diep.png,0,,,,,,,,,,,,,,,,,,,,,
,,,,,,00100,2023-11-09_14h59.34.387,vbt_B1_day2,2022.2.4,MacIntel,60.0024001,,,,,,,,,,,,,,,,,,,,,,,,,,,down,0,8.9558,,,0.204014418,0.06760671,1,0,0,0.984,0,3,3,83,1,mening,images/br_mening.png,images/cb_mening.png,0,,,,,,,,,,,,,,,,,,,,,
,,,,,,00100,2023-11-09_14h59.34.387,vbt_B1_day2,2022.2.4,MacIntel,60.0024001,,,,,,,,,,,,,,,,,,,,,,,,,,,down,0,8.8749,,,0.204014418,0.06760671,1,0,0,0.9826,0,4,4,110,1,zuster,images/br_zuster.png,images/cb_zuster.png,0,,,,,,,,,,,,,,,,,,,,,
,,,,,,00100,2023-11-09_14h59.34.387,vbt_B1_day2,2022.2.4,MacIntel,60.0024001,,,,,,,,,,,,,,,,,,,,,,,,,,,down,0,9.7684,,,0.204014418,0.06760671,1,0,0,0.6483,0,5,5,187,1,opkijken,images/br_opkijken.png,images/cb_opkijken.png,0,,,,,,,,,,,,,,,,,,,,,
,,,,,,00100,2023-11-09_14h59.34.387,vbt_B1_day2,2022.2.4,MacIntel,60.0024001,,,,,,,,,,,,,,,,,,,,,,,,,,,down,0,10.1531,,,0.204014418,0.06760671,1,0,0,0.7342,0,6,6,135,1,gedicht,images/br_gedicht.png,images/cb_gedicht.png,0,,,,,,,,,,,,,,,,,,,,,
,,,,,,00100,2023-11-09_14h59.34.387,vbt_B1_day2,2022.2.4,MacIntel,60.0024001,,,,,,,,,,,,,,,,,,,,,,,,,,,down,0,14.1952,,,0.204014418,0.06760671,1,0,0,0.7485,0,7,7,107,1,maling,images/br_maling.png,images/cb_maling.png,0,,,,,,,,,,,,,,,,,,,,,
,,,,,,00100,2023-11-09_14h59.34.387,vbt_B1_day2,2022.2.4,MacIntel,60.0024001,,,,,,,,,,,,,,,,,,,,,,,,,,,down,0,14.6991,,,0.204014418,0.06760671,1,0,0,0.5342,0,8,8,129,1,verhaal,images/br_verhaal.png,images/cb_verhaal.png,0,,,,,,,,,,,,,,,,,,,,,
,,,,,,00100,2023-11-09_14h59.34.387,vbt_B1_day2,2022.2.4,MacIntel,60.0024001,,,,,,,,,,,,,,,,,,,,,,,,,,,down,0,12.7173,,,0.204014418,0.06760671,1,0,0,0.7017,0,9,9,182,1,bijkomen,images/br_bijkomen.png,images/cb_bijkomen.png,0,,,,,,,,,,,,,,,,,,,,,
,,,,,,00100,2023-11-09_14h59.34.387,vbt_B1_day2,2022.2.4,MacIntel,60.0024001,,,,,,,,,,,,,,,,,,,,,,,,,,,down,0,10.1741,woestijn,,0.156154175,0.129820896,1,0,0,2.3003,0,10,10,179,1,woestijn,images/br_woestijn.png,images/cb_woestijn.png,1,,,,,,,,,,,,,,,,,,,,,
,,,,,,00100,2023-11-09_14h59.34.387,vbt_B1_day2,2022.2.4,MacIntel,60.0024001,,,,,,,,,,,,,,,,,,,,,,,,,,,down,0,9.9834,akkoord,,0.235100776,0.051398688,1,0,0,2.4164,0,11,11,138,1,akkoord,images/br_akkoord.png,images/cb_akkoord.png,1,,,,,,,,,,,,,,,,,,,,,
,,,,,,00100,2023-11-09_14h59.34.387,vbt_B1_day2,2022.2.4,MacIntel,60.0024001,,,,,,,,,,,,,,,,,,,,,,,,,,,down,0,14.2223,,,0.258454454,-0.009363675,1,0,0,1.4346,0,12,12,104,1,zweven,images/br_zweven.png,images/cb_zweven.png,0,,,,,,,,,,,,,,,,,,,,,
,,,,,,00100,2023-11-09_14h59.34.387,vbt_B1_day2,2022.2.4,MacIntel,60.0024001,,,,,,,,,,,,,,,,,,,,,,,,,,,down,0,12.9383,,,0.19711141,-0.004421726,1,0,0,0.6498,0,13,13,186,1,voorraad,images/br_voorraad.png,images/cb_voorraad.png,0,,,,,,,,,,,,,,,,,,,,,
,,,,,,00100,2023-11-09_14h59.34.387,vbt_B1_day2,2022.2.4,MacIntel,60.0024001,,,,,,,,,,,,,,,,,,,,,,,,,,,down,0,6.9161,,,0.165903117,-0.058500434,1,0,0,0.4494,0,14,14,78,1,leren,images/br_leren.png,images/cb_leren.png,0,,,,,,,,,,,,,,,,,,,,,
,,,,,,00100,2023-11-09_14h59.34.387,vbt_B1_day2,2022.2.4,MacIntel,60.0024001,,,,,,,,,,,,,,,,,,,,,,,,,,,down,0,3.3518,,,-0.112542996,-0.141001858,1,0,0,0.5499,0,15,15,25,1,plek,images/br_plek.png,images/cb_plek.png,0,,,,,,,,,,,,,,,,,,,,,
,,,,,,00100,2023-11-09_14h59.34.387,vbt_B1_day2,2022.2.4,MacIntel,60.0024001,,,,,,,,,,,,,,,,,,,,,,,,,,,down,0,6.2547,,,-0.184667765,-0.006162279,1,0,0,0.5329,0,16,16,105,1,wijlen,images/br_wijlen.png,images/cb_wijlen.png,0,,,,,,,,,,,,,,,,,,,,,
,,,,,,00100,2023-11-09_14h59.34.387,vbt_B1_day2,2022.2.4,MacIntel,60.0024001,,,,,,,,,,,,,,,,,,,,,,,,,,,down,0,4.785,,,-0.112951796,-0.112383219,1,0,0,0.4312,0,17,17,115,1,kleren,images/br_kleren.png,images/cb_kleren.png,0,,,,,,,,,,,,,,,,,,,,,
,,,,,,00100,2023-11-09_14h59.34.387,vbt_B1_day2,2022.2.4,MacIntel,60.0024001,,,,,,,,,,,,,,,,,,,,,,,,,,,down,0,6.5488,,,0.159302572,-0.035448947,1,0,0,0.5344,0,18,18,82,1,muziek,images/br_muziek.png,images/cb_muziek.png,0,,,,,,,,,,,,,,,,,,,,,
,,,,,,00100,2023-11-09_14h59.34.387,vbt_B1_day2,2022.2.4,MacIntel,60.0024001,,,,,,,,,,,,,,,,,,,,,,,,,,,down,0,8.6202,,,0.101564874,-0.07713406,1,0,0,0.4524,0,19,19,80,1,kanjer,images/br_kanjer.png,images/cb_kanjer.png,0,,,,,,,,,,,,,,,,,,,,,
,,,,,,00100,2023-11-09_14h59.34.387,vbt_B1_day2,2022.2.4,MacIntel,60.0024001,,,,,,,,,,,,,,,,,,,,,,,,,,,down,0,3.2066,traag,,0.628772786,0.043493924,1,0,0,0.5861,0,20,20,56,1,traag,images/br_traag.png,images/cb_traag.png,1,,,,,,,,,,,,,,,,,,,,,
,,,,,,00100,2023-11-09_14h59.34.387,vbt_B1_day2,2022.2.4,MacIntel,60.0024001,,,,,,,,,,,,,,,,,,,,,,,,,,,down,0,3.6674,,,-0.02952535,0.066300998,1,0,0,0.4344,0,21,21,50,1,stoom,images/br_stoom.png,images/cb_stoom.png,0,,,,,,,,,,,,,,,,,,,,,
,,,,,,00100,2023-11-09_14h59.34.387,vbt_B1_day2,2022.2.4,MacIntel,60.0024001,,,,,,,,,,,,,,,,,,,,,,,,,,,down,0,8.6897,,,-0.022195774,0.031058282,1,0,0,0.4479,0,22,22,91,1,gezond,images/br_gezond.png,images/cb_gezond.png,0,,,,,,,,,,,,,,,,,,,,,
,,,,,,00100,2023-11-09_14h59.34.387,vbt_B1_day2,2022.2.4,MacIntel,60.0024001,,,,,,,,,,,,,,,,,,,,,,,,,,,down,0,2.9865,,,0.207572971,-0.028833686,1,0,0,0.4494,0,23,23,33,1,vlek,images/br_vlek.png,images/cb_vlek.png,0,,,,,,,,,,,,,,,,,,,,,
,,,,,,00100,2023-11-09_14h59.34.387,vbt_B1_day2,2022.2.4,MacIntel,60.0024001,,,,,,,,,,,,,,,,,,,,,,,,,,,down,0,6.0561,loyaal,,0.108537733,0.010540025,1,0,0,0.6991,0,24,24,97,1,loyaal,images/br_loyaal.png,images/cb_loyaal.png,1,,,,,,,,,,,,,,,,,,,,,
,,,,,,00100,2023-11-09_14h59.34.387,vbt_B1_day2,2022.2.4,MacIntel,60.0024001,,,,,,,,,,,,,,,,,,,,,,,,,,,down,0,7.3828,,,0.410159912,-0.120878906,1,0,0,0.3835,0,25,25,12,1,kust,images/br_kust.png,images/cb_kust.png,0,,,,,,,,,,,,,,,,,,,,,
,,,,,,00100,2023-11-09_14h59.34.387,vbt_B1_day2,2022.2.4,MacIntel,60.0024001,,,,,,,,,,,,,,,,,,,,,,,,,,,down,0,6.4399,,,0.091711426,-0.08558336,1,0,0,0.4823,0,26,26,169,1,oprotten,images/br_oprotten.png,images/cb_oprotten.png,0,,,,,,,,,,,,,,,,,,,,,
,,,,,,00100,2023-11-09_14h59.34.387,vbt_B1_day2,2022.2.4,MacIntel,60.0024001,,,,,,,,,,,,,,,,,,,,,,,,,,,down,0,6.6012,,,0.126164483,-0.032990384,1,0,0,0.4648,0,27,27,128,1,prikken,images/br_prikken.png,images/cb_prikken.png,0,,,,,,,,,,,,,,,,,,,,,
,,,,,,00100,2023-11-09_14h59.34.387,vbt_B1_day2,2022.2.4,MacIntel,60.0024001,,,,,,,,,,,,,,,,,,,,,,,,,,,down,0,2.3334,,,0.170328776,0.004540473,1,0,0,0.4332,0,28,28,28,1,stal,images/br_stal.png,images/cb_stal.png,0,,,,,,,,,,,,,,,,,,,,,
,,,,,,00100,2023-11-09_14h59.34.387,vbt_B1_day2,2022.2.4,MacIntel,60.0024001,,,,,,,,,,,,,,,,,,,,,,,,,,,down,0,15.0945,,,0.003338759,-0.059467299,1,0,0,0.3982,0,29,29,94,1,oceaan,images/br_oceaan.png,images/cb_oceaan.png,0,,,,,,,,,,,,,,,,,,,,,
,,,,,,00100,2023-11-09_14h59.34.387,vbt_B1_day2,2022.2.4,MacIntel,60.0024001,,,,,,,,,,,,,,,,,,,,,,,,,,,down,0,7.6579,,,0.051183133,-0.089398058,1,0,0,0.5171,0,30,30,119,1,liefje,images/br_liefje.png,images/cb_liefje.png,0,,,,,,,,,,,,,,,,,,,,,
,,,,,,00100,2023-11-09_14h59.34.387,vbt_B1_day2,2022.2.4,MacIntel,60.0024001,,,,,,,,,,,,,,,,,,,,,,,,,,,down,0,3.1211,,,0.140358412,-0.078115845,1,0,0,0.7002,0,31,31,45,1,piste,images/br_piste.png,images/cb_piste.png,0,,,,,,,,,,,,,,,,,,,,,
,,,,,,00100,2023-11-09_14h59.34.387,vbt_B1_day2,2022.2.4,MacIntel,60.0024001,,,,,,,,,,,,,,,,,,,,,,,,,,,down,0,12.2176,,,0.047039659,-0.090967543,1,0,0,0.5675,0,32,32,174,1,stemming,images/br_stemming.png,images/cb_stemming.png,0,,,,,,,,,,,,,,,,,,,,,
,,,,,,00100,2023-11-09_14h59.34.387,vbt_B1_day2,2022.2.4,MacIntel,60.0024001,,,,,,,,,,,,,,,,,,,,,,,,,,,down,0,15.0016,,,0.206824205,-0.05529853,1,0,0,0.5031,0,33,33,143,1,hechten,images/br_hechten.png,images/cb_hechten.png,0,,,,,,,,,,,,,,,,,,,,,
,,,,,,00100,2023-11-09_14h59.34.387,vbt_B1_day2,2022.2.4,MacIntel,60.0024001,,,,,,,,,,,,,,,,,,,,,,,,,,,down,0,3.0835,,,0.1578125,-0.008831855,1,0,0,0.4144,0,34,34,101,1,staren,images/br_staren.png,images/cb_staren.png,0,,,,,,,,,,,,,,,,,,,,,
,,,,,,00100,2023-11-09_14h59.34.387,vbt_B1_day2,2022.2.4,MacIntel,60.0024001,,,,,,,,,,,,,,,,,,,,,,,,,,,down,0,13.1566,,,0.207603828,-0.069053277,1,0,0,0.416,0,35,35,140,1,blijven,images/br_blijven.png,images/cb_blijven.png,0,,,,,,,,,,,,,,,,,,,,,
,,,,,,00100,2023-11-09_14h59.34.387,vbt_B1_day2,2022.2.4,MacIntel,60.0024001,,,,,,,,,,,,,,,,,,,,,,,,,,,down,0,14.3377,,,0.363452962,0.09210673,1,0,0,0.4532,0,36,36,185,1,mijnheer,images/br_mijnheer.png,images/cb_mijnheer.png,0,,,,,,,,,,,,,,,,,,,,,
,,,,,,00100,2023-11-09_14h59.34.387,vbt_B1_day2,2022.2.4,MacIntel,60.0024001,,,,,,,,,,,,,,,,,,,,,,,,,,,down,0,5.0022,,,0.17438402,-0.078317329,1,0,0,0.4167,0,37,37,73,1,volop,images/br_volop.png,images/cb_volop.png,0,,,,,,,,,,,,,,,,,,,,,
,,,,,,00100,2023-11-09_14h59.34.387,vbt_B1_day2,2022.2.4,MacIntel,60.0024001,,,,,,,,,,,,,,,,,,,,,,,,,,,down,0,4.9613,,,0.103521932,-0.109696927,1,0,0,0.5678,0,38,38,87,1,toeval,images/br_toeval.png,images/cb_toeval.png,0,,,,,,,,,,,,,,,,,,,,,
,,,,,,00100,2023-11-09_14h59.34.387,vbt_B1_day2,2022.2.4,MacIntel,60.0024001,,,,,,,,,,,,,,,,,,,,,,,,,,,down,0,1.5046,,,0.368688151,-0.080301039,1,0,0,0.4487,0,39,39,2,1,jaar,images/br_jaar.png,images/cb_jaar.png,0,,,,,,,,,,,,,,,,,,,,,
,,,,,,00100,2023-11-09_14h59.34.387,vbt_B1_day2,2022.2.4,MacIntel,60.0024001,,,,,,,,,,,,,,,,,,,,,,,,,,,down,0,11.2886,,,0.394973687,-0.0921521,1,0,0,0.6179,0,40,40,108,1,excuus,images/br_excuus.png,images/cb_excuus.png,0,,,,,,,,,,,,,,,,,,,,,
,,,,,,00100,2023-11-09_14h59.34.387,vbt_B1_day2,2022.2.4,MacIntel,60.0024001,,,,,,,,,,,,,,,,,,,,,,,,,,,down,0,3.1654,,,0.221879476,0.026599257,1,0,0,0.4484,0,41,41,51,1,samen,images/br_samen.png,images/cb_samen.png,0,,,,,,,,,,,,,,,,,,,,,
,,,,,,00100,2023-11-09_14h59.34.387,vbt_B1_day2,2022.2.4,MacIntel,60.0024001,,,,,,,,,,,,,,,,,,,,,,,,,,,down,0,9.7043,,,0.225704617,-0.089515652,1,0,0,0.3988,0,42,42,86,1,woning,images/br_woning.png,images/cb_woning.png,0,,,,,,,,,,,,,,,,,,,,,
,,,,,,00100,2023-11-09_14h59.34.387,vbt_B1_day2,2022.2.4,MacIntel,60.0024001,,,,,,,,,,,,,,,,,,,,,,,,,,,down,0,5.3707,,,0.225704617,-0.089515652,1,0,0,0.3652,0,43,43,102,1,legaal,images/br_legaal.png,images/cb_legaal.png,0,,,,,,,,,,,,,,,,,,,,,
,,,,,,00100,2023-11-09_14h59.34.387,vbt_B1_day2,2022.2.4,MacIntel,60.0024001,,,,,,,,,,,,,,,,,,,,,,,,,,,down,0,2.7053,,,0.438074002,-0.026178792,1,0,0,0.5667,0,44,44,109,1,totaal,images/br_totaal.png,images/cb_totaal.png,0,,,,,,,,,,,,,,,,,,,,,
,,,,,,00100,2023-11-09_14h59.34.387,vbt_B1_day2,2022.2.4,MacIntel,60.0024001,,,,,,,,,,,,,,,,,,,,,,,,,,,down,0,4.433,,,0.118447537,-0.069005127,1,0,0,0.4373,0,45,45,146,1,opkomen,images/br_opkomen.png,images/cb_opkomen.png,0,,,,,,,,,,,,,,,,,,,,,
,,,,,,00100,2023-11-09_14h59.34.387,vbt_B1_day2,2022.2.4,MacIntel,60.0024001,,,,,,,,,,,,,,,,,,,,,,,,,,,down,0,9.3491,,,0.153005981,-0.017795648,1,0,0,0.449,0,46,46,194,1,driemaal,images/br_driemaal.png,images/cb_driemaal.png,0,,,,,,,,,,,,,,,,,,,,,
,,,,,,00100,2023-11-09_14h59.34.387,vbt_B1_day2,2022.2.4,MacIntel,60.0024001,,,,,,,,,,,,,,,,,,,,,,,,,,,down,0,1.7852,,,0.153005981,-0.017795648,1,0,0,0.4183,0,47,47,29,1,baas,images/br_baas.png,images/cb_baas.png,0,,,,,,,,,,,,,,,,,,,,,
,,,,,,00100,2023-11-09_14h59.34.387,vbt_B1_day2,2022.2.4,MacIntel,60.0024001,,,,,,,,,,,,,,,,,,,,,,,,,,,down,0,2.4868,,,0.153005981,-0.017795648,1,0,0,0.4146,0,48,48,5,1,blad,images/br_blad.png,images/cb_blad.png,0,,,,,,,,,,,,,,,,,,,,,
,,,,,,00100,2023-11-09_14h59.34.387,vbt_B1_day2,2022.2.4,MacIntel,60.0024001,,,,,,,,,,,,,,,,,,,,,,,,,,,down,0,4.6836,,,0.153005981,-0.017795648,1,0,0,0.4494,0,49,49,55,1,praat,images/br_praat.png,images/cb_praat.png,0,,,,,,,,,,,,,,,,,,,,,
,,,,,,00100,2023-11-09_14h59.34.387,vbt_B1_day2,2022.2.4,MacIntel,60.0024001,,,,,,,,,,,,,,,,,,,,,,,,,,,down,0,6.5561,,,0.153005981,-0.017795648,1,0,0,0.6696,0,50,50,130,1,keihard,images/br_keihard.png,images/cb_keihard.png,0,,,,,,,,,,,,,,,,,,,,,
,,,,,,00100,2023-11-09_14h59.34.387,vbt_B1_day2,2022.2.4,MacIntel,60.0024001,,,,,,,,,,,,,,,,,,,,,,,,,,,down,0,2.9379,,,0.153005981,-0.017795648,1,0,0,0.5492,0,51,51,84,1,lokken,images/br_lokken.png,images/cb_lokken.png,0,,,,,,,,,,,,,,,,,,,,,
,,,,,,00100,2023-11-09_14h59.34.387,vbt_B1_day2,2022.2.4,MacIntel,60.0024001,,,,,,,,,,,,,,,,,,,,,,,,,,,down,0,7.2724,,,0.153005981,-0.017795648,1,0,0,0.4671,0,52,52,111,1,ticket,images/br_ticket.png,images/cb_ticket.png,0,,,,,,,,,,,,,,,,,,,,,
,,,,,,00100,2023-11-09_14h59.34.387,vbt_B1_day2,2022.2.4,MacIntel,60.0024001,,,,,,,,,,,,,,,,,,,,,,,,,,,down,0,1.6522,,,0.122433675,-0.01470615,1,0,0,0.5474,0,53,53,36,1,vuur,images/br_vuur.png,images/cb_vuur.png,0,,,,,,,,,,,,,,,,,,,,,
,,,,,,00100,2023-11-09_14h59.34.387,vbt_B1_day2,2022.2.4,MacIntel,60.0024001,,,,,,,,,,,,,,,,,,,,,,,,,,,down,0,5.9045,kring,,0.376768121,-0.005701294,1,0,0,0.6786,0,54,54,59,1,kring,images/br_kring.png,images/cb_kring.png,1,,,,,,,,,,,,,,,,,,,,,
,,,,,,00100,2023-11-09_14h59.34.387,vbt_B1_day2,2022.2.4,MacIntel,60.0024001,,,,,,,,,,,,,,,,,,,,,,,,,,,down,0,1.3324,taal,,0.268255751,-0.054836121,1,0,0,0.4982,0,55,55,17,1,taal,images/br_taal.png,images/cb_taal.png,1,,,,,,,,,,,,,,,,,,,,,
,,,,,,00100,2023-11-09_14h59.34.387,vbt_B1_day2,2022.2.4,MacIntel,60.0024001,,,,,,,,,,,,,,,,,,,,,,,,,,,down,0,2.0658,geit,,0.365915663,-0.093816867,1,0,0,0.4506,0,56,56,19,1,geit,images/br_geit.png,images/cb_geit.png,1,,,,,,,,,,,,,,,,,,,,,
,,,,,,00100,2023-11-09_14h59.34.387,vbt_B1_day2,2022.2.4,MacIntel,60.0024001,,,,,,,,,,,,,,,,,,,,,,,,,,,down,0,1.6796,,,0.362671034,-0.08672682,1,0,0,0.4379,0,57,57,10,1,leek,images/br_leek.png,images/cb_leek.png,0,,,,,,,,,,,,,,,,,,,,,
,,,,,,00100,2023-11-09_14h59.34.387,vbt_B1_day2,2022.2.4,MacIntel,60.0024001,,,,,,,,,,,,,,,,,,,,,,,,,,,down,0,13.9837,,,0.3113876,-0.110367567,1,0,0,0.3495,0,58,58,145,1,invloed,images/br_invloed.png,images/cb_invloed.png,0,,,,,,,,,,,,,,,,,,,,,
,,,,,,00100,2023-11-09_14h59.34.387,vbt_B1_day2,2022.2.4,MacIntel,60.0024001,,,,,,,,,,,,,,,,,,,,,,,,,,,down,0,4.6992,,,0.3113876,-0.110367567,1,0,0,0.3507,0,59,59,38,1,baai,images/br_baai.png,images/cb_baai.png,0,,,,,,,,,,,,,,,,,,,,,
,,,,,,00100,2023-11-09_14h59.34.387,vbt_B1_day2,2022.2.4,MacIntel,60.0024001,,,,,,,,,,,,,,,,,,,,,,,,,,,down,0,5.1002,,,0.3113876,-0.110367567,1,0,0,0.3834,0,60,60,24,1,jurk,images/br_jurk.png,images/cb_jurk.png,0,,,,,,,,,,,,,,,,,,,,,
,,,,,,00100,2023-11-09_14h59.34.387,vbt_B1_day2,2022.2.4,MacIntel,60.0024001,,,,,,,,,,,,,,,,,,,,,,,,,,,down,0,5.2014,,,0.3113876,-0.122315945,1,0,0,0.4357,0,61,61,4,1,moes,images/br_moes.png,images/cb_moes.png,0,,,,,,,,,,,,,,,,,,,,,
,,,,,,00100,2023-11-09_14h59.34.387,vbt_B1_day2,2022.2.4,MacIntel,60.0024001,,,,,,,,,,,,,,,,,,,,,,,,,,,down,0,11.4227,,,0.274871216,-0.210581258,1,0,0,0.4683,0,62,62,30,1,uien,images/br_uien.png,images/cb_uien.png,0,,,,,,,,,,,,,,,,,,,,,
,,,,,,00100,2023-11-09_14h59.34.387,vbt_B1_day2,2022.2.4,MacIntel,60.0024001,,,,,,,,,,,,,,,,,,,,,,,,,,,down,0,5.2523,,,0.274871216,-0.210581258,1,0,0,0.3832,0,63,63,60,1,jasje,images/br_jasje.png,images/cb_jasje.png,0,,,,,,,,,,,,,,,,,,,,,
,,,,,,00100,2023-11-09_14h59.34.387,vbt_B1_day2,2022.2.4,MacIntel,60.0024001,,,,,,,,,,,,,,,,,,,,,,,,,,,down,0,8.4904,,,0.274871216,-0.210581258,1,0,0,0.3833,0,64,64,127,1,doodmoe,images/br_doodmoe.png,images/cb_doodmoe.png,0,,,,,,,,,,,,,,,,,,,,,
,,,,,,00100,2023-11-09_14h59.34.387,vbt_B1_day2,2022.2.4,MacIntel,60.0024001,,,,,,,,,,,,,,,,,,,,,,,,,,,down,0,8.5024,,,0.274871216,-0.210581258,1,0,0,0.4188,0,65,65,168,1,bisschop,images/br_bisschop.png,images/cb_bisschop.png,0,,,,,,,,,,,,,,,,,,,,,
,,,,,,00100,2023-11-09_14h59.34.387,vbt_B1_day2,2022.2.4,MacIntel,60.0024001,,,,,,,,,,,,,,,,,,,,,,,,,,,down,0,12.5389,huisdier,,0.212965291,-0.167368571,1,0,0,0.7839,0,66,66,178,1,huisdier,images/br_huisdier.png,images/cb_huisdier.png,1,,,,,,,,,,,,,,,,,,,,,
,,,,,,00100,2023-11-09_14h59.34.387,vbt_B1_day2,2022.2.4,MacIntel,60.0024001,,,,,,,,,,,,,,,,,,,,,,,,,,,down,0,6.5679,,,0.212965291,-0.167368571,1,0,0,0.4165,0,67,67,133,1,seizoen,images/br_seizoen.png,images/cb_seizoen.png,0,,,,,,,,,,,,,,,,,,,,,
,,,,,,00100,2023-11-09_14h59.34.387,vbt_B1_day2,2022.2.4,MacIntel,60.0024001,,,,,,,,,,,,,,,,,,,,,,,,,,,down,0,9.5037,,,0.212965291,-0.167368571,1,0,0,0.6035,0,68,68,159,1,sufferd,images/br_sufferd.png,images/cb_sufferd.png,0,,,,,,,,,,,,,,,,,,,,,
,,,,,,00100,2023-11-09_14h59.34.387,vbt_B1_day2,2022.2.4,MacIntel,60.0024001,,,,,,,,,,,,,,,,,,,,,,,,,,,down,0,20.1172,,,0.52538425,0.112607761,1,0,0,0.4172,0,69,69,165,1,feestdag,images/br_feestdag.png,images/cb_feestdag.png,0,,,,,,,,,,,,,,,,,,,,,
,,,,,,00100,2023-11-09_14h59.34.387,vbt_B1_day2,2022.2.4,MacIntel,60.0024001,,,,,,,,,,,,,,,,,,,,,,,,,,,down,0,6.3546,,,0.52538425,0.112607761,1,0,0,0.4231,0,70,70,75,1,snoep,images/br_snoep.png,images/cb_snoep.png,0,,,,,,,,,,,,,,,,,,,,,
,,,,,,00100,2023-11-09_14h59.34.387,vbt_B1_day2,2022.2.4,MacIntel,60.0024001,,,,,,,,,,,,,,,,,,,,,,,,,,,down,0,20.289,,,0.52538425,0.112607761,1,0,0,0.6324,0,71,71,167,1,eenhoorn,images/br_eenhoorn.png,images/cb_eenhoorn.png,0,,,,,,,,,,,,,,,,,,,,,
,,,,,,00100,2023-11-09_14h59.34.387,vbt_B1_day2,2022.2.4,MacIntel,60.0024001,,,,,,,,,,,,,,,,,,,,,,,,,,,down,0,5.907,,,0.52538425,0.112607761,1,0,0,0.484,0,72,72,14,1,rijp,images/br_rijp.png,images/cb_rijp.png,0,,,,,,,,,,,,,,,,,,,,,
,,,,,,00100,2023-11-09_14h59.34.387,vbt_B1_day2,2022.2.4,MacIntel,60.0024001,,,,,,,,,,,,,,,,,,,,,,,,,,,down,0,2.4618,steeg,,0.52538425,0.112607761,1,0,0,0.481,0,73,73,57,1,steek,images/br_steek.png,images/cb_steek.png,1,,,,,,,,,,,,,,,,,,,,,
,,,,,,00100,2023-11-09_14h59.34.387,vbt_B1_day2,2022.2.4,MacIntel,60.0024001,,,,,,,,,,,,,,,,,,,,,,,,,,,down,0,19.0704,,,0.52538425,0.112607761,1,0,0,0.3866,0,74,74,121,1,twijfel,images/br_twijfel.png,images/cb_twijfel.png,0,,,,,,,,,,,,,,,,,,,,,
,,,,,,00100,2023-11-09_14h59.34.387,vbt_B1_day2,2022.2.4,MacIntel,60.0024001,,,,,,,,,,,,,,,,,,,,,,,,,,,down,0,5.519,,,0.52538425,0.108423665,1,0,0,0.6157,0,75,75,42,1,bleek,images/br_bleek.png,images/cb_bleek.png,0,,,,,,,,,,,,,,,,,,,,,
,,,,,,00100,2023-11-09_14h59.34.387,vbt_B1_day2,2022.2.4,MacIntel,60.0024001,,,,,,,,,,,,,,,,,,,,,,,,,,,down,0,15.04,,,0.676709798,0.158474596,1,0,0,0.4499,0,76,76,149,1,redding,images/br_redding.png,images/cb_redding.png,0,,,,,,,,,,,,,,,,,,,,,
,,,,,,00100,2023-11-09_14h59.34.387,vbt_B1_day2,2022.2.4,MacIntel,60.0024001,,,,,,,,,,,,,,,,,,,,,,,,,,,down,0,5.9372,,,0.642447645,0.124152662,1,0,0,2.1664,0,77,77,113,1,koppen,images/br_koppen.png,images/cb_koppen.png,0,,,,,,,,,,,,,,,,,,,,,
,,,,,,00100,2023-11-09_14h59.34.387,vbt_B1_day2,2022.2.4,MacIntel,60.0024001,,,,,,,,,,,,,,,,,,,,,,,,,,,down,0,3.8372,,,0.642447645,0.124152662,1,0,0,0.4485,0,78,78,93,1,waarop,images/br_waarop.png,images/cb_waarop.png,0,,,,,,,,,,,,,,,,,,,,,
,,,,,,00100,2023-11-09_14h59.34.387,vbt_B1_day2,2022.2.4,MacIntel,60.0024001,,,,,,,,,,,,,,,,,,,,,,,,,,,down,0,3.901,,,0.642447645,0.124152662,1,0,0,0.4332,0,79,79,103,1,joggen,images/br_joggen.png,images/cb_joggen.png,0,,,,,,,,,,,,,,,,,,,,,
,,,,,,00100,2023-11-09_14h59.34.387,vbt_B1_day2,2022.2.4,MacIntel,60.0024001,,,,,,,,,,,,,,,,,,,,,,,,,,,down,0,5.1495,,,0.642447645,0.124152662,1,0,0,0.4168,0,80,80,74,1,graaf,images/br_graaf.png,images/cb_graaf.png,0,,,,,,,,,,,,,,,,,,,,,
,,,,,,00100,2023-11-09_14h59.34.387,vbt_B1_day2,2022.2.4,MacIntel,60.0024001,,,,,,,,,,,,,,,,,,,,,,,,,,,down,0,8.1378,,,0.642447645,0.124152662,1,0,0,0.4669,0,81,81,53,1,baron,images/br_baron.png,images/cb_baron.png,0,,,,,,,,,,,,,,,,,,,,,
,,,,,,00100,2023-11-09_14h59.34.387,vbt_B1_day2,2022.2.4,MacIntel,60.0024001,,,,,,,,,,,,,,,,,,,,,,,,,,,down,0,5.4483,,,0.642447645,0.124152662,1,0,0,0.5172,0,82,82,171,1,aarzelen,images/br_aarzelen.png,images/cb_aarzelen.png,0,,,,,,,,,,,,,,,,,,,,,
,,,,,,00100,2023-11-09_14h59.34.387,vbt_B1_day2,2022.2.4,MacIntel,60.0024001,,,,,,,,,,,,,,,,,,,,,,,,,,,down,0,6.0504,,,0.642447645,0.124152662,1,0,0,0.4342,0,83,83,170,1,schatten,images/br_schatten.png,images/cb_schatten.png,0,,,,,,,,,,,,,,,,,,,,,
,,,,,,00100,2023-11-09_14h59.34.387,vbt_B1_day2,2022.2.4,MacIntel,60.0024001,,,,,,,,,,,,,,,,,,,,,,,,,,,down,0,2.214,,,0.642447645,0.124152662,1,0,0,0.6334,0,84,84,8,1,knie,images/br_knie.png,images/cb_knie.png,0,,,,,,,,,,,,,,,,,,,,,
,,,,,,00100,2023-11-09_14h59.34.387,vbt_B1_day2,2022.2.4,MacIntel,60.0024001,,,,,,,,,,,,,,,,,,,,,,,,,,,down,0,7.8894,,,0.642447645,0.124152662,1,0,0,0.5651,0,85,85,120,1,klimmen,images/br_klimmen.png,images/cb_klimmen.png,0,,,,,,,,,,,,,,,,,,,,,
,,,,,,00100,2023-11-09_14h59.34.387,vbt_B1_day2,2022.2.4,MacIntel,60.0024001,,,,,,,,,,,,,,,,,,,,,,,,,,,down,0,13.6183,,,0.642447645,0.124152662,1,0,0,0.5798,0,86,86,195,1,middelen,images/br_middelen.png,images/cb_middelen.png,0,,,,,,,,,,,,,,,,,,,,,
,,,,,,00100,2023-11-09_14h59.34.387,vbt_B1_day2,2022.2.4,MacIntel,60.0024001,,,,,,,,,,,,,,,,,,,,,,,,,,,down,0,19.8377,,,0.642447645,0.124152662,1,0,0,0.5515,0,87,87,162,1,uitdelen,images/br_uitdelen.png,images/cb_uitdelen.png,0,,,,,,,,,,,,,,,,,,,,,
,,,,,,00100,2023-11-09_14h59.34.387,vbt_B1_day2,2022.2.4,MacIntel,60.0024001,,,,,,,,,,,,,,,,,,,,,,,,,,,down,0,6.6671,maaltijd,,0.378540717,0.077009515,1,0,0,0.668,0,88,88,177,1,maaltijd,images/br_maaltijd.png,images/cb_maaltijd.png,1,,,,,,,,,,,,,,,,,,,,,
,,,,,,00100,2023-11-09_14h59.34.387,vbt_B1_day2,2022.2.4,MacIntel,60.0024001,,,,,,,,,,,,,,,,,,,,,,,,,,,down,0,11.1561,,,0.378540717,0.077009515,1,0,0,0.5822,0,89,89,190,1,goedkoop,images/br_goedkoop.png,images/cb_goedkoop.png,0,,,,,,,,,,,,,,,,,,,,,
,,,,,,00100,2023-11-09_14h59.34.387,vbt_B1_day2,2022.2.4,MacIntel,60.0024001,,,,,,,,,,,,,,,,,,,,,,,,,,,down,0,5.3928,,,0.360825195,0.075303887,1,0,0,0.4808,0,90,90,117,1,kennis,images/br_kennis.png,images/cb_kennis.png,0,,,,,,,,,,,,,,,,,,,,,
,,,,,,00100,2023-11-09_14h59.34.387,vbt_B1_day2,2022.2.4,MacIntel,60.0024001,,,,,,,,,,,,,,,,,,,,,,,,,,,down,0,6.9225,,,0.360825195,0.075303887,1,0,0,0.5315,0,91,91,100,1,geduld,images/br_geduld.png,images/cb_geduld.png,0,,,,,,,,,,,,,,,,,,,,,
,,,,,,00100,2023-11-09_14h59.34.387,vbt_B1_day2,2022.2.4,MacIntel,60.0024001,,,,,,,,,,,,,,,,,,,,,,,,,,,down,0,6.1375,kreeft,,0.360825195,0.075303887,1,0,0,0.4669,0,92,92,98,1,kreeft,images/br_kreeft.png,images/cb_kreeft.png,1,,,,,,,,,,,,,,,,,,,,,
,,,,,,00100,2023-11-09_14h59.34.387,vbt_B1_day2,2022.2.4,MacIntel,60.0024001,,,,,,,,,,,,,,,,,,,,,,,,,,,down,0,12.151,,,0.077068007,-0.010933601,1,0,0,0.5016,0,93,93,160,1,daarheen,images/br_daarheen.png,images/cb_daarheen.png,0,,,,,,,,,,,,,,,,,,,,,
,,,,,,00100,2023-11-09_14h59.34.387,vbt_B1_day2,2022.2.4,MacIntel,60.0024001,,,,,,,,,,,,,,,,,,,,,,,,,,,down,0,9.629,,,0.077068007,-0.010933601,1,0,0,0.4334,0,94,94,118,1,vinger,images/br_vinger.png,images/cb_vinger.png,0,,,,,,,,,,,,,,,,,,,,,
,,,,,,00100,2023-11-09_14h59.34.387,vbt_B1_day2,2022.2.4,MacIntel,60.0024001,,,,,,,,,,,,,,,,,,,,,,,,,,,down,0,3.4872,,,0.077068007,-0.010933601,1,0,0,0.7324,0,95,95,67,1,zwart,images/br_zwart.png,images/cb_zwart.png,0,,,,,,,,,,,,,,,,,,,,,
,,,,,,00100,2023-11-09_14h59.34.387,vbt_B1_day2,2022.2.4,MacIntel,60.0024001,,,,,,,,,,,,,,,,,,,,,,,,,,,down,0,19.3209,,,0.077068007,-0.010933601,1,0,0,0.4997,0,96,96,72,1,strak,images/br_strak.png,images/cb_strak.png,0,,,,,,,,,,,,,,,,,,,,,
,,,,,,00100,2023-11-09_14h59.34.387,vbt_B1_day2,2022.2.4,MacIntel,60.0024001,,,,,,,,,,,,,,,,,,,,,,,,,,,down,0,6.5566,,,0.077068007,-0.010933601,1,0,0,0.4825,0,97,97,197,1,spanning,images/br_spanning.png,images/cb_spanning.png,0,,,,,,,,,,,,,,,,,,,,,
,,,,,,00100,2023-11-09_14h59.34.387,vbt_B1_day2,2022.2.4,MacIntel,60.0024001,,,,,,,,,,,,,,,,,,,,,,,,,,,down,0,7.9674,,,0.077068007,-0.010933601,1,0,0,0.499,0,98,98,156,1,rechten,images/br_rechten.png,images/cb_rechten.png,0,,,,,,,,,,,,,,,,,,,,,
,,,,,,00100,2023-11-09_14h59.34.387,vbt_B1_day2,2022.2.4,MacIntel,60.0024001,,,,,,,,,,,,,,,,,,,,,,,,,,,down,0,5.8336,slagen,,0.077068007,-0.010933601,1,0,0,0.4344,0,99,99,96,1,slagen,images/br_slagen.png,images/cb_slagen.png,1,,,,,,,,,,,,,,,,,,,,,
,,,,,,00100,2023-11-09_14h59.34.387,vbt_B1_day2,2022.2.4,MacIntel,60.0024001,,,,,,,,,,,,,,,,,,,,,,,,,,,down,0,4.8529,,,0.077068007,-0.010933601,1,0,0,0.4474,0,100,100,95,1,vreten,images/br_vreten.png,images/cb_vreten.png,0,,,,,,,,,,,,,,,,,,,,,
,,,,,,00100,2023-11-09_14h59.34.387,vbt_B1_day2,2022.2.4,MacIntel,60.0024001,,,,,,,,,,,,,,,,,,,,,,,,,,,down,0,14.7016,,,0.077068007,-0.010933601,1,0,0,0.4662,0,101,101,198,1,bedoelen,images/br_bedoelen.png,images/cb_bedoelen.png,0,,,,,,,,,,,,,,,,,,,,,
,,,,,,00100,2023-11-09_14h59.34.387,vbt_B1_day2,2022.2.4,MacIntel,60.0024001,,,,,,,,,,,,,,,,,,,,,,,,,,,down,0,12.4699,,,0.496389431,0.208560791,1,0,0,0.5852,0,102,102,116,1,besmet,images/br_besmet.png,images/cb_besmet.png,0,,,,,,,,,,,,,,,,,,,,,
,,,,,,00100,2023-11-09_14h59.34.387,vbt_B1_day2,2022.2.4,MacIntel,60.0024001,,,,,,,,,,,,,,,,,,,,,,,,,,,down,0,7.7372,,,0.496389431,0.208560791,1,0,0,0.6201,0,103,103,35,1,lust,images/br_lust.png,images/cb_lust.png,0,,,,,,,,,,,,,,,,,,,,,
,,,,,,00100,2023-11-09_14h59.34.387,vbt_B1_day2,2022.2.4,MacIntel,60.0024001,,,,,,,,,,,,,,,,,,,,,,,,,,,down,0,7.0326,stiekem,,0.496389431,0.208560791,1,0,0,0.5033,0,104,104,139,1,stiekem,images/br_stiekem.png,images/cb_stiekem.png,1,,,,,,,,,,,,,,,,,,,,,
,,,,,,00100,2023-11-09_14h59.34.387,vbt_B1_day2,2022.2.4,MacIntel,60.0024001,,,,,,,,,,,,,,,,,,,,,,,,,,,down,0,4.8339,,,0.495687527,0.212445102,1,0,0,0.5199,0,105,105,49,1,laken,images/br_laken.png,images/cb_laken.png,0,,,,,,,,,,,,,,,,,,,,,
,,,,,,00100,2023-11-09_14h59.34.387,vbt_B1_day2,2022.2.4,MacIntel,60.0024001,,,,,,,,,,,,,,,,,,,,,,,,,,,down,0,7.5996,,,0.495687527,0.213556213,1,0,0,0.4663,0,106,106,191,1,opheffen,images/br_opheffen.png,images/cb_opheffen.png,0,,,,,,,,,,,,,,,,,,,,,
,,,,,,00100,2023-11-09_14h59.34.387,vbt_B1_day2,2022.2.4,MacIntel,60.0024001,,,,,,,,,,,,,,,,,,,,,,,,,,,down,0,6.6846,,,0.495687527,0.213556213,1,0,0,1.4008,0,107,107,66,1,lever,images/br_lever.png,images/cb_lever.png,0,,,,,,,,,,,,,,,,,,,,,
,,,,,,00100,2023-11-09_14h59.34.387,vbt_B1_day2,2022.2.4,MacIntel,60.0024001,,,,,,,,,,,,,,,,,,,,,,,,,,,down,0,7.8182,,,0.258573473,-0.01525862,1,0,0,0.4493,0,108,108,123,1,hiervan,images/br_hiervan.png,images/cb_hiervan.png,0,,,,,,,,,,,,,,,,,,,,,
,,,,,,00100,2023-11-09_14h59.34.387,vbt_B1_day2,2022.2.4,MacIntel,60.0024001,,,,,,,,,,,,,,,,,,,,,,,,,,,down,0,4.8954,,,0.090418294,-0.028224555,1,0,0,0.7457,0,109,109,106,1,zingen,images/br_zingen.png,images/cb_zingen.png,0,,,,,,,,,,,,,,,,,,,,,
,,,,,,00100,2023-11-09_14h59.34.387,vbt_B1_day2,2022.2.4,MacIntel,60.0024001,,,,,,,,,,,,,,,,,,,,,,,,,,,down,0,3.4032,,,0.090418294,-0.028224555,1,0,0,0.4342,0,110,110,48,1,steel,images/br_steel.png,images/cb_steel.png,0,,,,,,,,,,,,,,,,,,,,,
,,,,,,00100,2023-11-09_14h59.34.387,vbt_B1_day2,2022.2.4,MacIntel,60.0024001,,,,,,,,,,,,,,,,,,,,,,,,,,,down,0,2.4345,,,0.449547526,0.043846605,1,0,0,0.5175,0,111,111,22,1,stof,images/br_stof.png,images/cb_stof.png,0,,,,,,,,,,,,,,,,,,,,,
,,,,,,00100,2023-11-09_14h59.34.387,vbt_B1_day2,2022.2.4,MacIntel,60.0024001,,,,,,,,,,,,,,,,,,,,,,,,,,,down,0,0.5009,,,0.449547526,0.043846605,1,0,0,1.4329,0,112,112,0,1,slak,images/br_slak.png,images/cb_slak.png,0,,,,,,,,,,,,,,,,,,,,,
,,,,,,00100,2023-11-09_14h59.34.387,vbt_B1_day2,2022.2.4,MacIntel,60.0024001,,,,,,,,,,,,,,,,,,,,,,,,,,,down,0,9.1735,,,0.449547526,0.043846605,1,0,0,0.6181,0,113,113,43,1,klauw,images/br_klauw.png,images/cb_klauw.png,0,,,,,,,,,,,,,,,,,,,,,
,,,,,,00100,2023-11-09_14h59.34.387,vbt_B1_day2,2022.2.4,MacIntel,60.0024001,,,,,,,,,,,,,,,,,,,,,,,,,,,down,0,6.6036,,,0.449547526,0.043846605,1,0,0,0.503,0,114,114,124,1,bloeien,images/br_bloeien.png,images/cb_bloeien.png,0,,,,,,,,,,,,,,,,,,,,,
,,,,,,00100,2023-11-09_14h59.34.387,vbt_B1_day2,2022.2.4,MacIntel,60.0024001,,,,,,,,,,,,,,,,,,,,,,,,,,,down,0,4.8504,,,0.449547526,0.043846605,1,0,0,0.5503,0,115,115,71,1,bever,images/br_bever.png,images/cb_bever.png,0,,,,,,,,,,,,,,,,,,,,,
,,,,,,00100,2023-11-09_14h59.34.387,vbt_B1_day2,2022.2.4,MacIntel,60.0024001,,,,,,,,,,,,,,,,,,,,,,,,,,,down,0,7.874,,,0.449547526,0.043846605,1,0,0,0.4486,0,116,116,131,1,opzicht,images/br_opzicht.png,images/cb_opzicht.png,0,,,,,,,,,,,,,,,,,,,,,
,,,,,,00100,2023-11-09_14h59.34.387,vbt_B1_day2,2022.2.4,MacIntel,60.0024001,,,,,,,,,,,,,,,,,,,,,,,,,,,down,0,12.5205,,,0.449547526,0.043846605,1,0,0,0.4273,0,117,117,180,1,openbaar,images/br_openbaar.png,images/cb_openbaar.png,0,,,,,,,,,,,,,,,,,,,,,
,,,,,,00100,2023-11-09_14h59.34.387,vbt_B1_day2,2022.2.4,MacIntel,60.0024001,,,,,,,,,,,,,,,,,,,,,,,,,,,down,0,6.2864,techniek,,0.449547526,0.043846605,1,0,0,0.483,0,118,118,176,1,techniek,images/br_techniek.png,images/cb_techniek.png,1,,,,,,,,,,,,,,,,,,,,,
,,,,,,00100,2023-11-09_14h59.34.387,vbt_B1_day2,2022.2.4,MacIntel,60.0024001,,,,,,,,,,,,,,,,,,,,,,,,,,,down,0,4.9217,,,0.449547526,0.043846605,1,0,0,0.3847,0,119,119,21,1,mist,images/br_mist.png,images/cb_mist.png,0,,,,,,,,,,,,,,,,,,,,,
,,,,,,00100,2023-11-09_14h59.34.387,vbt_B1_day2,2022.2.4,MacIntel,60.0024001,,,,,,,,,,,,,,,,,,,,,,,,,,,down,0,4.9226,,,0.449547526,0.043846605,1,0,0,0.4162,0,120,120,61,1,groen,images/br_groen.png,images/cb_groen.png,0,,,,,,,,,,,,,,,,,,,,,
,,,,,,00100,2023-11-09_14h59.34.387,vbt_B1_day2,2022.2.4,MacIntel,60.0024001,,,,,,,,,,,,,,,,,,,,,,,,,,,down,0,10.0179,,,0.449547526,0.043846605,1,0,0,0.4075,0,121,121,163,1,schuilen,images/br_schuilen.png,images/cb_schuilen.png,0,,,,,,,,,,,,,,,,,,,,,
,,,,,,00100,2023-11-09_14h59.34.387,vbt_B1_day2,2022.2.4,MacIntel,60.0024001,,,,,,,,,,,,,,,,,,,,,,,,,,,down,0,3.9354,,,0.609898817,0.198483955,1,0,0,0.6319,0,122,122,32,1,palm,images/br_palm.png,images/cb_palm.png,0,,,,,,,,,,,,,,,,,,,,,
,,,,,,00100,2023-11-09_14h59.34.387,vbt_B1_day2,2022.2.4,MacIntel,60.0024001,,,,,,,,,,,,,,,,,,,,,,,,,,,down,0,1.1863,,,0.609898817,0.198483955,1,0,0,0.5502,0,123,123,65,1,parel,images/br_parel.png,images/cb_parel.png,0,,,,,,,,,,,,,,,,,,,,,
,,,,,,00100,2023-11-09_14h59.34.387,vbt_B1_day2,2022.2.4,MacIntel,60.0024001,,,,,,,,,,,,,,,,,,,,,,,,,,,down,0,2.3343,,,0.609898817,0.198483955,1,0,0,1.2148,0,124,124,132,1,grappen,images/br_grappen.png,images/cb_grappen.png,0,,,,,,,,,,,,,,,,,,,,,
,,,,,,00100,2023-11-09_14h59.34.387,vbt_B1_day2,2022.2.4,MacIntel,60.0024001,,,,,,,,,,,,,,,,,,,,,,,,,,,down,0,4.985,,,0.242106662,-0.014889052,1,0,0,0.5812,0,125,125,150,1,gegeven,images/br_gegeven.png,images/cb_gegeven.png,0,,,,,,,,,,,,,,,,,,,,,
,,,,,,00100,2023-11-09_14h59.34.387,vbt_B1_day2,2022.2.4,MacIntel,60.0024001,,,,,,,,,,,,,,,,,,,,,,,,,,,down,0,3.8647,blik,,0.242106662,-0.014889052,1,0,0,0.502,0,126,126,18,1,blik,images/br_blik.png,images/cb_blik.png,1,,,,,,,,,,,,,,,,,,,,,
,,,,,,00100,2023-11-09_14h59.34.387,vbt_B1_day2,2022.2.4,MacIntel,60.0024001,,,,,,,,,,,,,,,,,,,,,,,,,,,down,0,5.7343,,,0.207670898,-0.013679538,1,0,0,0.3656,0,127,127,89,1,slapen,images/br_slapen.png,images/cb_slapen.png,0,,,,,,,,,,,,,,,,,,,,,
,,,,,,00100,2023-11-09_14h59.34.387,vbt_B1_day2,2022.2.4,MacIntel,60.0024001,,,,,,,,,,,,,,,,,,,,,,,,,,,down,0,6.8515,,,0.361544325,0.029461738,1,0,0,0.3868,0,128,128,161,1,attentie,images/br_attentie.png,images/cb_attentie.png,0,,,,,,,,,,,,,,,,,,,,,
,,,,,,00100,2023-11-09_14h59.34.387,vbt_B1_day2,2022.2.4,MacIntel,60.0024001,,,,,,,,,,,,,,,,,,,,,,,,,,,down,0,8.7555,,,0.361544325,0.029461738,1,0,0,0.7173,0,129,129,90,1,geluid,images/br_geluid.png,images/cb_geluid.png,0,,,,,,,,,,,,,,,,,,,,,
,,,,,,00100,2023-11-09_14h59.34.387,vbt_B1_day2,2022.2.4,MacIntel,60.0024001,,,,,,,,,,,,,,,,,,,,,,,,,,,down,0,2.0831,,,0.361544325,0.029461738,1,0,0,0.501,0,130,130,62,1,knaap,images/br_knaap.png,images/cb_knaap.png,0,,,,,,,,,,,,,,,,,,,,,
,,,,,,00100,2023-11-09_14h59.34.387,vbt_B1_day2,2022.2.4,MacIntel,60.0024001,,,,,,,,,,,,,,,,,,,,,,,,,,,down,0,7.8798,,,0.361544325,0.029461738,1,0,0,0.4169,0,131,131,144,1,eetlust,images/br_eetlust.png,images/cb_eetlust.png,0,,,,,,,,,,,,,,,,,,,,,
,,,,,,00100,2023-11-09_14h59.34.387,vbt_B1_day2,2022.2.4,MacIntel,60.0024001,,,,,,,,,,,,,,,,,,,,,,,,,,,down,0,4.1464,,,0.361544325,0.029461738,1,0,0,0.4454,0,132,132,81,1,dubbel,images/br_dubbel.png,images/cb_dubbel.png,0,,,,,,,,,,,,,,,,,,,,,
,,,,,,00100,2023-11-09_14h59.34.387,vbt_B1_day2,2022.2.4,MacIntel,60.0024001,,,,,,,,,,,,,,,,,,,,,,,,,,,down,0,1.5526,,,0.361544325,0.029461738,1,0,0,0.5302,0,133,133,7,1,geld,images/br_geld.png,images/cb_geld.png,0,,,,,,,,,,,,,,,,,,,,,
,,,,,,00100,2023-11-09_14h59.34.387,vbt_B1_day2,2022.2.4,MacIntel,60.0024001,,,,,,,,,,,,,,,,,,,,,,,,,,,down,0,4.8195,,,0.361544325,0.029461738,1,0,0,0.5318,0,134,134,69,1,waken,images/br_waken.png,images/cb_waken.png,0,,,,,,,,,,,,,,,,,,,,,
,,,,,,00100,2023-11-09_14h59.34.387,vbt_B1_day2,2022.2.4,MacIntel,60.0024001,,,,,,,,,,,,,,,,,,,,,,,,,,,down,0,13.4576,,,0.361544325,0.029461738,1,0,0,0.6482,0,135,135,155,1,gerucht,images/br_gerucht.png,images/cb_gerucht.png,0,,,,,,,,,,,,,,,,,,,,,
,,,,,,00100,2023-11-09_14h59.34.387,vbt_B1_day2,2022.2.4,MacIntel,60.0024001,,,,,,,,,,,,,,,,,,,,,,,,,,,down,0,4.5512,,,0.361544325,0.029461738,1,0,0,0.5635,0,136,136,54,1,gebit,images/br_gebit.png,images/cb_gebit.png,0,,,,,,,,,,,,,,,,,,,,,
,,,,,,00100,2023-11-09_14h59.34.387,vbt_B1_day2,2022.2.4,MacIntel,60.0024001,,,,,,,,,,,,,,,,,,,,,,,,,,,down,0,9.5224,,,0.361544325,0.029461738,1,0,0,0.4154,0,137,137,199,1,beseffen,images/br_beseffen.png,images/cb_beseffen.png,0,,,,,,,,,,,,,,,,,,,,,
,,,,,,00100,2023-11-09_14h59.34.387,vbt_B1_day2,2022.2.4,MacIntel,60.0024001,,,,,,,,,,,,,,,,,,,,,,,,,,,down,0,3.664,,,0.361544325,0.029461738,1,0,0,0.4537,0,138,138,126,1,kasteel,images/br_kasteel.png,images/cb_kasteel.png,0,,,,,,,,,,,,,,,,,,,,,
,,,,,,00100,2023-11-09_14h59.34.387,vbt_B1_day2,2022.2.4,MacIntel,60.0024001,,,,,,,,,,,,,,,,,,,,,,,,,,,down,0,3.9903,,,0.361544325,0.035404731,1,0,0,0.4518,0,139,139,9,1,hier,images/br_hier.png,images/cb_hier.png,0,,,,,,,,,,,,,,,,,,,,,
,,,,,,00100,2023-11-09_14h59.34.387,vbt_B1_day2,2022.2.4,MacIntel,60.0024001,,,,,,,,,,,,,,,,,,,,,,,,,,,down,0,7.2519,,,0.361544325,0.035404731,1,0,0,0.3989,0,140,140,37,1,mijn,images/br_mijn.png,images/cb_mijn.png,0,,,,,,,,,,,,,,,,,,,,,
,,,,,,00100,2023-11-09_14h59.34.387,vbt_B1_day2,2022.2.4,MacIntel,60.0024001,,,,,,,,,,,,,,,,,,,,,,,,,,,down,0,9.0713,,,0.361544325,0.035404731,1,0,0,0.5677,0,141,141,152,1,afnemen,images/br_afnemen.png,images/cb_afnemen.png,0,,,,,,,,,,,,,,,,,,,,,
,,,,,,00100,2023-11-09_14h59.34.387,vbt_B1_day2,2022.2.4,MacIntel,60.0024001,,,,,,,,,,,,,,,,,,,,,,,,,,,down,0,13.5682,,,0.223003879,-0.025477804,1,0,0,0.4013,0,142,142,183,1,getuigen,images/br_getuigen.png,images/cb_getuigen.png,0,,,,,,,,,,,,,,,,,,,,,
,,,,,,00100,2023-11-09_14h59.34.387,vbt_B1_day2,2022.2.4,MacIntel,60.0024001,,,,,,,,,,,,,,,,,,,,,,,,,,,down,0,2.5693,,,0.223003879,-0.025477804,1,0,0,0.4319,0,143,143,114,1,vullen,images/br_vullen.png,images/cb_vullen.png,0,,,,,,,,,,,,,,,,,,,,,
,,,,,,00100,2023-11-09_14h59.34.387,vbt_B1_day2,2022.2.4,MacIntel,60.0024001,,,,,,,,,,,,,,,,,,,,,,,,,,,down,0,24.972,,,0.08783705,-0.016883477,1,0,0,1.5996,0,144,144,164,1,anarchie,images/br_anarchie.png,images/cb_anarchie.png,0,,,,,,,,,,,,,,,,,,,,,
,,,,,,00100,2023-11-09_14h59.34.387,vbt_B1_day2,2022.2.4,MacIntel,60.0024001,,,,,,,,,,,,,,,,,,,,,,,,,,,down,0,1.04,,,0.08783705,-0.016883477,1,0,0,0.6519,0,145,145,1,1,zaal,images/br_zaal.png,images/cb_zaal.png,0,,,,,,,,,,,,,,,,,,,,,
,,,,,,00100,2023-11-09_14h59.34.387,vbt_B1_day2,2022.2.4,MacIntel,60.0024001,,,,,,,,,,,,,,,,,,,,,,,,,,,down,0,0.7836,,,0.350300836,0.025546672,1,0,0,0.4506,0,146,146,39,1,laag,images/br_laag.png,images/cb_laag.png,0,,,,,,,,,,,,,,,,,,,,,
,,,,,,00100,2023-11-09_14h59.34.387,vbt_B1_day2,2022.2.4,MacIntel,60.0024001,,,,,,,,,,,,,,,,,,,,,,,,,,,down,0,5.6676,trekker,,0.350300836,0.025546672,1,0,0,0.4505,0,147,147,137,1,trekker,images/br_trekker.png,images/cb_trekker.png,1,,,,,,,,,,,,,,,,,,,,,
,,,,,,00100,2023-11-09_14h59.34.387,vbt_B1_day2,2022.2.4,MacIntel,60.0024001,,,,,,,,,,,,,,,,,,,,,,,,,,,down,0,5.4329,,,0.350300836,0.025546672,1,0,0,0.4689,0,148,148,88,1,boeien,images/br_boeien.png,images/cb_boeien.png,0,,,,,,,,,,,,,,,,,,,,,
,,,,,,00100,2023-11-09_14h59.34.387,vbt_B1_day2,2022.2.4,MacIntel,60.0024001,,,,,,,,,,,,,,,,,,,,,,,,,,,down,0,7.7055,,,0.350300836,0.025546672,1,0,0,0.503,0,149,149,3,1,mand,images/br_mand.png,images/cb_mand.png,0,,,,,,,,,,,,,,,,,,,,,
,,,,,,00100,2023-11-09_14h59.34.387,vbt_B1_day2,2022.2.4,MacIntel,60.0024001,,,,,,,,,,,,,,,,,,,,,,,,,,,down,0,3.5864,,,0.350300836,0.025546672,1,0,0,0.4348,0,150,150,122,1,waarvan,images/br_waarvan.png,images/cb_waarvan.png,0,,,,,,,,,,,,,,,,,,,,,
,,,,,,00100,2023-11-09_14h59.34.387,vbt_B1_day2,2022.2.4,MacIntel,60.0024001,,,,,,,,,,,,,,,,,,,,,,,,,,,down,0,12.8226,,,0.350300836,0.025546672,1,0,0,0.5024,0,151,151,181,1,toegeven,images/br_toegeven.png,images/cb_toegeven.png,0,,,,,,,,,,,,,,,,,,,,,
,,,,,,00100,2023-11-09_14h59.34.387,vbt_B1_day2,2022.2.4,MacIntel,60.0024001,,,,,,,,,,,,,,,,,,,,,,,,,,,down,0,6.1199,,,0.350300836,0.025546672,1,0,0,0.3982,0,152,152,148,1,smullen,images/br_smullen.png,images/cb_smullen.png,0,,,,,,,,,,,,,,,,,,,,,
,,,,,,00100,2023-11-09_14h59.34.387,vbt_B1_day2,2022.2.4,MacIntel,60.0024001,,,,,,,,,,,,,,,,,,,,,,,,,,,down,0,5.4357,,,0.350300836,0.025546672,1,0,0,0.4968,0,153,153,188,1,strekken,images/br_strekken.png,images/cb_strekken.png,0,,,,,,,,,,,,,,,,,,,,,
,,,,,,00100,2023-11-09_14h59.34.387,vbt_B1_day2,2022.2.4,MacIntel,60.0024001,,,,,,,,,,,,,,,,,,,,,,,,,,,down,0,9.053,,,0.350300836,0.025546672,1,0,0,0.4855,0,154,154,154,1,aflopen,images/br_aflopen.png,images/cb_aflopen.png,0,,,,,,,,,,,,,,,,,,,,,
,,,,,,00100,2023-11-09_14h59.34.387,vbt_B1_day2,2022.2.4,MacIntel,60.0024001,,,,,,,,,,,,,,,,,,,,,,,,,,,down,0,2.1008,ziek,,0.350300836,0.025546672,1,0,0,0.4535,0,155,155,16,1,ziek,images/br_ziek.png,images/cb_ziek.png,1,,,,,,,,,,,,,,,,,,,,,
,,,,,,00100,2023-11-09_14h59.34.387,vbt_B1_day2,2022.2.4,MacIntel,60.0024001,,,,,,,,,,,,,,,,,,,,,,,,,,,down,0,3.8575,,,0.350300836,0.025546672,1,0,0,0.3991,0,156,156,52,1,wagon,images/br_wagon.png,images/cb_wagon.png,0,,,,,,,,,,,,,,,,,,,,,
,,,,,,00100,2023-11-09_14h59.34.387,vbt_B1_day2,2022.2.4,MacIntel,60.0024001,,,,,,,,,,,,,,,,,,,,,,,,,,,down,0,7.6711,,,0.350300836,0.025546672,1,0,0,0.401,0,157,157,77,1,woede,images/br_woede.png,images/cb_woede.png,0,,,,,,,,,,,,,,,,,,,,,
,,,,,,00100,2023-11-09_14h59.34.387,vbt_B1_day2,2022.2.4,MacIntel,60.0024001,,,,,,,,,,,,,,,,,,,,,,,,,,,down,0,7.268,,,0.402006836,0.013346388,1,0,0,0.5676,0,158,158,157,1,uitlaat,images/br_uitlaat.png,images/cb_uitlaat.png,0,,,,,,,,,,,,,,,,,,,,,
,,,,,,00100,2023-11-09_14h59.34.387,vbt_B1_day2,2022.2.4,MacIntel,60.0024001,,,,,,,,,,,,,,,,,,,,,,,,,,,down,0,4.5391,,,0.402006836,0.013346388,1,0,0,0.4159,0,159,159,151,1,aanzoek,images/br_aanzoek.png,images/cb_aanzoek.png,0,,,,,,,,,,,,,,,,,,,,,
,,,,,,00100,2023-11-09_14h59.34.387,vbt_B1_day2,2022.2.4,MacIntel,60.0024001,,,,,,,,,,,,,,,,,,,,,,,,,,,down,0,5.8469,,,0.402006836,0.013346388,1,0,0,0.3805,0,160,160,147,1,komisch,images/br_komisch.png,images/cb_komisch.png,0,,,,,,,,,,,,,,,,,,,,,
,,,,,,00100,2023-11-09_14h59.34.387,vbt_B1_day2,2022.2.4,MacIntel,60.0024001,,,,,,,,,,,,,,,,,,,,,,,,,,,down,0,4.3816,,,0.40837972,-0.006794773,1,0,0,0.4652,0,161,161,173,1,apparaat,images/br_apparaat.png,images/cb_apparaat.png,0,,,,,,,,,,,,,,,,,,,,,
,,,,,,00100,2023-11-09_14h59.34.387,vbt_B1_day2,2022.2.4,MacIntel,60.0024001,,,,,,,,,,,,,,,,,,,,,,,,,,,down,0,6.3344,,,0.328453234,0.05453637,1,0,0,0.4162,0,162,162,76,1,afval,images/br_afval.png,images/cb_afval.png,0,,,,,,,,,,,,,,,,,,,,,
,,,,,,00100,2023-11-09_14h59.34.387,vbt_B1_day2,2022.2.4,MacIntel,60.0024001,,,,,,,,,,,,,,,,,,,,,,,,,,,down,0,2.1353,,,0.375845269,-0.015335795,1,0,0,0.283,0,163,163,112,1,lukken,images/br_lukken.png,images/cb_lukken.png,0,,,,,,,,,,,,,,,,,,,,,
,,,,,,00100,2023-11-09_14h59.34.387,vbt_B1_day2,2022.2.4,MacIntel,60.0024001,,,,,,,,,,,,,,,,,,,,,,,,,,,down,0,7.3864,,,0.375845269,-0.015891351,1,0,0,0.2866,0,164,164,153,1,vervoer,images/br_vervoer.png,images/cb_vervoer.png,0,,,,,,,,,,,,,,,,,,,,,
,,,,,,00100,2023-11-09_14h59.34.387,vbt_B1_day2,2022.2.4,MacIntel,60.0024001,,,,,,,,,,,,,,,,,,,,,,,,,,,down,0,8.7872,,,0.375845269,-0.015891351,1,0,0,0.883,0,165,165,40,1,schep,images/br_schep.png,images/cb_schep.png,0,,,,,,,,,,,,,,,,,,,,,
,,,,,,00100,2023-11-09_14h59.34.387,vbt_B1_day2,2022.2.4,MacIntel,60.0024001,,,,,,,,,,,,,,,,,,,,,,,,,,,down,0,8.0526,,,0.375845269,-0.015891351,1,0,0,0.2521,0,166,166,172,1,weigeren,images/br_weigeren.png,images/cb_weigeren.png,0,,,,,,,,,,,,,,,,,,,,,
,,,,,,00100,2023-11-09_14h59.34.387,vbt_B1_day2,2022.2.4,MacIntel,60.0024001,,,,,,,,,,,,,,,,,,,,,,,,,,,down,0,9.0183,,,0.375845269,-0.015891351,1,0,0,0.3507,0,167,167,142,1,snuiven,images/br_snuiven.png,images/cb_snuiven.png,0,,,,,,,,,,,,,,,,,,,,,
,,,,,,00100,2023-11-09_14h59.34.387,vbt_B1_day2,2022.2.4,MacIntel,60.0024001,,,,,,,,,,,,,,,,,,,,,,,,,,,down,0,6.7334,koffie,,0.375845269,-0.013684557,1,0,0,0.3339,0,168,168,99,1,koffie,images/br_koffie.png,images/cb_koffie.png,1,,,,,,,,,,,,,,,,,,,,,
,,,,,,00100,2023-11-09_14h59.34.387,vbt_B1_day2,2022.2.4,MacIntel,60.0024001,,,,,,,,,,,,,,,,,,,,,,,,,,,down,0,3.4187,,,0.375845269,-0.013684557,1,0,0,0.497,0,169,169,27,1,dans,images/br_dans.png,images/cb_dans.png,0,,,,,,,,,,,,,,,,,,,,,
,,,,,,00100,2023-11-09_14h59.34.387,vbt_B1_day2,2022.2.4,MacIntel,60.0024001,,,,,,,,,,,,,,,,,,,,,,,,,,,down,0,5.253,,,0.375845269,-0.013684557,1,0,0,0.4691,0,170,170,63,1,flirt,images/br_flirt.png,images/cb_flirt.png,0,,,,,,,,,,,,,,,,,,,,,
,,,,,,00100,2023-11-09_14h59.34.387,vbt_B1_day2,2022.2.4,MacIntel,60.0024001,,,,,,,,,,,,,,,,,,,,,,,,,,,down,0,6.7519,,,0.375845269,-0.013684557,1,0,0,0.55,0,171,171,134,1,geliefd,images/br_geliefd.png,images/cb_geliefd.png,0,,,,,,,,,,,,,,,,,,,,,
,,,,,,00100,2023-11-09_14h59.34.387,vbt_B1_day2,2022.2.4,MacIntel,60.0024001,,,,,,,,,,,,,,,,,,,,,,,,,,,down,0,3.3173,,,0.375845269,-0.013684557,1,0,0,0.4185,0,172,172,26,1,leuk,images/br_leuk.png,images/cb_leuk.png,0,,,,,,,,,,,,,,,,,,,,,
,,,,,,00100,2023-11-09_14h59.34.387,vbt_B1_day2,2022.2.4,MacIntel,60.0024001,,,,,,,,,,,,,,,,,,,,,,,,,,,down,0,5.5902,,,0.375845269,-0.013684557,1,0,0,0.5814,0,173,173,92,1,geheim,images/br_geheim.png,images/cb_geheim.png,0,,,,,,,,,,,,,,,,,,,,,
,,,,,,00100,2023-11-09_14h59.34.387,vbt_B1_day2,2022.2.4,MacIntel,60.0024001,,,,,,,,,,,,,,,,,,,,,,,,,,,down,0,5.7167,,,0.375845269,-0.013684557,1,0,0,0.5488,0,174,174,192,1,schaamte,images/br_schaamte.png,images/cb_schaamte.png,0,,,,,,,,,,,,,,,,,,,,,
,,,,,,00100,2023-11-09_14h59.34.387,vbt_B1_day2,2022.2.4,MacIntel,60.0024001,,,,,,,,,,,,,,,,,,,,,,,,,,,down,0,4.8504,,,0.375845269,-0.013684557,1,0,0,0.283,0,175,175,175,1,heengaan,images/br_heengaan.png,images/cb_heengaan.png,0,,,,,,,,,,,,,,,,,,,,,
,,,,,,00100,2023-11-09_14h59.34.387,vbt_B1_day2,2022.2.4,MacIntel,60.0024001,,,,,,,,,,,,,,,,,,,,,,,,,,,down,0,15.8521,,,0.376082628,-0.013684557,1,0,0,0.5011,0,176,176,68,1,schat,images/br_schat.png,images/cb_schat.png,0,,,,,,,,,,,,,,,,,,,,,
,,,,,,00100,2023-11-09_14h59.34.387,vbt_B1_day2,2022.2.4,MacIntel,60.0024001,,,,,,,,,,,,,,,,,,,,,,,,,,,down,0,4.751,,,0.376082628,-0.013684557,1,0,0,0.3646,0,177,177,189,1,aanraden,images/br_aanraden.png,images/cb_aanraden.png,0,,,,,,,,,,,,,,,,,,,,,
,,,,,,00100,2023-11-09_14h59.34.387,vbt_B1_day2,2022.2.4,MacIntel,60.0024001,,,,,,,,,,,,,,,,,,,,,,,,,,,down,0,7.1567,,,0.376082628,-0.013684557,1,0,0,0.3824,0,178,178,166,1,strikken,images/br_strikken.png,images/cb_strikken.png,0,,,,,,,,,,,,,,,,,,,,,
,,,,,,00100,2023-11-09_14h59.34.387,vbt_B1_day2,2022.2.4,MacIntel,60.0024001,,,,,,,,,,,,,,,,,,,,,,,,,,,down,0,3.2857,,,0.376082628,-0.013684557,1,0,0,0.3471,0,179,179,20,1,site,images/br_site.png,images/cb_site.png,0,,,,,,,,,,,,,,,,,,,,,
,,,,,,00100,2023-11-09_14h59.34.387,vbt_B1_day2,2022.2.4,MacIntel,60.0024001,,,,,,,,,,,,,,,,,,,,,,,,,,,down,0,3.4017,,,0.376082628,-0.013684557,1,0,0,0.4502,0,180,180,41,1,maken,images/br_maken.png,images/cb_maken.png,0,,,,,,,,,,,,,,,,,,,,,
,,,,,,00100,2023-11-09_14h59.34.387,vbt_B1_day2,2022.2.4,MacIntel,60.0024001,,,,,,,,,,,,,,,,,,,,,,,,,,,down,0,9.5181,,,0.771336941,0.22619083,1,0,0,0.416,0,181,181,31,1,poes,images/br_poes.png,images/cb_poes.png,0,,,,,,,,,,,,,,,,,,,,,
,,,,,,00100,2023-11-09_14h59.34.387,vbt_B1_day2,2022.2.4,MacIntel,60.0024001,,,,,,,,,,,,,,,,,,,,,,,,,,,down,0,2.5865,,,0.771336941,0.22619083,1,0,0,0.3327,0,182,182,46,1,jagen,images/br_jagen.png,images/cb_jagen.png,0,,,,,,,,,,,,,,,,,,,,,
,,,,,,00100,2023-11-09_14h59.34.387,vbt_B1_day2,2022.2.4,MacIntel,60.0024001,,,,,,,,,,,,,,,,,,,,,,,,,,,down,0,4.9185,tekst,,0.771336941,0.22619083,1,0,0,0.4483,0,183,183,58,1,tekst,images/br_tekst.png,images/cb_tekst.png,1,,,,,,,,,,,,,,,,,,,,,
,,,,,,00100,2023-11-09_14h59.34.387,vbt_B1_day2,2022.2.4,MacIntel,60.0024001,,,,,,,,,,,,,,,,,,,,,,,,,,,down,0,1.9164,,,0.771336941,0.22619083,1,0,0,0.3493,0,184,184,34,1,vorm,images/br_vorm.png,images/cb_vorm.png,0,,,,,,,,,,,,,,,,,,,,,
,,,,,,00100,2023-11-09_14h59.34.387,vbt_B1_day2,2022.2.4,MacIntel,60.0024001,,,,,,,,,,,,,,,,,,,,,,,,,,,down,0,6.4838,,,0.771336941,0.22619083,1,0,0,0.4636,0,185,185,70,1,ijdel,images/br_ijdel.png,images/cb_ijdel.png,0,,,,,,,,,,,,,,,,,,,,,
,,,,,,00100,2023-11-09_14h59.34.387,vbt_B1_day2,2022.2.4,MacIntel,60.0024001,,,,,,,,,,,,,,,,,,,,,,,,,,,down,0,8.1378,,,0.771336941,0.22619083,1,0,0,0.4012,0,186,186,184,1,aandelen,images/br_aandelen.png,images/cb_aandelen.png,0,,,,,,,,,,,,,,,,,,,,,
,,,,,,00100,2023-11-09_14h59.34.387,vbt_B1_day2,2022.2.4,MacIntel,60.0024001,,,,,,,,,,,,,,,,,,,,,,,,,,,down,0,4.2837,,,0.771336941,0.22619083,1,0,0,0.4018,0,187,187,15,1,soda,images/br_soda.png,images/cb_soda.png,0,,,,,,,,,,,,,,,,,,,,,
,,,,,,00100,2023-11-09_14h59.34.387,vbt_B1_day2,2022.2.4,MacIntel,60.0024001,,,,,,,,,,,,,,,,,,,,,,,,,,,down,0,1.602,,,0.771336941,0.22619083,1,0,0,0.4323,0,188,188,13,1,kaal,images/br_kaal.png,images/cb_kaal.png,0,,,,,,,,,,,,,,,,,,,,,
,,,,,,00100,2023-11-09_14h59.34.387,vbt_B1_day2,2022.2.4,MacIntel,60.0024001,,,,,,,,,,,,,,,,,,,,,,,,,,,down,0,10.1863,,,0.771336941,0.22619083,1,0,0,0.4661,0,189,189,196,1,nakijken,images/br_nakijken.png,images/cb_nakijken.png,0,,,,,,,,,,,,,,,,,,,,,
,,,,,,00100,2023-11-09_14h59.34.387,vbt_B1_day2,2022.2.4,MacIntel,60.0024001,,,,,,,,,,,,,,,,,,,,,,,,,,,down,0,6.9624,,,0.771336941,0.22619083,1,0,0,0.2506,0,190,190,64,1,wegen,images/br_wegen.png,images/cb_wegen.png,0,,,,,,,,,,,,,,,,,,,,,
,,,,,,00100,2023-11-09_14h59.34.387,vbt_B1_day2,2022.2.4,MacIntel,60.0024001,,,,,,,,,,,,,,,,,,,,,,,,,,,down,0,9.3021,,,0.771336941,0.22619083,1,0,0,0.6358,0,191,191,79,1,nodig,images/br_nodig.png,images/cb_nodig.png,0,,,,,,,,,,,,,,,,,,,,,
,,,,,,00100,2023-11-09_14h59.34.387,vbt_B1_day2,2022.2.4,MacIntel,60.0024001,,,,,,,,,,,,,,,,,,,,,,,,,,,down,0,2.3864,,,0.771336941,0.22619083,1,0,0,1.0328,0,192,192,23,1,zout,images/br_zout.png,images/cb_zout.png,0,,,,,,,,,,,,,,,,,,,,,
,,,,,,00100,2023-11-09_14h59.34.387,vbt_B1_day2,2022.2.4,MacIntel,60.0024001,,,,,,,,,,,,,,,,,,,,,,,,,,,down,0,3.4409,,,0.771336941,0.22619083,1,0,0,0.3668,0,193,193,44,1,flits,images/br_flits.png,images/cb_flits.png,0,,,,,,,,,,,,,,,,,,,,,
,,,,,,00100,2023-11-09_14h59.34.387,vbt_B1_day2,2022.2.4,MacIntel,60.0024001,,,,,,,,,,,,,,,,,,,,,,,,,,,down,0,5.0699,,,0.771336941,0.22619083,1,0,0,0.7161,0,194,194,125,1,aanzien,images/br_aanzien.png,images/cb_aanzien.png,0,,,,,,,,,,,,,,,,,,,,,
,,,,,,00100,2023-11-09_14h59.34.387,vbt_B1_day2,2022.2.4,MacIntel,60.0024001,,,,,,,,,,,,,,,,,,,,,,,,,,,down,0,3.8691,,,0.771336941,0.22619083,1,0,0,0.686,0,195,195,193,1,weeshuis,images/br_weeshuis.png,images/cb_weeshuis.png,0,,,,,,,,,,,,,,,,,,,,,
,,,,,,00100,2023-11-09_14h59.34.387,vbt_B1_day2,2022.2.4,MacIntel,60.0024001,,,,,,,,,,,,,,,,,,,,,,,,,,,down,0,4.4871,,,0.773602837,0.225913781,1,0,0,0.6509,0,196,196,47,1,kabel,images/br_kabel.png,images/cb_kabel.png,0,,,,,,,,,,,,,,,,,,,,,
,,,,,,00100,2023-11-09_14h59.34.387,vbt_B1_day2,2022.2.4,MacIntel,60.0024001,,,,,,,,,,,,,,,,,,,,,,,,,,,down,0,3.0387,,,0.773602837,0.225913781,1,0,0,0.7831,0,197,197,85,1,heilig,images/br_heilig.png,images/cb_heilig.png,0,,,,,,,,,,,,,,,,,,,,,
,,,,,,00100,2023-11-09_14h59.34.387,vbt_B1_day2,2022.2.4,MacIntel,60.0024001,,,,,,,,,,,,,,,,,,,,,,,,,,,down,0,4.9005,,,0.773602837,0.225913781,1,0,0,0.4997,0,198,198,158,1,innemen,images/br_innemen.png,images/cb_innemen.png,0,,,,,,,,,,,,,,,,,,,,,
,,,,,,00100,2023-11-09_14h59.34.387,vbt_B1_day2,2022.2.4,MacIntel,60.0024001,,,,,,,,,,,,,,,,,,,,,,,,,,,down,0,5.4351,,,0.773602837,0.225913781,1,0,0,0.6001,0,199,199,11,1,mode,images/br_mode.png,images/cb_mode.png,0,,,,,,,,,,,,,,,,,,,,,
,,,,,,00100,2023-11-09_14h59.34.387,vbt_B1_day2,2022.2.4,MacIntel,60.0024001,,,,,,,,,,,,,,,,,,,,,,,,,,,,,,,,,,,,,,,,,,,,,,,0.6251317,0.195527072,1,0,0,,,,,,,,,,,,,,,,
,,,,,,00100,2023-11-09_14h59.34.387,vbt_B1_day2,2022.2.4,MacIntel,60.0024001,,,,,,,,,,,,,,,,,,,,,,,,,,,,,,,,,,,,,,,,,,,,,,,,,,,,0.584432373,0.156151835,1,0,0,,,,,,,,,,,
,,,,,,00100,2023-11-09_14h59.34.387,vbt_B1_day2,2022.2.4,MacIntel,60.0024001,,,,,,,,,,,,,,,,,,,,,,,,,,,,,,flits,,,,,,,,,,,,,flits,images/br_flits.png,images/cb_flits.png,,,,,,,,,,,,0.406699761,0.081660156,1,0,0,flits,0,0,0,4,1
,,,,,,00100,2023-11-09_14h59.34.387,vbt_B1_day2,2022.2.4,MacIntel,60.0024001,,,,,,,,,,,,,,,,,,,,,,,,,,,,,,systeem,,,,,,,,,,,,,systeem,images/br_systeem.png,images/cb_systeem.png,,,,,,,,,,,,0.315093859,0.099524604,1,0,0,systeem,0,1,1,54,1
,,,,,,00100,2023-11-09_14h59.34.387,vbt_B1_day2,2022.2.4,MacIntel,60.0024001,,,,,,,,,,,,,,,,,,,,,,,,,,,,,,clan,,,,,,,,,,,,,clan,images/br_clan.png,images/cb_clan.png,,,,,,,,,,,,0.236508518,0.030215861,1,0,0,clan,0,2,2,40,1
,,,,,,00100,2023-11-09_14h59.34.387,vbt_B1_day2,2022.2.4,MacIntel,60.0024001,,,,,,,,,,,,,,,,,,,,,,,,,,,,,,zwager,,,,,,,,,,,,,zwager,images/br_zwager.png,images/cb_zwager.png,,,,,,,,,,,,0.129754367,0.012447103,1,0,0,zwager,0,3,3,49,1
,,,,,,00100,2023-11-09_14h59.34.387,vbt_B1_day2,2022.2.4,MacIntel,60.0024001,,,,,,,,,,,,,,,,,,,,,,,,,,,,,,ba.on,,,,,,,,,,,,,badon,images/br_badon.png,images/cb_badon.png,,,,,,,,,,,,0.346876628,0.151116265,1,0,0,ba.on,0,4,4,26,1
,,,,,,00100,2023-11-09_14h59.34.387,vbt_B1_day2,2022.2.4,MacIntel,60.0024001,,,,,,,,,,,,,,,,,,,,,,,,,,,,,,moes,,,,,,,,,,,,,moes,images/br_moes.png,images/cb_moes.png,,,,,,,,,,,,0.312294244,0.141541951,1,0,0,moes,0,5,5,0,1
,,,,,,00100,2023-11-09_14h59.34.387,vbt_B1_day2,2022.2.4,MacIntel,60.0024001,,,,,,,,,,,,,,,,,,,,,,,,,,,,,,diep,,,,,,,,,,,,,diep,images/br_diep.png,images/cb_diep.png,,,,,,,,,,,,0.269685126,0.114094103,1,0,0,diep,0,6,6,2,1
,,,,,,00100,2023-11-09_14h59.34.387,vbt_B1_day2,2022.2.4,MacIntel,60.0024001,,,,,,,,,,,,,,,,,,,,,,,,,,,,,,kijlen,,,,,,,,,,,,,kijlen,images/br_kijlen.png,images/cb_kijlen.png,,,,,,,,,,,,0.204000109,0.114094103,1,0,0,kijlen,0,7,7,31,1
,,,,,,00100,2023-11-09_14h59.34.387,vbt_B1_day2,2022.2.4,MacIntel,60.0024001,,,,,,,,,,,,,,,,,,,,,,,,,,,,,,doodmoe,,,,,,,,,,,,,doodmoe,images/br_doodmoe.png,images/cb_doodmoe.png,,,,,,,,,,,,0.185334608,0.176317749,1,0,0,doodmoe,0,8,8,15,1
,,,,,,00100,2023-11-09_14h59.34.387,vbt_B1_day2,2022.2.4,MacIntel,60.0024001,,,,,,,,,,,,,,,,,,,,,,,,,,,,,,welzijn,,,,,,,,,,,,,welzijn,images/br_welzijn.png,images/cb_welzijn.png,,,,,,,,,,,,0.045373128,0.12202223,1,0,0,welzijn,0,9,9,52,1
,,,,,,00100,2023-11-09_14h59.34.387,vbt_B1_day2,2022.2.4,MacIntel,60.0024001,,,,,,,,,,,,,,,,,,,,,,,,,,,,,,zomers,,,,,,,,,,,,,zomers,images/br_zomers.png,images/cb_zomers.png,,,,,,,,,,,,0.130463732,-0.02429067,1,0,0,zomers,0,10,10,48,1
,,,,,,00100,2023-11-09_14h59.34.387,vbt_B1_day2,2022.2.4,MacIntel,60.0024001,,,,,,,,,,,,,,,,,,,,,,,,,,,,,,goon,,,,,,,,,,,,,goon,images/br_goon.png,images/cb_goon.png,,,,,,,,,,,,0.113923204,-0.02252004,1,0,0,goon,0,11,11,23,1
,,,,,,00100,2023-11-09_14h59.34.387,vbt_B1_day2,2022.2.4,MacIntel,60.0024001,,,,,,,,,,,,,,,,,,,,,,,,,,,,,,siffe..,,,,,,,,,,,,,sifferd,images/br_sifferd.png,images/cb_sifferd.png,,,,,,,,,,,,0.064598253,-0.045834757,1,0,0,siffe..,0,12,12,32,1
,,,,,,00100,2023-11-09_14h59.34.387,vbt_B1_day2,2022.2.4,MacIntel,60.0024001,,,,,,,,,,,,,,,,,,,,,,,,,,,,,,blad,,,,,,,,,,,,,blad,images/br_blad.png,images/cb_blad.png,,,,,,,,,,,,0.094051988,-0.053179999,1,0,0,blad,0,13,13,1,1
,,,,,,00100,2023-11-09_14h59.34.387,vbt_B1_day2,2022.2.4,MacIntel,60.0024001,,,,,,,,,,,,,,,,,,,,,,,,,,,,,,agressie,,,,,,,,,,,,,agressie,images/br_agressie.png,images/cb_agressie.png,,,,,,,,,,,,-0.110213826,-0.025043708,1,0,0,agressie,0,14,14,59,1
,,,,,,00100,2023-11-09_14h59.34.387,vbt_B1_day2,2022.2.4,MacIntel,60.0024001,,,,,,,,,,,,,,,,,,,,,,,,,,,,,,zegel,,,,,,,,,,,,,zegel,images/br_zegel.png,images/cb_zegel.png,,,,,,,,,,,,-0.066393161,-0.013570014,1,0,0,zegel,0,15,15,46,1
,,,,,,00100,2023-11-09_14h59.34.387,vbt_B1_day2,2022.2.4,MacIntel,60.0024001,,,,,,,,,,,,,,,,,,,,,,,,,,,,,,sora,,,,,,,,,,,,,sora,images/br_sora.png,images/cb_sora.png,,,,,,,,,,,,0.11246738,-0.003049995,1,0,0,sora,0,16,16,22,1
,,,,,,00100,2023-11-09_14h59.34.387,vbt_B1_day2,2022.2.4,MacIntel,60.0024001,,,,,,,,,,,,,,,,,,,,,,,,,,,,,,remel,,,,,,,,,,,,,remel,images/br_remel.png,images/cb_remel.png,,,,,,,,,,,,0.09099589,-0.019531996,1,0,0,remel,0,17,17,25,1
,,,,,,00100,2023-11-09_14h59.34.387,vbt_B1_day2,2022.2.4,MacIntel,60.0024001,,,,,,,,,,,,,,,,,,,,,,,,,,,,,,koorts,,,,,,,,,,,,,koorts,images/br_koorts.png,images/cb_koorts.png,,,,,,,,,,,,-0.16192315,-0.002373589,1,0,0,koorts,0,18,18,50,1
,,,,,,00100,2023-11-09_14h59.34.387,vbt_B1_day2,2022.2.4,MacIntel,60.0024001,,,,,,,,,,,,,,,,,,,,,,,,,,,,,,toeval,,,,,,,,,,,,,toeval,images/br_toeval.png,images/cb_toeval.png,,,,,,,,,,,,0.07748447,-0.012725321,1,0,0,toeval,0,19,19,11,1
,,,,,,00100,2023-11-09_14h59.34.387,vbt_B1_day2,2022.2.4,MacIntel,60.0024001,,,,,,,,,,,,,,,,,,,,,,,,,,,,,,stes,,,,,,,,,,,,,stes,images/br_stes.png,images/cb_stes.png,,,,,,,,,,,,0.13323032,0.057697923,1,0,0,stes,0,20,20,21,1
,,,,,,00100,2023-11-09_14h59.34.387,vbt_B1_day2,2022.2.4,MacIntel,60.0024001,,,,,,,,,,,,,,,,,,,,,,,,,,,,,,geld,,,,,,,,,,,,,geld,images/br_geld.png,images/cb_geld.png,,,,,,,,,,,,0.064895562,-0.038654446,1,0,0,geld,0,21,21,3,1
,,,,,,00100,2023-11-09_14h59.34.387,vbt_B1_day2,2022.2.4,MacIntel,60.0024001,,,,,,,,,,,,,,,,,,,,,,,,,,,,,,lijden,,,,,,,,,,,,,lijnen,images/br_lijnen.png,images/cb_lijnen.png,,,,,,,,,,,,0.165602553,-0.061905992,1,0,0,lijden,0,22,22,51,1
,,,,,,00100,2023-11-09_14h59.34.387,vbt_B1_day2,2022.2.4,MacIntel,60.0024001,,,,,,,,,,,,,,,,,,,,,,,,,,,,,,heilig,,,,,,,,,,,,,heilig,images/br_heilig.png,images/cb_heilig.png,,,,,,,,,,,,0.154125231,0.002322727,1,0,0,heilig,0,23,23,9,1
,,,,,,00100,2023-11-09_14h59.34.387,vbt_B1_day2,2022.2.4,MacIntel,60.0024001,,,,,,,,,,,,,,,,,,,,,,,,,,,,,,lokken,,,,,,,,,,,,,lokken,images/br_lokken.png,images/cb_lokken.png,,,,,,,,,,,,0.14899509,0.005509169,1,0,0,lokken,0,24,24,8,1
,,,,,,00100,2023-11-09_14h59.34.387,vbt_B1_day2,2022.2.4,MacIntel,60.0024001,,,,,,,,,,,,,,,,,,,,,,,,,,,,,,plannen,,,,,,,,,,,,,plannen,images/br_plannen.png,images/cb_plannen.png,,,,,,,,,,,,0.148608738,0.040175273,1,0,0,plannen,0,25,25,55,1
,,,,,,00100,2023-11-09_14h59.34.387,vbt_B1_day2,2022.2.4,MacIntel,60.0024001,,,,,,,,,,,,,,,,,,,,,,,,,,,,,,joes,,,,,,,,,,,,,joes,images/br_joes.png,images/cb_joes.png,,,,,,,,,,,,0.140035943,-0.059426134,1,0,0,joes,0,26,26,20,1
,,,,,,00100,2023-11-09_14h59.34.387,vbt_B1_day2,2022.2.4,MacIntel,60.0024001,,,,,,,,,,,,,,,,,,,,,,,,,,,,,,trots,,,,,,,,,,,,,trots,images/br_trots.png,images/cb_trots.png,,,,,,,,,,,,0.095499403,-0.015200229,1,0,0,trots,0,27,27,44,1
,,,,,,00100,2023-11-09_14h59.34.387,vbt_B1_day2,2022.2.4,MacIntel,60.0024001,,,,,,,,,,,,,,,,,,,,,,,,,,,,,,tweeling,,,,,,,,,,,,,tweeling,images/br_tweeling.png,images/cb_tweeling.png,,,,,,,,,,,,0.265071343,0.028327433,1,0,0,tweeling,0,28,28,58,1
,,,,,,00100,2023-11-09_14h59.34.387,vbt_B1_day2,2022.2.4,MacIntel,60.0024001,,,,,,,,,,,,,,,,,,,,,,,,,,,,,,breuk,,,,,,,,,,,,,breuk,images/br_breuk.png,images/cb_breuk.png,,,,,,,,,,,,0.186390245,0.001520725,1,0,0,breuk,0,29,29,45,1
,,,,,,00100,2023-11-09_14h59.34.387,vbt_B1_day2,2022.2.4,MacIntel,60.0024001,,,,,,,,,,,,,,,,,,,,,,,,,,,,,,heengeen,,,,,,,,,,,,,heengeen,images/br_heengeen.png,images/cb_heengeen.png,,,,,,,,,,,,0.320595093,-0.025954217,1,0,0,heengeen,0,30,30,38,1
,,,,,,00100,2023-11-09_14h59.34.387,vbt_B1_day2,2022.2.4,MacIntel,60.0024001,,,,,,,,,,,,,,,,,,,,,,,,,,,,,,feest...,,,,,,,,,,,,,feestdag,images/br_feestdag.png,images/cb_feestdag.png,,,,,,,,,,,,0.242525228,-0.02990665,1,0,0,feest...,0,31,31,17,1
,,,,,,00100,2023-11-09_14h59.34.387,vbt_B1_day2,2022.2.4,MacIntel,60.0024001,,,,,,,,,,,,,,,,,,,,,,,,,,,,,,jagen,,,,,,,,,,,,,jagen,images/br_jagen.png,images/cb_jagen.png,,,,,,,,,,,,0.144773492,-0.036311103,1,0,0,jagen,0,32,32,6,1
,,,,,,00100,2023-11-09_14h59.34.387,vbt_B1_day2,2022.2.4,MacIntel,60.0024001,,,,,,,,,,,,,,,,,,,,,,,,,,,,,,prekk..,,,,,,,,,,,,,prekken,images/br_prekken.png,images/cb_prekken.png,,,,,,,,,,,,0.102264676,-0.004867622,1,0,0,prekk..,0,33,33,34,1
,,,,,,00100,2023-11-09_14h59.34.387,vbt_B1_day2,2022.2.4,MacIntel,60.0024001,,,,,,,,,,,,,,,,,,,,,,,,,,,,,,aanzien,,,,,,,,,,,,,aanzien,images/br_aanzien.png,images/cb_aanzien.png,,,,,,,,,,,,0.204360012,-0.016929457,1,0,0,aanzien,0,34,34,13,1
,,,,,,00100,2023-11-09_14h59.34.387,vbt_B1_day2,2022.2.4,MacIntel,60.0024001,,,,,,,,,,,,,,,,,,,,,,,,,,,,,,thema,,,,,,,,,,,,,thema,images/br_thema.png,images/cb_thema.png,,,,,,,,,,,,0.149420369,-0.010358615,1,0,0,thema,0,35,35,47,1
,,,,,,00100,2023-11-09_14h59.34.387,vbt_B1_day2,2022.2.4,MacIntel,60.0024001,,,,,,,,,,,,,,,,,,,,,,,,,,,,,,kabel,,,,,,,,,,,,,kabel,images/br_kabel.png,images/cb_kabel.png,,,,,,,,,,,,0.085771756,0.00015018,1,0,0,kabel,0,36,36,7,1
,,,,,,00100,2023-11-09_14h59.34.387,vbt_B1_day2,2022.2.4,MacIntel,60.0024001,,,,,,,,,,,,,,,,,,,,,,,,,,,,,,jong,,,,,,,,,,,,,jong,images/br_jong.png,images/cb_jong.png,,,,,,,,,,,,0.109542169,-0.001661174,1,0,0,jong,0,37,37,43,1
,,,,,,00100,2023-11-09_14h59.34.387,vbt_B1_day2,2022.2.4,MacIntel,60.0024001,,,,,,,,,,,,,,,,,,,,,,,,,,,,,,piste,,,,,,,,,,,,,piste,images/br_piste.png,images/cb_piste.png,,,,,,,,,,,,0.074396837,-0.007009752,1,0,0,piste,0,38,38,5,1
,,,,,,00100,2023-11-09_14h59.34.387,vbt_B1_day2,2022.2.4,MacIntel,60.0024001,,,,,,,,,,,,,,,,,,,,,,,,,,,,,,strikken,,,,,,,,,,,,,strikken,images/br_strikken.png,images/cb_strikken.png,,,,,,,,,,,,0.222899916,0.006490818,1,0,0,strikken,0,39,39,18,1
,,,,,,00100,2023-11-09_14h59.34.387,vbt_B1_day2,2022.2.4,MacIntel,60.0024001,,,,,,,,,,,,,,,,,,,,,,,,,,,,,,opdatten,,,,,,,,,,,,,opdatten,images/br_opdatten.png,images/cb_opdatten.png,,,,,,,,,,,,0.132690294,-0.021705594,1,0,0,opdatten,0,40,40,37,1
,,,,,,00100,2023-11-09_14h59.34.387,vbt_B1_day2,2022.2.4,MacIntel,60.0024001,,,,,,,,,,,,,,,,,,,,,,,,,,,,,,aan....,,,,,,,,,,,,,aanvraag,images/br_aanvraag.png,images/cb_aanvraag.png,,,,,,,,,,,,-0.063350694,-0.012048204,1,0,0,aan....,0,41,41,57,1
,,,,,,00100,2023-11-09_14h59.34.387,vbt_B1_day2,2022.2.4,MacIntel,60.0024001,,,,,,,,,,,,,,,,,,,,,,,,,,,,,,kenzi.,,,,,,,,,,,,,kenzis,images/br_kenzis.png,images/cb_kenzis.png,,,,,,,,,,,,0.109159207,-0.058162672,1,0,0,kenzi.,0,42,42,30,1
,,,,,,00100,2023-11-09_14h59.34.387,vbt_B1_day2,2022.2.4,MacIntel,60.0024001,,,,,,,,,,,,,,,,,,,,,,,,,,,,,,ophuim..,,,,,,,,,,,,,ophuimen,images/br_ophuimen.png,images/cb_ophuimen.png,,,,,,,,,,,,0.009819878,-0.053765734,1,0,0,ophuim..,0,43,43,36,1
,,,,,,00100,2023-11-09_14h59.34.387,vbt_B1_day2,2022.2.4,MacIntel,60.0024001,,,,,,,,,,,,,,,,,,,,,,,,,,,,,,krimm..,,,,,,,,,,,,,krimmen,images/br_krimmen.png,images/cb_krimmen.png,,,,,,,,,,,,0.155067003,-0.007252028,1,0,0,krimm..,0,44,44,35,1
,,,,,,00100,2023-11-09_14h59.34.387,vbt_B1_day2,2022.2.4,MacIntel,60.0024001,,,,,,,,,,,,,,,,,,,,,,,,,,,,,,woning,,,,,,,,,,,,,woning,images/br_woning.png,images/cb_woning.png,,,,,,,,,,,,0.156784871,0.006188761,1,0,0,woning,0,45,45,10,1
,,,,,,00100,2023-11-09_14h59.34.387,vbt_B1_day2,2022.2.4,MacIntel,60.0024001,,,,,,,,,,,,,,,,,,,,,,,,,,,,,,lurgen,,,,,,,,,,,,,lurgen,images/br_lurgen.png,images/cb_lurgen.png,,,,,,,,,,,,0.139759115,-0.060898675,1,0,0,lurgen,0,46,46,29,1
,,,,,,00100,2023-11-09_14h59.34.387,vbt_B1_day2,2022.2.4,MacIntel,60.0024001,,,,,,,,,,,,,,,,,,,,,,,,,,,,,,anarchie,,,,,,,,,,,,,anarchie,images/br_anarchie.png,images/cb_anarchie.png,,,,,,,,,,,,-0.011579861,-0.006909485,1,0,0,anarchie,0,47,47,16,1
,,,,,,00100,2023-11-09_14h59.34.387,vbt_B1_day2,2022.2.4,MacIntel,60.0024001,,,,,,,,,,,,,,,,,,,,,,,,,,,,,,wijve,,,,,,,,,,,,,wijve,images/br_wijve.png,images/cb_wijve.png,,,,,,,,,,,,0.025553453,0.060172255,1,0,0,wijve,0,48,48,27,1
,,,,,,00100,2023-11-09_14h59.34.387,vbt_B1_day2,2022.2.4,MacIntel,60.0024001,,,,,,,,,,,,,,,,,,,,,,,,,,,,,,negel,,,,,,,,,,,,,negel,images/br_negel.png,images/cb_negel.png,,,,,,,,,,,,0.007880656,-0.020242649,1,0,0,negel,0,49,49,24,1
,,,,,,00100,2023-11-09_14h59.34.387,vbt_B1_day2,2022.2.4,MacIntel,60.0024001,,,,,,,,,,,,,,,,,,,,,,,,,,,,,,kasteel,,,,,,,,,,,,,kasteel,images/br_kasteel.png,images/cb_kasteel.png,,,,,,,,,,,,0.13061815,0.058908183,1,0,0,kasteel,0,50,50,14,1
,,,,,,00100,2023-11-09_14h59.34.387,vbt_B1_day2,2022.2.4,MacIntel,60.0024001,,,,,,,,,,,,,,,,,,,,,,,,,,,,,,sjij..,,,,,,,,,,,,,sjijfel,images/br_sjijfel.png,images/cb_sjijfel.png,,,,,,,,,,,,0.13061815,0.094826931,1,0,0,sjij..,0,51,51,33,1
,,,,,,00100,2023-11-09_14h59.34.387,vbt_B1_day2,2022.2.4,MacIntel,60.0024001,,,,,,,,,,,,,,,,,,,,,,,,,,,,,,eenhoorn,,,,,,,,,,,,,eenhoorn,images/br_eenhoorn.png,images/cb_eenhoorn.png,,,,,,,,,,,,0.098753798,0.012244805,1,0,0,eenhoorn,0,52,52,19,1
,,,,,,00100,2023-11-09_14h59.34.387,vbt_B1_day2,2022.2.4,MacIntel,60.0024001,,,,,,,,,,,,,,,,,,,,,,,,,,,,,,inzi..,,,,,,,,,,,,,inzicht,images/br_inzicht.png,images/cb_inzicht.png,,,,,,,,,,,,0.088759698,-0.008203125,1,0,0,inzi..,0,53,53,53,1
,,,,,,00100,2023-11-09_14h59.34.387,vbt_B1_day2,2022.2.4,MacIntel,60.0024001,,,,,,,,,,,,,,,,,,,,,,,,,,,,,,ningen,,,,,,,,,,,,,ningen,images/br_ningen.png,images/cb_ningen.png,,,,,,,,,,,,0.135270996,0.006978421,1,0,0,ningen,0,54,54,28,1
,,,,,,00100,2023-11-09_14h59.34.387,vbt_B1_day2,2022.2.4,MacIntel,60.0024001,,,,,,,,,,,,,,,,,,,,,,,,,,,,,,manie,,,,,,,,,,,,,manieren,images/br_manieren.png,images/cb_manieren.png,,,,,,,,,,,,-0.217426215,0.042622274,1,0,0,manie,0,55,55,56,1
,,,,,,00100,2023-11-09_14h59.34.387,vbt_B1_day2,2022.2.4,MacIntel,60.0024001,,,,,,,,,,,,,,,,,,,,,,,,,,,,,,tand,,,,,,,,,,,,,tand,images/br_tand.png,images/cb_tand.png,,,,,,,,,,,,0.039489814,-0.031859436,1,0,0,tand,0,56,56,42,1
,,,,,,00100,2023-11-09_14h59.34.387,vbt_B1_day2,2022.2.4,MacIntel,60.0024001,,,,,,,,,,,,,,,,,,,,,,,,,,,,,,bloeien,,,,,,,,,,,,,bloeien,images/br_bloeien.png,images/cb_bloeien.png,,,,,,,,,,,,0.086354302,-0.028140089,1,0,0,bloeien,0,57,57,12,1
,,,,,,00100,2023-11-09_14h59.34.387,vbt_B1_day2,2022.2.4,MacIntel,60.0024001,,,,,,,,,,,,,,,,,,,,,,,,,,,,,,dode,,,,,,,,,,,,,dode,images/br_dode.png,images/cb_dode.png,,,,,,,,,,,,0.061088799,-0.005235087,1,0,0,dode,0,58,58,41,1
,,,,,,00100,2023-11-09_14h59.34.387,vbt_B1_day2,2022.2.4,MacIntel,60.0024001,,,,,,,,,,,,,,,,,,,,,,,,,,,,,,bereuw..,,,,,,,,,,,,,bereuwen,images/br_bereuwen.png,images/cb_bereuwen.png,,,,,,,,,,,,0.061903347,-0.019249098,1,0,0,bereuw..,0,59,59,39,1
,,,,,,00100,2023-11-09_14h59.34.387,vbt_B1_day2,2022.2.4,MacIntel,60.0024001,,,,,,,,,,,,,,,,,,,,,,,,,,,,,,,,,,,,,,,,,,,,,,,,,,,,,,,,,,,,,,,,,,,
