welcome_mouse.x,welcome_mouse.y,welcome_mouse.leftButton,welcome_mouse.midButton,welcome_mouse.rightButton,welcome_mouse.time,"ID",date,expName,psychopyVersion,OS,frameRate,refresh_mouse.x,refresh_mouse.y,refresh_mouse.leftButton,refresh_mouse.midButton,refresh_mouse.rightButton,refresh_mouse.time,braille_mouse.x,braille_mouse.y,braille_mouse.leftButton,braille_mouse.midButton,braille_mouse.rightButton,braille_mouse.time,trials.thisRepN,trials.thisTrialN,trials.thisN,trials.thisIndex,trials.ran,nlLet,brLet,cbLet,trainInstr_mouse.x,trainInstr_mouse.y,trainInstr_mouse.leftButton,trainInstr_mouse.midButton,trainInstr_mouse.rightButton,trainInstr_mouse.time,translation_key.keys,translation_key.corr,translation_key.rt,word_rsp.text,word_mouse.x,word_mouse.y,word_mouse.leftButton,word_mouse.midButton,word_mouse.rightButton,word_mouse.time,train_loop.thisRepN,train_loop.thisTrialN,train_loop.thisN,train_loop.thisIndex,train_loop.ran,nlWrd,brWrd,cbWrd,test,testResp,mouse.x,mouse.y,mouse.leftButton,mouse.midButton,mouse.rightButton,testInstr_mouse.x,testInstr_mouse.y,testInstr_mouse.leftButton,testInstr_mouse.midButton,testInstr_mouse.rightButton,test_mouse.x,test_mouse.y,test_mouse.leftButton,test_mouse.midButton,test_mouse.rightButton,test_response.text,test_loop.thisRepN,test_loop.thisTrialN,test_loop.thisN,test_loop.thisIndex,test_loop.ran
-0.166666667,-0.252777806,1,0,0,7.8542,00087,2023-10-24_16h36.35.934,vbt_B1_day2,2022.2.4,Win32,60.26637739,,,,,,,,,,,,,,,,,,,,,,,,,,,,,,,,,,,,,,,,,,,,,,,,,,,,,,,,,,,,,,,,,,,
,,,,,,00087,2023-10-24_16h36.35.934,vbt_B1_day2,2022.2.4,Win32,60.26637739,-0.166666667,-0.252777806,1,0,0,6.3007,,,,,,,,,,,,,,,,,,,,,,,,,,,,,,,,,,,,,,,,,,,,,,,,,,,,,,,,,,,,,
,,,,,,00087,2023-10-24_16h36.35.934,vbt_B1_day2,2022.2.4,Win32,60.26637739,,,,,,,-0.166666667,-0.252777806,1,0,0,0.8668,0,0,0,3,1,d,images/br_d.png,images/cb_d.png,,,,,,,,,,,,,,,,,,,,,,,,,,,,,,,,,,,,,,,,,,,,,,,
,,,,,,00087,2023-10-24_16h36.35.934,vbt_B1_day2,2022.2.4,Win32,60.26637739,,,,,,,-0.166666667,-0.252777806,1,0,0,0.3337,0,1,1,9,1,j,images/br_j.png,images/cb_j.png,,,,,,,,,,,,,,,,,,,,,,,,,,,,,,,,,,,,,,,,,,,,,,,
,,,,,,00087,2023-10-24_16h36.35.934,vbt_B1_day2,2022.2.4,Win32,60.26637739,,,,,,,-0.166666667,-0.252777806,1,0,0,0.817,0,2,2,7,1,h,images/br_h.png,images/cb_h.png,,,,,,,,,,,,,,,,,,,,,,,,,,,,,,,,,,,,,,,,,,,,,,,
,,,,,,00087,2023-10-24_16h36.35.934,vbt_B1_day2,2022.2.4,Win32,60.26637739,,,,,,,-0.166666667,-0.252777806,1,0,0,0.183,0,3,3,6,1,g,images/br_g.png,images/cb_g.png,,,,,,,,,,,,,,,,,,,,,,,,,,,,,,,,,,,,,,,,,,,,,,,
,,,,,,00087,2023-10-24_16h36.35.934,vbt_B1_day2,2022.2.4,Win32,60.26637739,,,,,,,-0.166666667,-0.252777806,1,0,0,0.9003,0,4,4,18,1,s,images/br_s.png,images/cb_s.png,,,,,,,,,,,,,,,,,,,,,,,,,,,,,,,,,,,,,,,,,,,,,,,
,,,,,,00087,2023-10-24_16h36.35.934,vbt_B1_day2,2022.2.4,Win32,60.26637739,,,,,,,-0.166666667,-0.252777806,1,0,0,0.8645,0,5,5,11,1,l,images/br_l.png,images/cb_l.png,,,,,,,,,,,,,,,,,,,,,,,,,,,,,,,,,,,,,,,,,,,,,,,
,,,,,,00087,2023-10-24_16h36.35.934,vbt_B1_day2,2022.2.4,Win32,60.26637739,,,,,,,-0.166666667,-0.252777806,1,0,0,0.3331,0,6,6,17,1,r,images/br_r.png,images/cb_r.png,,,,,,,,,,,,,,,,,,,,,,,,,,,,,,,,,,,,,,,,,,,,,,,
,,,,,,00087,2023-10-24_16h36.35.934,vbt_B1_day2,2022.2.4,Win32,60.26637739,,,,,,,-0.166666667,-0.252777806,1,0,0,0.767,0,7,7,0,1,a,images/br_a.png,images/cb_a.png,,,,,,,,,,,,,,,,,,,,,,,,,,,,,,,,,,,,,,,,,,,,,,,
,,,,,,00087,2023-10-24_16h36.35.934,vbt_B1_day2,2022.2.4,Win32,60.26637739,,,,,,,-0.166666667,-0.252777806,1,0,0,0.2357,0,8,8,1,1,b,images/br_b.png,images/cb_b.png,,,,,,,,,,,,,,,,,,,,,,,,,,,,,,,,,,,,,,,,,,,,,,,
,,,,,,00087,2023-10-24_16h36.35.934,vbt_B1_day2,2022.2.4,Win32,60.26637739,,,,,,,-0.166666667,-0.252777806,1,0,0,0.5496,0,9,9,25,1,z,images/br_z.png,images/cb_z.png,,,,,,,,,,,,,,,,,,,,,,,,,,,,,,,,,,,,,,,,,,,,,,,
,,,,,,00087,2023-10-24_16h36.35.934,vbt_B1_day2,2022.2.4,Win32,60.26637739,,,,,,,-0.166666667,-0.252777806,1,0,0,0.4664,0,10,10,23,1,x,images/br_x.png,images/cb_x.png,,,,,,,,,,,,,,,,,,,,,,,,,,,,,,,,,,,,,,,,,,,,,,,
,,,,,,00087,2023-10-24_16h36.35.934,vbt_B1_day2,2022.2.4,Win32,60.26637739,,,,,,,-0.166666667,-0.252777806,1,0,0,0.2499,0,11,11,22,1,w,images/br_w.png,images/cb_w.png,,,,,,,,,,,,,,,,,,,,,,,,,,,,,,,,,,,,,,,,,,,,,,,
,,,,,,00087,2023-10-24_16h36.35.934,vbt_B1_day2,2022.2.4,Win32,60.26637739,,,,,,,-0.166666667,-0.252777806,1,0,0,1.6107,0,12,12,10,1,k,images/br_k.png,images/cb_k.png,,,,,,,,,,,,,,,,,,,,,,,,,,,,,,,,,,,,,,,,,,,,,,,
,,,,,,00087,2023-10-24_16h36.35.934,vbt_B1_day2,2022.2.4,Win32,60.26637739,,,,,,,-0.166666667,-0.252777806,1,0,0,0.9492,0,13,13,5,1,f,images/br_f.png,images/cb_f.png,,,,,,,,,,,,,,,,,,,,,,,,,,,,,,,,,,,,,,,,,,,,,,,
,,,,,,00087,2023-10-24_16h36.35.934,vbt_B1_day2,2022.2.4,Win32,60.26637739,,,,,,,-0.166666667,-0.252777806,1,0,0,1.3002,0,14,14,24,1,y,images/br_y.png,images/cb_y.png,,,,,,,,,,,,,,,,,,,,,,,,,,,,,,,,,,,,,,,,,,,,,,,
,,,,,,00087,2023-10-24_16h36.35.934,vbt_B1_day2,2022.2.4,Win32,60.26637739,,,,,,,-0.166666667,-0.252777806,1,0,0,0.6828,0,15,15,20,1,u,images/br_u.png,images/cb_u.png,,,,,,,,,,,,,,,,,,,,,,,,,,,,,,,,,,,,,,,,,,,,,,,
,,,,,,00087,2023-10-24_16h36.35.934,vbt_B1_day2,2022.2.4,Win32,60.26637739,,,,,,,-0.166666667,-0.252777806,1,0,0,1.9499,0,16,16,12,1,m,images/br_m.png,images/cb_m.png,,,,,,,,,,,,,,,,,,,,,,,,,,,,,,,,,,,,,,,,,,,,,,,
,,,,,,00087,2023-10-24_16h36.35.934,vbt_B1_day2,2022.2.4,Win32,60.26637739,,,,,,,-0.166666667,-0.252777806,1,0,0,1.7833,0,17,17,8,1,i,images/br_i.png,images/cb_i.png,,,,,,,,,,,,,,,,,,,,,,,,,,,,,,,,,,,,,,,,,,,,,,,
,,,,,,00087,2023-10-24_16h36.35.934,vbt_B1_day2,2022.2.4,Win32,60.26637739,,,,,,,-0.166666667,-0.252777806,1,0,0,0.7991,0,18,18,13,1,n,images/br_n.png,images/cb_n.png,,,,,,,,,,,,,,,,,,,,,,,,,,,,,,,,,,,,,,,,,,,,,,,
,,,,,,00087,2023-10-24_16h36.35.934,vbt_B1_day2,2022.2.4,Win32,60.26637739,,,,,,,-0.166666667,-0.252777806,1,0,0,6.3491,0,19,19,14,1,o,images/br_o.png,images/cb_o.png,,,,,,,,,,,,,,,,,,,,,,,,,,,,,,,,,,,,,,,,,,,,,,,
,,,,,,00087,2023-10-24_16h36.35.934,vbt_B1_day2,2022.2.4,Win32,60.26637739,,,,,,,-0.166666667,-0.252777806,1,0,0,0.6169,0,20,20,15,1,p,images/br_p.png,images/cb_p.png,,,,,,,,,,,,,,,,,,,,,,,,,,,,,,,,,,,,,,,,,,,,,,,
,,,,,,00087,2023-10-24_16h36.35.934,vbt_B1_day2,2022.2.4,Win32,60.26637739,,,,,,,-0.166666667,-0.252777806,1,0,0,0.6825,0,21,21,19,1,t,images/br_t.png,images/cb_t.png,,,,,,,,,,,,,,,,,,,,,,,,,,,,,,,,,,,,,,,,,,,,,,,
,,,,,,00087,2023-10-24_16h36.35.934,vbt_B1_day2,2022.2.4,Win32,60.26637739,,,,,,,-0.104629587,-0.112037023,1,0,0,0.5164,0,22,22,2,1,c,images/br_c.png,images/cb_c.png,,,,,,,,,,,,,,,,,,,,,,,,,,,,,,,,,,,,,,,,,,,,,,,
,,,,,,00087,2023-10-24_16h36.35.934,vbt_B1_day2,2022.2.4,Win32,60.26637739,,,,,,,-0.142592607,-0.083333333,1,0,0,0.833,0,23,23,16,1,q,images/br_q.png,images/cb_q.png,,,,,,,,,,,,,,,,,,,,,,,,,,,,,,,,,,,,,,,,,,,,,,,
,,,,,,00087,2023-10-24_16h36.35.934,vbt_B1_day2,2022.2.4,Win32,60.26637739,,,,,,,-0.142592607,-0.083333333,1,0,0,0.1,0,24,24,4,1,e,images/br_e.png,images/cb_e.png,,,,,,,,,,,,,,,,,,,,,,,,,,,,,,,,,,,,,,,,,,,,,,,
,,,,,,00087,2023-10-24_16h36.35.934,vbt_B1_day2,2022.2.4,Win32,60.26637739,,,,,,,-0.142592607,-0.083333333,1,0,0,0.4835,0,25,25,21,1,v,images/br_v.png,images/cb_v.png,,,,,,,,,,,,,,,,,,,,,,,,,,,,,,,,,,,,,,,,,,,,,,,
,,,,,,00087,2023-10-24_16h36.35.934,vbt_B1_day2,2022.2.4,Win32,60.26637739,,,,,,,,,,,,,,,,,,,,,-0.046296296,-0.14907406,1,0,0,30.2338,,,,,,,,,,,,,,,,,,,,,,,,,,,,,,,,,,,,,,,,,
,,,,,,00087,2023-10-24_16h36.35.934,vbt_B1_day2,2022.2.4,Win32,60.26637739,,,,,,,,,,,,,,,,,,,,,,,,,,,down,0,15.3938,,-0.046296296,-0.14907406,1,0,0,4.1834,0,0,0,144,1,eetlust,images/br_eetlust.png,images/cb_eetlust.png,0,,,,,,,,,,,,,,,,,,,,,,
,,,,,,00087,2023-10-24_16h36.35.934,vbt_B1_day2,2022.2.4,Win32,60.26637739,,,,,,,,,,,,,,,,,,,,,,,,,,,down,0,16.1465,,-0.046296296,-0.14907406,1,0,0,3.8834,0,1,1,69,1,waken,images/br_waken.png,images/cb_waken.png,0,,,,,,,,,,,,,,,,,,,,,,
,,,,,,00087,2023-10-24_16h36.35.934,vbt_B1_day2,2022.2.4,Win32,60.26637739,,,,,,,,,,,,,,,,,,,,,,,,,,,down,0,3.2208,,-0.046296296,-0.14907406,1,0,0,0.9999,0,2,2,17,1,taal,images/br_taal.png,images/cb_taal.png,1,taal,,,,,,,,,,,,,,,,,,,,,
,,,,,,00087,2023-10-24_16h36.35.934,vbt_B1_day2,2022.2.4,Win32,60.26637739,,,,,,,,,,,,,,,,,,,,,,,,,,,down,0,3.2171,,-0.046296296,-0.14907406,1,0,0,2.5002,0,3,3,35,1,lust,images/br_lust.png,images/cb_lust.png,0,,,,,,,,,,,,,,,,,,,,,,
,,,,,,00087,2023-10-24_16h36.35.934,vbt_B1_day2,2022.2.4,Win32,60.26637739,,,,,,,,,,,,,,,,,,,,,,,,,,,down,0,0.0691,,-0.059259273,-0.154629672,1,0,0,1.4496,0,4,4,2,1,jaar,images/br_jaar.png,images/cb_jaar.png,0,,,,,,,,,,,,,,,,,,,,,,
,,,,,,00087,2023-10-24_16h36.35.934,vbt_B1_day2,2022.2.4,Win32,60.26637739,,,,,,,,,,,,,,,,,,,,,,,,,,,down,0,6.6836,,-0.059259273,-0.154629672,1,0,0,3.333,0,5,5,64,1,wegen,images/br_wegen.png,images/cb_wegen.png,0,,,,,,,,,,,,,,,,,,,,,,
,,,,,,00087,2023-10-24_16h36.35.934,vbt_B1_day2,2022.2.4,Win32,60.26637739,,,,,,,,,,,,,,,,,,,,,,,,,,,down,0,1.441,,-0.059259273,-0.154629672,1,0,0,7.3995,0,6,6,197,1,spanning,images/br_spanning.png,images/cb_spanning.png,0,,,,,,,,,,,,,,,,,,,,,,
,,,,,,00087,2023-10-24_16h36.35.934,vbt_B1_day2,2022.2.4,Win32,60.26637739,,,,,,,,,,,,,,,,,,,,,,,,,,,down,0,12.5289,,-0.059259273,-0.154629672,1,0,0,1.7328,0,7,7,31,1,poes,images/br_poes.png,images/cb_poes.png,0,,,,,,,,,,,,,,,,,,,,,,
,,,,,,00087,2023-10-24_16h36.35.934,vbt_B1_day2,2022.2.4,Win32,60.26637739,,,,,,,,,,,,,,,,,,,,,,,,,,,down,0,2.1996,,-0.059259273,-0.154629672,1,0,0,4.0542,0,8,8,8,1,knie,images/br_knie.png,images/cb_knie.png,0,,,,,,,,,,,,,,,,,,,,,,
,,,,,,00087,2023-10-24_16h36.35.934,vbt_B1_day2,2022.2.4,Win32,60.26637739,,,,,,,,,,,,,,,,,,,,,,,,,,,down,0,13.8832,,-0.059259273,-0.154629672,1,0,0,2.5671,0,9,9,58,1,tekst,images/br_tekst.png,images/cb_tekst.png,1,tekst,,,,,,,,,,,,,,,,,,,,,
,,,,,,00087,2023-10-24_16h36.35.934,vbt_B1_day2,2022.2.4,Win32,60.26637739,,,,,,,,,,,,,,,,,,,,,,,,,,,down,0,4.0339,,-0.059259273,-0.154629672,1,0,0,2.9672,0,10,10,62,1,knaap,images/br_knaap.png,images/cb_knaap.png,0,,,,,,,,,,,,,,,,,,,,,,
,,,,,,00087,2023-10-24_16h36.35.934,vbt_B1_day2,2022.2.4,Win32,60.26637739,,,,,,,,,,,,,,,,,,,,,,,,,,,down,0,40.9812,,-0.059259273,-0.154629672,1,0,0,2.1002,0,11,11,97,1,loyaal,images/br_loyaal.png,images/cb_loyaal.png,1,lo.aal,,,,,,,,,,,,,,,,,,,,,
,,,,,,00087,2023-10-24_16h36.35.934,vbt_B1_day2,2022.2.4,Win32,60.26637739,,,,,,,,,,,,,,,,,,,,,,,,,,,down,0,12.8666,,-0.059259273,-0.154629672,1,0,0,2.8498,0,12,12,50,1,stoom,images/br_stoom.png,images/cb_stoom.png,0,,,,,,,,,,,,,,,,,,,,,,
,,,,,,00087,2023-10-24_16h36.35.934,vbt_B1_day2,2022.2.4,Win32,60.26637739,,,,,,,,,,,,,,,,,,,,,,,,,,,down,0,21.0272,,-0.059259273,-0.154629672,1,0,0,3.1165,0,13,13,147,1,komisch,images/br_komisch.png,images/cb_komisch.png,0,,,,,,,,,,,,,,,,,,,,,,
,,,,,,00087,2023-10-24_16h36.35.934,vbt_B1_day2,2022.2.4,Win32,60.26637739,,,,,,,,,,,,,,,,,,,,,,,,,,,down,0,6.1415,,-0.059259273,-0.154629672,1,0,0,1.6497,0,14,14,65,1,parel,images/br_parel.png,images/cb_parel.png,0,,,,,,,,,,,,,,,,,,,,,,
,,,,,,00087,2023-10-24_16h36.35.934,vbt_B1_day2,2022.2.4,Win32,60.26637739,,,,,,,,,,,,,,,,,,,,,,,,,,,down,0,7.9364,,-0.059259273,-0.154629672,1,0,0,1.4829,0,15,15,151,1,aanzoek,images/br_aanzoek.png,images/cb_aanzoek.png,0,,,,,,,,,,,,,,,,,,,,,,
,,,,,,00087,2023-10-24_16h36.35.934,vbt_B1_day2,2022.2.4,Win32,60.26637739,,,,,,,,,,,,,,,,,,,,,,,,,,,down,0,3.3997,,-0.059259273,-0.154629672,1,0,0,2.3489,0,16,16,89,1,slapen,images/br_slapen.png,images/cb_slapen.png,0,,,,,,,,,,,,,,,,,,,,,,
,,,,,,00087,2023-10-24_16h36.35.934,vbt_B1_day2,2022.2.4,Win32,60.26637739,,,,,,,,,,,,,,,,,,,,,,,,,,,down,0,3.0019,,-0.059259273,-0.154629672,1,0,0,1.5985,0,17,17,121,1,twijfel,images/br_twijfel.png,images/cb_twijfel.png,0,,,,,,,,,,,,,,,,,,,,,,
,,,,,,00087,2023-10-24_16h36.35.934,vbt_B1_day2,2022.2.4,Win32,60.26637739,,,,,,,,,,,,,,,,,,,,,,,,,,,down,0,3.6165,,-0.059259273,-0.154629672,1,0,0,1.8167,0,18,18,42,1,bleek,images/br_bleek.png,images/cb_bleek.png,0,,,,,,,,,,,,,,,,,,,,,,
,,,,,,00087,2023-10-24_16h36.35.934,vbt_B1_day2,2022.2.4,Win32,60.26637739,,,,,,,,,,,,,,,,,,,,,,,,,,,down,0,8.7493,,-0.059259273,-0.154629672,1,0,0,1.0504,0,19,19,117,1,kennis,images/br_kennis.png,images/cb_kennis.png,0,,,,,,,,,,,,,,,,,,,,,,
,,,,,,00087,2023-10-24_16h36.35.934,vbt_B1_day2,2022.2.4,Win32,60.26637739,,,,,,,,,,,,,,,,,,,,,,,,,,,down,0,11.9172,,-0.059259273,-0.154629672,1,0,0,1.3994,0,20,20,190,1,goedkoop,images/br_goedkoop.png,images/cb_goedkoop.png,0,,,,,,,,,,,,,,,,,,,,,,
,,,,,,00087,2023-10-24_16h36.35.934,vbt_B1_day2,2022.2.4,Win32,60.26637739,,,,,,,,,,,,,,,,,,,,,,,,,,,down,0,4.9673,,-0.059259273,-0.154629672,1,0,0,1.9838,0,21,21,138,1,akkoord,images/br_akkoord.png,images/cb_akkoord.png,1,akkoord,,,,,,,,,,,,,,,,,,,,,
,,,,,,00087,2023-10-24_16h36.35.934,vbt_B1_day2,2022.2.4,Win32,60.26637739,,,,,,,,,,,,,,,,,,,,,,,,,,,down,0,6.2668,,-0.059259273,-0.154629672,1,0,0,1.2991,0,22,22,27,1,dans,images/br_dans.png,images/cb_dans.png,0,,,,,,,,,,,,,,,,,,,,,,
,,,,,,00087,2023-10-24_16h36.35.934,vbt_B1_day2,2022.2.4,Win32,60.26637739,,,,,,,,,,,,,,,,,,,,,,,,,,,down,0,6.1848,,-0.059259273,-0.154629672,1,0,0,3.9988,0,23,23,152,1,afnemen,images/br_afnemen.png,images/cb_afnemen.png,0,,,,,,,,,,,,,,,,,,,,,,
,,,,,,00087,2023-10-24_16h36.35.934,vbt_B1_day2,2022.2.4,Win32,60.26637739,,,,,,,,,,,,,,,,,,,,,,,,,,,down,0,2.8348,,-0.059259273,-0.154629672,1,0,0,1.2663,0,24,24,70,1,ijdel,images/br_ijdel.png,images/cb_ijdel.png,0,,,,,,,,,,,,,,,,,,,,,,
,,,,,,00087,2023-10-24_16h36.35.934,vbt_B1_day2,2022.2.4,Win32,60.26637739,,,,,,,,,,,,,,,,,,,,,,,,,,,down,0,3.473,,-0.059259273,-0.154629672,1,0,0,0.7328,0,25,25,48,1,steel,images/br_steel.png,images/cb_steel.png,0,,,,,,,,,,,,,,,,,,,,,,
,,,,,,00087,2023-10-24_16h36.35.934,vbt_B1_day2,2022.2.4,Win32,60.26637739,,,,,,,,,,,,,,,,,,,,,,,,,,,down,0,6.723,,-0.059259273,-0.155555584,1,0,0,1.1833,0,26,26,86,1,woning,images/br_woning.png,images/cb_woning.png,0,,,,,,,,,,,,,,,,,,,,,,
,,,,,,00087,2023-10-24_16h36.35.934,vbt_B1_day2,2022.2.4,Win32,60.26637739,,,,,,,,,,,,,,,,,,,,,,,,,,,down,0,17.4873,,-0.059259273,-0.155555584,1,0,0,4.6664,0,27,27,44,1,flits,images/br_flits.png,images/cb_flits.png,0,,,,,,,,,,,,,,,,,,,,,,
,,,,,,00087,2023-10-24_16h36.35.934,vbt_B1_day2,2022.2.4,Win32,60.26637739,,,,,,,,,,,,,,,,,,,,,,,,,,,down,0,5.7336,,-0.059259273,-0.155555584,1,0,0,1.0998,0,28,28,40,1,schep,images/br_schep.png,images/cb_schep.png,0,,,,,,,,,,,,,,,,,,,,,,
,,,,,,00087,2023-10-24_16h36.35.934,vbt_B1_day2,2022.2.4,Win32,60.26637739,,,,,,,,,,,,,,,,,,,,,,,,,,,down,0,3.3107,,-0.059259273,-0.155555584,1,0,0,0.8833,0,29,29,82,1,muziek,images/br_muziek.png,images/cb_muziek.png,0,,,,,,,,,,,,,,,,,,,,,,
,,,,,,00087,2023-10-24_16h36.35.934,vbt_B1_day2,2022.2.4,Win32,60.26637739,,,,,,,,,,,,,,,,,,,,,,,,,,,down,0,2.3222,,-0.059259273,-0.155555584,1,0,0,0.7331,0,30,30,9,1,hier,images/br_hier.png,images/cb_hier.png,0,,,,,,,,,,,,,,,,,,,,,,
,,,,,,00087,2023-10-24_16h36.35.934,vbt_B1_day2,2022.2.4,Win32,60.26637739,,,,,,,,,,,,,,,,,,,,,,,,,,,down,0,6.8391,,-0.059259273,-0.155555584,1,0,0,2.1875,0,31,31,175,1,heengaan,images/br_heengaan.png,images/cb_heengaan.png,0,,,,,,,,,,,,,,,,,,,,,,
,,,,,,00087,2023-10-24_16h36.35.934,vbt_B1_day2,2022.2.4,Win32,60.26637739,,,,,,,,,,,,,,,,,,,,,,,,,,,down,0,7.7324,,-0.059259273,-0.155555584,1,0,0,5.5009,0,32,32,96,1,slagen,images/br_slagen.png,images/cb_slagen.png,1,slagen,,,,,,,,,,,,,,,,,,,,,
,,,,,,00087,2023-10-24_16h36.35.934,vbt_B1_day2,2022.2.4,Win32,60.26637739,,,,,,,,,,,,,,,,,,,,,,,,,,,down,0,40.3987,,-0.059259273,-0.155555584,1,0,0,1.6996,0,33,33,132,1,grappen,images/br_grappen.png,images/cb_grappen.png,0,,,,,,,,,,,,,,,,,,,,,,
,,,,,,00087,2023-10-24_16h36.35.934,vbt_B1_day2,2022.2.4,Win32,60.26637739,,,,,,,,,,,,,,,,,,,,,,,,,,,down,0,11.433,,-0.059259273,-0.155555584,1,0,0,0.6964,0,34,34,6,1,diep,images/br_diep.png,images/cb_diep.png,0,,,,,,,,,,,,,,,,,,,,,,
,,,,,,00087,2023-10-24_16h36.35.934,vbt_B1_day2,2022.2.4,Win32,60.26637739,,,,,,,,,,,,,,,,,,,,,,,,,,,down,0,0.2169,,-0.059259273,-0.155555584,0,0,1,0.7179,0,35,35,81,1,dubbel,images/br_dubbel.png,images/cb_dubbel.png,0,,,,,,,,,,,,,,,,,,,,,,
,,,,,,00087,2023-10-24_16h36.35.934,vbt_B1_day2,2022.2.4,Win32,60.26637739,,,,,,,,,,,,,,,,,,,,,,,,,,,down,0,2.9327,,-0.281481496,0.025000007,1,0,0,4.083,0,36,36,182,1,bijkomen,images/br_bijkomen.png,images/cb_bijkomen.png,0,,,,,,,,,,,,,,,,,,,,,,
,,,,,,00087,2023-10-24_16h36.35.934,vbt_B1_day2,2022.2.4,Win32,60.26637739,,,,,,,,,,,,,,,,,,,,,,,,,,,down,0,1.2457,,-0.281481496,0.025000007,1,0,0,1.2494,0,37,37,148,1,smullen,images/br_smullen.png,images/cb_smullen.png,0,,,,,,,,,,,,,,,,,,,,,,
,,,,,,00087,2023-10-24_16h36.35.934,vbt_B1_day2,2022.2.4,Win32,60.26637739,,,,,,,,,,,,,,,,,,,,,,,,,,,down,0,26.9886,,0.816666638,0.099999993,1,0,0,5.0326,0,38,38,114,1,vullen,images/br_vullen.png,images/cb_vullen.png,0,,,,,,,,,,,,,,,,,,,,,,
,,,,,,00087,2023-10-24_16h36.35.934,vbt_B1_day2,2022.2.4,Win32,60.26637739,,,,,,,,,,,,,,,,,,,,,,,,,,,down,0,5.7713,,0.132407436,-0.075000021,1,0,0,0.6498,0,39,39,191,1,opheffen,images/br_opheffen.png,images/cb_opheffen.png,0,,,,,,,,,,,,,,,,,,,,,,
,,,,,,00087,2023-10-24_16h36.35.934,vbt_B1_day2,2022.2.4,Win32,60.26637739,,,,,,,,,,,,,,,,,,,,,,,,,,,down,0,24.8707,,0.132407436,-0.075000021,1,0,0,16.1153,0,40,40,125,1,aanzien,images/br_aanzien.png,images/cb_aanzien.png,0,,,,,,,,,,,,,,,,,,,,,,
,,,,,,00087,2023-10-24_16h36.35.934,vbt_B1_day2,2022.2.4,Win32,60.26637739,,,,,,,,,,,,,,,,,,,,,,,,,,,down,0,9.0016,,0.132407436,-0.075000021,1,0,0,13.3327,0,41,41,36,1,vuur,images/br_vuur.png,images/cb_vuur.png,0,,,,,,,,,,,,,,,,,,,,,,
,,,,,,00087,2023-10-24_16h36.35.934,vbt_B1_day2,2022.2.4,Win32,60.26637739,,,,,,,,,,,,,,,,,,,,,,,,,,,down,0,11.2148,,0.132407436,-0.075000021,1,0,0,4.8661,0,42,42,122,1,waarvan,images/br_waarvan.png,images/cb_waarvan.png,0,,,,,,,,,,,,,,,,,,,,,,
,,,,,,00087,2023-10-24_16h36.35.934,vbt_B1_day2,2022.2.4,Win32,60.26637739,,,,,,,,,,,,,,,,,,,,,,,,,,,down,0,27.9824,,0.132407436,-0.075000021,1,0,0,7.6676,0,43,43,157,1,uitlaat,images/br_uitlaat.png,images/cb_uitlaat.png,0,,,,,,,,,,,,,,,,,,,,,,
,,,,,,00087,2023-10-24_16h36.35.934,vbt_B1_day2,2022.2.4,Win32,60.26637739,,,,,,,,,,,,,,,,,,,,,,,,,,,down,0,8.3164,,0.241666653,-0.036111125,1,0,0,4.7171,0,44,44,63,1,flirt,images/br_flirt.png,images/cb_flirt.png,0,,,,,,,,,,,,,,,,,,,,,,
,,,,,,00087,2023-10-24_16h36.35.934,vbt_B1_day2,2022.2.4,Win32,60.26637739,,,,,,,,,,,,,,,,,,,,,,,,,,,down,0,15.1501,,0.241666653,-0.036111125,1,0,0,2.9161,0,45,45,34,1,vorm,images/br_vorm.png,images/cb_vorm.png,0,,,,,,,,,,,,,,,,,,,,,,
,,,,,,00087,2023-10-24_16h36.35.934,vbt_B1_day2,2022.2.4,Win32,60.26637739,,,,,,,,,,,,,,,,,,,,,,,,,,,down,0,5.9834,,0.241666653,-0.036111125,1,0,0,7.5001,0,46,46,123,1,hiervan,images/br_hiervan.png,images/cb_hiervan.png,0,,,,,,,,,,,,,,,,,,,,,,
,,,,,,00087,2023-10-24_16h36.35.934,vbt_B1_day2,2022.2.4,Win32,60.26637739,,,,,,,,,,,,,,,,,,,,,,,,,,,down,0,15.2662,,0.241666653,-0.036111125,1,0,0,1,0,47,47,154,1,aflopen,images/br_aflopen.png,images/cb_aflopen.png,0,,,,,,,,,,,,,,,,,,,,,,
,,,,,,00087,2023-10-24_16h36.35.934,vbt_B1_day2,2022.2.4,Win32,60.26637739,,,,,,,,,,,,,,,,,,,,,,,,,,,down,0,7.1489,,0.241666653,-0.037037037,1,0,0,0.8664,0,48,48,119,1,liefje,images/br_liefje.png,images/cb_liefje.png,0,,,,,,,,,,,,,,,,,,,,,,
,,,,,,00087,2023-10-24_16h36.35.934,vbt_B1_day2,2022.2.4,Win32,60.26637739,,,,,,,,,,,,,,,,,,,,,,,,,,,down,0,28.2899,,0.241666653,-0.037037037,1,0,0,0.8667,0,49,49,99,1,koffie,images/br_koffie.png,images/cb_koffie.png,1,koffie,,,,,,,,,,,,,,,,,,,,,
,,,,,,00087,2023-10-24_16h36.35.934,vbt_B1_day2,2022.2.4,Win32,60.26637739,,,,,,,,,,,,,,,,,,,,,,,,,,,down,0,1.7718,,0.241666653,-0.037037037,1,0,0,10.2827,0,50,50,85,1,heilig,images/br_heilig.png,images/cb_heilig.png,0,,,,,,,,,,,,,,,,,,,,,,
,,,,,,00087,2023-10-24_16h36.35.934,vbt_B1_day2,2022.2.4,Win32,60.26637739,,,,,,,,,,,,,,,,,,,,,,,,,,,down,0,14.6666,,-0.17777775,-0.090740734,1,0,0,0.8833,0,51,51,56,1,traag,images/br_traag.png,images/cb_traag.png,1,traag,,,,,,,,,,,,,,,,,,,,,
,,,,,,00087,2023-10-24_16h36.35.934,vbt_B1_day2,2022.2.4,Win32,60.26637739,,,,,,,,,,,,,,,,,,,,,,,,,,,down,0,10.1659,,-0.17777775,-0.090740734,1,0,0,1.8165,0,52,52,180,1,openbaar,images/br_openbaar.png,images/cb_openbaar.png,0,,,,,,,,,,,,,,,,,,,,,,
,,,,,,00087,2023-10-24_16h36.35.934,vbt_B1_day2,2022.2.4,Win32,60.26637739,,,,,,,,,,,,,,,,,,,,,,,,,,,down,0,18.0319,,0.132407436,-0.142592607,1,0,0,12.4866,0,53,53,1,1,zaal,images/br_zaal.png,images/cb_zaal.png,0,,,,,,,,,,,,,,,,,,,,,,
,,,,,,00087,2023-10-24_16h36.35.934,vbt_B1_day2,2022.2.4,Win32,60.26637739,,,,,,,,,,,,,,,,,,,,,,,,,,,down,0,8.4343,,0.132407436,-0.142592607,1,0,0,2.5156,0,54,54,193,1,weeshuis,images/br_weeshuis.png,images/cb_weeshuis.png,0,,,,,,,,,,,,,,,,,,,,,,
,,,,,,00087,2023-10-24_16h36.35.934,vbt_B1_day2,2022.2.4,Win32,60.26637739,,,,,,,,,,,,,,,,,,,,,,,,,,,down,0,17.4178,,0.132407436,-0.142592607,1,0,0,11.3829,0,55,55,5,1,blad,images/br_blad.png,images/cb_blad.png,0,,,,,,,,,,,,,,,,,,,,,,
,,,,,,00087,2023-10-24_16h36.35.934,vbt_B1_day2,2022.2.4,Win32,60.26637739,,,,,,,,,,,,,,,,,,,,,,,,,,,down,0,4.8338,,0.132407436,-0.142592607,1,0,0,2.9499,0,56,56,59,1,kring,images/br_kring.png,images/cb_kring.png,1,kreng,,,,,,,,,,,,,,,,,,,,,
,,,,,,00087,2023-10-24_16h36.35.934,vbt_B1_day2,2022.2.4,Win32,60.26637739,,,,,,,,,,,,,,,,,,,,,,,,,,,down,0,11.1004,,0.030555584,-0.109259288,1,0,0,6.6199,0,57,57,78,1,leren,images/br_leren.png,images/cb_leren.png,0,,,,,,,,,,,,,,,,,,,,,,
,,,,,,00087,2023-10-24_16h36.35.934,vbt_B1_day2,2022.2.4,Win32,60.26637739,,,,,,,,,,,,,,,,,,,,,,,,,,,down,0,6.35,,0.030555584,-0.109259288,1,0,0,7.1002,0,58,58,126,1,kasteel,images/br_kasteel.png,images/cb_kasteel.png,0,,,,,,,,,,,,,,,,,,,,,,
,,,,,,00087,2023-10-24_16h36.35.934,vbt_B1_day2,2022.2.4,Win32,60.26637739,,,,,,,,,,,,,,,,,,,,,,,,,,,down,0,7.5026,,0.030555584,-0.109259288,1,0,0,7.7994,0,59,59,142,1,snuiven,images/br_snuiven.png,images/cb_snuiven.png,0,,,,,,,,,,,,,,,,,,,,,,
,,,,,,00087,2023-10-24_16h36.35.934,vbt_B1_day2,2022.2.4,Win32,60.26637739,,,,,,,,,,,,,,,,,,,,,,,,,,,down,0,13.8606,,0.030555584,-0.109259288,1,0,0,2.8828,0,60,60,156,1,rechten,images/br_rechten.png,images/cb_rechten.png,0,,,,,,,,,,,,,,,,,,,,,,
,,,,,,00087,2023-10-24_16h36.35.934,vbt_B1_day2,2022.2.4,Win32,60.26637739,,,,,,,,,,,,,,,,,,,,,,,,,,,down,0,6.1396,,0.030555584,-0.109259288,1,0,0,1.4163,0,61,61,116,1,besmet,images/br_besmet.png,images/cb_besmet.png,0,,,,,,,,,,,,,,,,,,,,,,
,,,,,,00087,2023-10-24_16h36.35.934,vbt_B1_day2,2022.2.4,Win32,60.26637739,,,,,,,,,,,,,,,,,,,,,,,,,,,down,0,8.6748,,0.030555584,-0.109259288,1,0,0,2.583,0,62,62,196,1,nakijken,images/br_nakijken.png,images/cb_nakijken.png,0,,,,,,,,,,,,,,,,,,,,,,
,,,,,,00087,2023-10-24_16h36.35.934,vbt_B1_day2,2022.2.4,Win32,60.26637739,,,,,,,,,,,,,,,,,,,,,,,,,,,down,0,6.4217,,0.030555584,-0.109259288,1,0,0,5.4159,0,63,63,77,1,woede,images/br_woede.png,images/cb_woede.png,0,,,,,,,,,,,,,,,,,,,,,,
,,,,,,00087,2023-10-24_16h36.35.934,vbt_B1_day2,2022.2.4,Win32,60.26637739,,,,,,,,,,,,,,,,,,,,,,,,,,,down,0,7.5671,,0.030555584,-0.109259288,1,0,0,2.0497,0,64,64,171,1,aarzelen,images/br_aarzelen.png,images/cb_aarzelen.png,0,,,,,,,,,,,,,,,,,,,,,,
,,,,,,00087,2023-10-24_16h36.35.934,vbt_B1_day2,2022.2.4,Win32,60.26637739,,,,,,,,,,,,,,,,,,,,,,,,,,,down,0,5.0342,,0.030555584,-0.109259288,1,0,0,2.2159,0,65,65,113,1,koppen,images/br_koppen.png,images/cb_koppen.png,0,,,,,,,,,,,,,,,,,,,,,,
,,,,,,00087,2023-10-24_16h36.35.934,vbt_B1_day2,2022.2.4,Win32,60.26637739,,,,,,,,,,,,,,,,,,,,,,,,,,,down,0,4.623,,0.030555584,-0.109259288,1,0,0,3.2164,0,66,66,93,1,waarop,images/br_waarop.png,images/cb_waarop.png,0,,,,,,,,,,,,,,,,,,,,,,
,,,,,,00087,2023-10-24_16h36.35.934,vbt_B1_day2,2022.2.4,Win32,60.26637739,,,,,,,,,,,,,,,,,,,,,,,,,,,down,0,8.9326,,0.030555584,-0.109259288,1,0,0,1.1689,0,67,67,10,1,leek,images/br_leek.png,images/cb_leek.png,0,,,,,,,,,,,,,,,,,,,,,,
,,,,,,00087,2023-10-24_16h36.35.934,vbt_B1_day2,2022.2.4,Win32,60.26637739,,,,,,,,,,,,,,,,,,,,,,,,,,,down,0,7.1859,,0.030555584,-0.109259288,1,0,0,2.9829,0,68,68,108,1,excuus,images/br_excuus.png,images/cb_excuus.png,0,,,,,,,,,,,,,,,,,,,,,,
,,,,,,00087,2023-10-24_16h36.35.934,vbt_B1_day2,2022.2.4,Win32,60.26637739,,,,,,,,,,,,,,,,,,,,,,,,,,,down,0,4.609,,0.030555584,-0.109259288,1,0,0,0.4999,0,69,69,139,1,stiekem,images/br_stiekem.png,images/cb_stiekem.png,1,stiekem,,,,,,,,,,,,,,,,,,,,,
,,,,,,00087,2023-10-24_16h36.35.934,vbt_B1_day2,2022.2.4,Win32,60.26637739,,,,,,,,,,,,,,,,,,,,,,,,,,,down,0,7.0323,,0.030555584,-0.109259288,1,0,0,1.7662,0,70,70,41,1,maken,images/br_maken.png,images/cb_maken.png,0,,,,,,,,,,,,,,,,,,,,,,
,,,,,,00087,2023-10-24_16h36.35.934,vbt_B1_day2,2022.2.4,Win32,60.26637739,,,,,,,,,,,,,,,,,,,,,,,,,,,down,0,5.5355,,0.030555584,-0.109259288,1,0,0,3.8495,0,71,71,153,1,vervoer,images/br_vervoer.png,images/cb_vervoer.png,0,,,,,,,,,,,,,,,,,,,,,,
,,,,,,00087,2023-10-24_16h36.35.934,vbt_B1_day2,2022.2.4,Win32,60.26637739,,,,,,,,,,,,,,,,,,,,,,,,,,,down,0,3.268,,0.030555584,-0.109259288,1,0,0,7.4693,0,72,72,83,1,mening,images/br_mening.png,images/cb_mening.png,0,,,,,,,,,,,,,,,,,,,,,,
,,,,,,00087,2023-10-24_16h36.35.934,vbt_B1_day2,2022.2.4,Win32,60.26637739,,,,,,,,,,,,,,,,,,,,,,,,,,,down,0,1.2177,,0.030555584,-0.109259288,1,0,0,4.9655,0,73,73,107,1,maling,images/br_maling.png,images/cb_maling.png,0,,,,,,,,,,,,,,,,,,,,,,
,,,,,,00087,2023-10-24_16h36.35.934,vbt_B1_day2,2022.2.4,Win32,60.26637739,,,,,,,,,,,,,,,,,,,,,,,,,,,down,0,26.7496,,0.030555584,-0.109259288,1,0,0,2.4005,0,74,74,136,1,waarbij,images/br_waarbij.png,images/cb_waarbij.png,1,.aarbij,,,,,,,,,,,,,,,,,,,,,
,,,,,,00087,2023-10-24_16h36.35.934,vbt_B1_day2,2022.2.4,Win32,60.26637739,,,,,,,,,,,,,,,,,,,,,,,,,,,down,0,1.3453,,0.030555584,-0.109259288,1,0,0,4.8331,0,75,75,104,1,zweven,images/br_zweven.png,images/cb_zweven.png,0,,,,,,,,,,,,,,,,,,,,,,
,,,,,,00087,2023-10-24_16h36.35.934,vbt_B1_day2,2022.2.4,Win32,60.26637739,,,,,,,,,,,,,,,,,,,,,,,,,,,down,0,7.002,,0.030555584,-0.109259288,1,0,0,6.4859,0,76,76,124,1,bloeien,images/br_bloeien.png,images/cb_bloeien.png,0,,,,,,,,,,,,,,,,,,,,,,
,,,,,,00087,2023-10-24_16h36.35.934,vbt_B1_day2,2022.2.4,Win32,60.26637739,,,,,,,,,,,,,,,,,,,,,,,,,,,down,0,14.4656,,0.030555584,-0.109259288,1,0,0,0.0336,0,77,77,53,1,baron,images/br_baron.png,images/cb_baron.png,0,,,,,,,,,,,,,,,,,,,,,,
,,,,,,00087,2023-10-24_16h36.35.934,vbt_B1_day2,2022.2.4,Win32,60.26637739,,,,,,,,,,,,,,,,,,,,,,,,,,,down,0,3.6325,,0.030555584,-0.109259288,1,0,0,4.2837,0,78,78,146,1,opkomen,images/br_opkomen.png,images/cb_opkomen.png,0,,,,,,,,,,,,,,,,,,,,,,
,,,,,,00087,2023-10-24_16h36.35.934,vbt_B1_day2,2022.2.4,Win32,60.26637739,,,,,,,,,,,,,,,,,,,,,,,,,,,down,0,5.0366,,0.030555584,-0.109259288,1,0,0,0.8,0,79,79,57,1,steek,images/br_steek.png,images/cb_steek.png,1,steek,,,,,,,,,,,,,,,,,,,,,
,,,,,,00087,2023-10-24_16h36.35.934,vbt_B1_day2,2022.2.4,Win32,60.26637739,,,,,,,,,,,,,,,,,,,,,,,,,,,down,0,1.3835,,0.030555584,-0.109259288,1,0,0,1.8975,0,80,80,174,1,stemming,images/br_stemming.png,images/cb_stemming.png,0,,,,,,,,,,,,,,,,,,,,,,
,,,,,,00087,2023-10-24_16h36.35.934,vbt_B1_day2,2022.2.4,Win32,60.26637739,,,,,,,,,,,,,,,,,,,,,,,,,,,down,0,4.6831,,0.030555584,-0.109259288,1,0,0,2.1504,0,81,81,32,1,palm,images/br_palm.png,images/cb_palm.png,0,,,,,,,,,,,,,,,,,,,,,,
,,,,,,00087,2023-10-24_16h36.35.934,vbt_B1_day2,2022.2.4,Win32,60.26637739,,,,,,,,,,,,,,,,,,,,,,,,,,,down,0,3.6338,,0.030555584,-0.109259288,1,0,0,8.8331,0,82,82,128,1,prikken,images/br_prikken.png,images/cb_prikken.png,0,,,,,,,,,,,,,,,,,,,,,,
,,,,,,00087,2023-10-24_16h36.35.934,vbt_B1_day2,2022.2.4,Win32,60.26637739,,,,,,,,,,,,,,,,,,,,,,,,,,,down,0,8.0847,,0.030555584,-0.109259288,1,0,0,7.6168,0,83,83,94,1,oceaan,images/br_oceaan.png,images/cb_oceaan.png,0,,,,,,,,,,,,,,,,,,,,,,
,,,,,,00087,2023-10-24_16h36.35.934,vbt_B1_day2,2022.2.4,Win32,60.26637739,,,,,,,,,,,,,,,,,,,,,,,,,,,down,0,5.1343,,0.030555584,-0.109259288,1,0,0,8.8496,0,84,84,88,1,boeien,images/br_boeien.png,images/cb_boeien.png,0,,,,,,,,,,,,,,,,,,,,,,
,,,,,,00087,2023-10-24_16h36.35.934,vbt_B1_day2,2022.2.4,Win32,60.26637739,,,,,,,,,,,,,,,,,,,,,,,,,,,down,0,2.743,,0.030555584,-0.109259288,1,0,0,5.3831,0,85,85,29,1,baas,images/br_baas.png,images/cb_baas.png,0,,,,,,,,,,,,,,,,,,,,,,
,,,,,,00087,2023-10-24_16h36.35.934,vbt_B1_day2,2022.2.4,Win32,60.26637739,,,,,,,,,,,,,,,,,,,,,,,,,,,down,0,8.2225,,0.030555584,-0.109259288,1,0,0,0.7498,0,86,86,102,1,legaal,images/br_legaal.png,images/cb_legaal.png,0,,,,,,,,,,,,,,,,,,,,,,
,,,,,,00087,2023-10-24_16h36.35.934,vbt_B1_day2,2022.2.4,Win32,60.26637739,,,,,,,,,,,,,,,,,,,,,,,,,,,down,0,2.1395,,0.030555584,-0.109259288,1,0,0,6.5503,0,87,87,149,1,redding,images/br_redding.png,images/cb_redding.png,0,,,,,,,,,,,,,,,,,,,,,,
,,,,,,00087,2023-10-24_16h36.35.934,vbt_B1_day2,2022.2.4,Win32,60.26637739,,,,,,,,,,,,,,,,,,,,,,,,,,,down,0,0.169,,0.030555584,-0.109259288,1,0,0,2.7662,0,88,88,12,1,kust,images/br_kust.png,images/cb_kust.png,0,,,,,,,,,,,,,,,,,,,,,,
,,,,,,00087,2023-10-24_16h36.35.934,vbt_B1_day2,2022.2.4,Win32,60.26637739,,,,,,,,,,,,,,,,,,,,,,,,,,,down,0,2.1915,,0.030555584,-0.109259288,1,0,0,8.2328,0,89,89,181,1,toegeven,images/br_toegeven.png,images/cb_toegeven.png,0,,,,,,,,,,,,,,,,,,,,,,
,,,,,,00087,2023-10-24_16h36.35.934,vbt_B1_day2,2022.2.4,Win32,60.26637739,,,,,,,,,,,,,,,,,,,,,,,,,,,down,0,2.9159,,0.030555584,-0.109259288,1,0,0,0.9001,0,90,90,170,1,schatten,images/br_schatten.png,images/cb_schatten.png,0,,,,,,,,,,,,,,,,,,,,,,
,,,,,,00087,2023-10-24_16h36.35.934,vbt_B1_day2,2022.2.4,Win32,60.26637739,,,,,,,,,,,,,,,,,,,,,,,,,,,down,0,7.4337,,0.030555584,-0.109259288,1,0,0,1.0169,0,91,91,176,1,techniek,images/br_techniek.png,images/cb_techniek.png,1,techniek,,,,,,,,,,,,,,,,,,,,,
,,,,,,00087,2023-10-24_16h36.35.934,vbt_B1_day2,2022.2.4,Win32,60.26637739,,,,,,,,,,,,,,,,,,,,,,,,,,,down,0,7.6342,,0.030555584,-0.109259288,1,0,0,3.8671,0,92,92,183,1,getuigen,images/br_getuigen.png,images/cb_getuigen.png,0,,,,,,,,,,,,,,,,,,,,,,
,,,,,,00087,2023-10-24_16h36.35.934,vbt_B1_day2,2022.2.4,Win32,60.26637739,,,,,,,,,,,,,,,,,,,,,,,,,,,down,0,3.6165,,0.030555584,-0.109259288,1,0,0,3.4135,0,93,93,100,1,geduld,images/br_geduld.png,images/cb_geduld.png,0,,,,,,,,,,,,,,,,,,,,,,
,,,,,,00087,2023-10-24_16h36.35.934,vbt_B1_day2,2022.2.4,Win32,60.26637739,,,,,,,,,,,,,,,,,,,,,,,,,,,down,0,1.1542,,0.030555584,-0.109259288,0,0,1,1.1661,0,94,94,66,1,lever,images/br_lever.png,images/cb_lever.png,0,,,,,,,,,,,,,,,,,,,,,,
,,,,,,00087,2023-10-24_16h36.35.934,vbt_B1_day2,2022.2.4,Win32,60.26637739,,,,,,,,,,,,,,,,,,,,,,,,,,,down,0,5.3798,,-0.061111097,-0.082407422,1,0,0,0.8998,0,95,95,79,1,nodig,images/br_nodig.png,images/cb_nodig.png,0,,,,,,,,,,,,,,,,,,,,,,
,,,,,,00087,2023-10-24_16h36.35.934,vbt_B1_day2,2022.2.4,Win32,60.26637739,,,,,,,,,,,,,,,,,,,,,,,,,,,down,0,5.1324,,-0.061111097,-0.082407422,1,0,0,0.5675,0,96,96,194,1,driemaal,images/br_driemaal.png,images/cb_driemaal.png,0,,,,,,,,,,,,,,,,,,,,,,
,,,,,,00087,2023-10-24_16h36.35.934,vbt_B1_day2,2022.2.4,Win32,60.26637739,,,,,,,,,,,,,,,,,,,,,,,,,,,down,0,6.1896,,-0.060185185,-0.078703704,1,0,0,0.566,0,97,97,98,1,kreeft,images/br_kreeft.png,images/cb_kreeft.png,1,kreeft,,,,,,,,,,,,,,,,,,,,,
,,,,,,00087,2023-10-24_16h36.35.934,vbt_B1_day2,2022.2.4,Win32,60.26637739,,,,,,,,,,,,,,,,,,,,,,,,,,,down,0,2.8839,,-0.060185185,-0.078703704,1,0,0,2.2164,0,98,98,26,1,leuk,images/br_leuk.png,images/cb_leuk.png,0,,,,,,,,,,,,,,,,,,,,,,
,,,,,,00087,2023-10-24_16h36.35.934,vbt_B1_day2,2022.2.4,Win32,60.26637739,,,,,,,,,,,,,,,,,,,,,,,,,,,down,0,3.9555,,-0.060185185,-0.078703704,1,0,0,0.5826,0,99,99,73,1,volop,images/br_volop.png,images/cb_volop.png,0,,,,,,,,,,,,,,,,,,,,,,
,,,,,,00087,2023-10-24_16h36.35.934,vbt_B1_day2,2022.2.4,Win32,60.26637739,,,,,,,,,,,,,,,,,,,,,,,,,,,down,0,1.3335,,-0.060185185,-0.078703704,1,0,0,1.5673,0,100,100,25,1,plek,images/br_plek.png,images/cb_plek.png,0,,,,,,,,,,,,,,,,,,,,,,
,,,,,,00087,2023-10-24_16h36.35.934,vbt_B1_day2,2022.2.4,Win32,60.26637739,,,,,,,,,,,,,,,,,,,,,,,,,,,down,0,1.8834,,-0.060185185,-0.078703704,1,0,0,2.0498,0,101,101,110,1,zuster,images/br_zuster.png,images/cb_zuster.png,0,,,,,,,,,,,,,,,,,,,,,,
,,,,,,00087,2023-10-24_16h36.35.934,vbt_B1_day2,2022.2.4,Win32,60.26637739,,,,,,,,,,,,,,,,,,,,,,,,,,,down,0,1.1835,,-0.060185185,-0.078703704,1,0,0,1.1169,0,102,102,135,1,gedicht,images/br_gedicht.png,images/cb_gedicht.png,0,,,,,,,,,,,,,,,,,,,,,,
,,,,,,00087,2023-10-24_16h36.35.934,vbt_B1_day2,2022.2.4,Win32,60.26637739,,,,,,,,,,,,,,,,,,,,,,,,,,,down,0,3.9173,,-0.060185185,-0.078703704,1,0,0,1.0999,0,103,103,68,1,schat,images/br_schat.png,images/cb_schat.png,0,,,,,,,,,,,,,,,,,,,,,,
,,,,,,00087,2023-10-24_16h36.35.934,vbt_B1_day2,2022.2.4,Win32,60.26637739,,,,,,,,,,,,,,,,,,,,,,,,,,,down,0,3.2839,,-0.060185185,-0.078703704,1,0,0,0.8498,0,104,104,167,1,eenhoorn,images/br_eenhoorn.png,images/cb_eenhoorn.png,0,,,,,,,,,,,,,,,,,,,,,,
,,,,,,00087,2023-10-24_16h36.35.934,vbt_B1_day2,2022.2.4,Win32,60.26637739,,,,,,,,,,,,,,,,,,,,,,,,,,,down,0,5.5501,,-0.060185185,-0.078703704,1,0,0,1.1834,0,105,105,80,1,kanjer,images/br_kanjer.png,images/cb_kanjer.png,0,,,,,,,,,,,,,,,,,,,,,,
,,,,,,00087,2023-10-24_16h36.35.934,vbt_B1_day2,2022.2.4,Win32,60.26637739,,,,,,,,,,,,,,,,,,,,,,,,,,,down,0,2.1173,,-0.060185185,-0.078703704,1,0,0,3.6826,0,106,106,37,1,mijn,images/br_mijn.png,images/cb_mijn.png,0,,,,,,,,,,,,,,,,,,,,,,
,,,,,,00087,2023-10-24_16h36.35.934,vbt_B1_day2,2022.2.4,Win32,60.26637739,,,,,,,,,,,,,,,,,,,,,,,,,,,down,0,2.0337,,-0.060185185,-0.078703704,1,0,0,1.7175,0,107,107,49,1,laken,images/br_laken.png,images/cb_laken.png,0,,,,,,,,,,,,,,,,,,,,,,
,,,,,,00087,2023-10-24_16h36.35.934,vbt_B1_day2,2022.2.4,Win32,60.26637739,,,,,,,,,,,,,,,,,,,,,,,,,,,down,0,0.5842,,-0.060185185,-0.078703704,1,0,0,1.1825,0,108,108,23,1,zout,images/br_zout.png,images/cb_zout.png,0,,,,,,,,,,,,,,,,,,,,,,
,,,,,,00087,2023-10-24_16h36.35.934,vbt_B1_day2,2022.2.4,Win32,60.26637739,,,,,,,,,,,,,,,,,,,,,,,,,,,down,0,13.267,,-0.060185185,-0.078703704,1,0,0,0.5658,0,109,109,84,1,lokken,images/br_lokken.png,images/cb_lokken.png,0,,,,,,,,,,,,,,,,,,,,,,
,,,,,,00087,2023-10-24_16h36.35.934,vbt_B1_day2,2022.2.4,Win32,60.26637739,,,,,,,,,,,,,,,,,,,,,,,,,,,down,0,5.9515,,-0.060185185,-0.078703704,1,0,0,0.8488,0,110,110,72,1,strak,images/br_strak.png,images/cb_strak.png,0,,,,,,,,,,,,,,,,,,,,,,
,,,,,,00087,2023-10-24_16h36.35.934,vbt_B1_day2,2022.2.4,Win32,60.26637739,,,,,,,,,,,,,,,,,,,,,,,,,,,down,0,5.7168,,-0.060185185,-0.078703704,1,0,0,0.5169,0,111,111,189,1,aanraden,images/br_aanraden.png,images/cb_aanraden.png,0,,,,,,,,,,,,,,,,,,,,,,
,,,,,,00087,2023-10-24_16h36.35.934,vbt_B1_day2,2022.2.4,Win32,60.26637739,,,,,,,,,,,,,,,,,,,,,,,,,,,down,0,10.8684,,-0.060185185,-0.078703704,0,0,1,2.8822,0,112,112,186,1,voorraad,images/br_voorraad.png,images/cb_voorraad.png,0,,,,,,,,,,,,,,,,,,,,,,
,,,,,,00087,2023-10-24_16h36.35.934,vbt_B1_day2,2022.2.4,Win32,60.26637739,,,,,,,,,,,,,,,,,,,,,,,,,,,down,0,4.9169,,-0.175925926,-0.034259266,1,0,0,0.5473,0,113,113,198,1,bedoelen,images/br_bedoelen.png,images/cb_bedoelen.png,0,,,,,,,,,,,,,,,,,,,,,,
,,,,,,00087,2023-10-24_16h36.35.934,vbt_B1_day2,2022.2.4,Win32,60.26637739,,,,,,,,,,,,,,,,,,,,,,,,,,,down,0,7.951,,-0.175925926,-0.034259266,0,0,1,0.6488,0,114,114,92,1,geheim,images/br_geheim.png,images/cb_geheim.png,0,,,,,,,,,,,,,,,,,,,,,,
,,,,,,00087,2023-10-24_16h36.35.934,vbt_B1_day2,2022.2.4,Win32,60.26637739,,,,,,,,,,,,,,,,,,,,,,,,,,,down,0,3.0174,,-0.006481453,-0.014814836,1,0,0,1.4659,0,115,115,131,1,opzicht,images/br_opzicht.png,images/cb_opzicht.png,0,,,,,,,,,,,,,,,,,,,,,,
,,,,,,00087,2023-10-24_16h36.35.934,vbt_B1_day2,2022.2.4,Win32,60.26637739,,,,,,,,,,,,,,,,,,,,,,,,,,,down,0,1.8997,,0.009259259,-0.049074067,1,0,0,3.7503,0,116,116,111,1,ticket,images/br_ticket.png,images/cb_ticket.png,0,,,,,,,,,,,,,,,,,,,,,,
,,,,,,00087,2023-10-24_16h36.35.934,vbt_B1_day2,2022.2.4,Win32,60.26637739,,,,,,,,,,,,,,,,,,,,,,,,,,,down,0,2.5165,,0.012037065,-0.038888896,1,0,0,3.5476,0,117,117,71,1,bever,images/br_bever.png,images/cb_bever.png,0,,,,,,,,,,,,,,,,,,,,,,
,,,,,,00087,2023-10-24_16h36.35.934,vbt_B1_day2,2022.2.4,Win32,60.26637739,,,,,,,,,,,,,,,,,,,,,,,,,,,down,0,2.9325,,-0.038888861,-0.172222208,1,0,0,2.4003,0,118,118,28,1,stal,images/br_stal.png,images/cb_stal.png,0,,,,,,,,,,,,,,,,,,,,,,
,,,,,,00087,2023-10-24_16h36.35.934,vbt_B1_day2,2022.2.4,Win32,60.26637739,,,,,,,,,,,,,,,,,,,,,,,,,,,down,0,18.4663,,-0.038888861,-0.172222208,1,0,0,0.9501,0,119,119,115,1,kleren,images/br_kleren.png,images/cb_kleren.png,0,,,,,,,,,,,,,,,,,,,,,,
,,,,,,00087,2023-10-24_16h36.35.934,vbt_B1_day2,2022.2.4,Win32,60.26637739,,,,,,,,,,,,,,,,,,,,,,,,,,,down,0,3.7671,,-0.038888861,-0.172222208,1,0,0,4.7831,0,120,120,38,1,baai,images/br_baai.png,images/cb_baai.png,0,,,,,,,,,,,,,,,,,,,,,,
,,,,,,00087,2023-10-24_16h36.35.934,vbt_B1_day2,2022.2.4,Win32,60.26637739,,,,,,,,,,,,,,,,,,,,,,,,,,,down,0,5.1326,,-0.038888861,-0.172222208,1,0,0,0.6838,0,121,121,90,1,geluid,images/br_geluid.png,images/cb_geluid.png,0,,,,,,,,,,,,,,,,,,,,,,
,,,,,,00087,2023-10-24_16h36.35.934,vbt_B1_day2,2022.2.4,Win32,60.26637739,,,,,,,,,,,,,,,,,,,,,,,,,,,down,0,3.836,,-0.038888861,-0.172222208,1,0,0,0.6664,0,122,122,13,1,kaal,images/br_kaal.png,images/cb_kaal.png,0,,,,,,,,,,,,,,,,,,,,,,
,,,,,,00087,2023-10-24_16h36.35.934,vbt_B1_day2,2022.2.4,Win32,60.26637739,,,,,,,,,,,,,,,,,,,,,,,,,,,down,0,3.3841,,-0.038888861,-0.172222208,1,0,0,0.583,0,123,123,195,1,middelen,images/br_middelen.png,images/cb_middelen.png,0,,,,,,,,,,,,,,,,,,,,,,
,,,,,,00087,2023-10-24_16h36.35.934,vbt_B1_day2,2022.2.4,Win32,60.26637739,,,,,,,,,,,,,,,,,,,,,,,,,,,down,0,4.4595,,-0.038888861,-0.172222208,1,0,0,0.4498,0,124,124,24,1,jurk,images/br_jurk.png,images/cb_jurk.png,0,,,,,,,,,,,,,,,,,,,,,,
,,,,,,00087,2023-10-24_16h36.35.934,vbt_B1_day2,2022.2.4,Win32,60.26637739,,,,,,,,,,,,,,,,,,,,,,,,,,,down,0,14.8007,,-0.038888861,-0.172222208,1,0,0,0.8334,0,125,125,19,1,geit,images/br_geit.png,images/cb_geit.png,1,.eit,,,,,,,,,,,,,,,,,,,,,
,,,,,,00087,2023-10-24_16h36.35.934,vbt_B1_day2,2022.2.4,Win32,60.26637739,,,,,,,,,,,,,,,,,,,,,,,,,,,down,0,11.2337,,-0.038888861,-0.172222208,1,0,0,0.4666,0,126,126,130,1,keihard,images/br_keihard.png,images/cb_keihard.png,0,,,,,,,,,,,,,,,,,,,,,,
,,,,,,00087,2023-10-24_16h36.35.934,vbt_B1_day2,2022.2.4,Win32,60.26637739,,,,,,,,,,,,,,,,,,,,,,,,,,,down,0,3.6706,,-0.038888861,-0.172222208,1,0,0,1.0832,0,127,127,164,1,anarchie,images/br_anarchie.png,images/cb_anarchie.png,0,,,,,,,,,,,,,,,,,,,,,,
,,,,,,00087,2023-10-24_16h36.35.934,vbt_B1_day2,2022.2.4,Win32,60.26637739,,,,,,,,,,,,,,,,,,,,,,,,,,,down,0,14.3265,,-0.038888861,-0.172222208,1,0,0,0.4832,0,128,128,192,1,schaamte,images/br_schaamte.png,images/cb_schaamte.png,0,,,,,,,,,,,,,,,,,,,,,,
,,,,,,00087,2023-10-24_16h36.35.934,vbt_B1_day2,2022.2.4,Win32,60.26637739,,,,,,,,,,,,,,,,,,,,,,,,,,,down,0,4.8004,,-0.038888861,-0.172222208,1,0,0,0.6335,0,129,129,51,1,samen,images/br_samen.png,images/cb_samen.png,0,,,,,,,,,,,,,,,,,,,,,,
,,,,,,00087,2023-10-24_16h36.35.934,vbt_B1_day2,2022.2.4,Win32,60.26637739,,,,,,,,,,,,,,,,,,,,,,,,,,,down,0,5.7524,,-0.038888861,-0.172222208,1,0,0,0.3164,0,130,130,43,1,klauw,images/br_klauw.png,images/cb_klauw.png,0,,,,,,,,,,,,,,,,,,,,,,
,,,,,,00087,2023-10-24_16h36.35.934,vbt_B1_day2,2022.2.4,Win32,60.26637739,,,,,,,,,,,,,,,,,,,,,,,,,,,down,0,4.0038,,-0.068518533,-0.170370384,1,0,0,0.4167,0,131,131,3,1,mand,images/br_mand.png,images/cb_mand.png,0,,,,,,,,,,,,,,,,,,,,,,
,,,,,,00087,2023-10-24_16h36.35.934,vbt_B1_day2,2022.2.4,Win32,60.26637739,,,,,,,,,,,,,,,,,,,,,,,,,,,down,0,7.25,,-0.068518533,-0.170370384,1,0,0,1.2163,0,132,132,145,1,invloed,images/br_invloed.png,images/cb_invloed.png,0,,,,,,,,,,,,,,,,,,,,,,
,,,,,,00087,2023-10-24_16h36.35.934,vbt_B1_day2,2022.2.4,Win32,60.26637739,,,,,,,,,,,,,,,,,,,,,,,,,,,down,0,3.9195,,-0.068518533,-0.170370384,1,0,0,4.4199,0,133,133,162,1,uitdelen,images/br_uitdelen.png,images/cb_uitdelen.png,0,,,,,,,,,,,,,,,,,,,,,,
,,,,,,00087,2023-10-24_16h36.35.934,vbt_B1_day2,2022.2.4,Win32,60.26637739,,,,,,,,,,,,,,,,,,,,,,,,,,,down,0,8.1834,,-0.068518533,-0.170370384,1,0,0,1.3164,0,134,134,165,1,feestdag,images/br_feestdag.png,images/cb_feestdag.png,0,,,,,,,,,,,,,,,,,,,,,,
,,,,,,00087,2023-10-24_16h36.35.934,vbt_B1_day2,2022.2.4,Win32,60.26637739,,,,,,,,,,,,,,,,,,,,,,,,,,,down,0,5.0003,,-0.068518533,-0.170370384,0,0,1,0.7337,0,135,135,45,1,piste,images/br_piste.png,images/cb_piste.png,0,,,,,,,,,,,,,,,,,,,,,,
,,,,,,00087,2023-10-24_16h36.35.934,vbt_B1_day2,2022.2.4,Win32,60.26637739,,,,,,,,,,,,,,,,,,,,,,,,,,,down,0,9.6008,,-0.00462963,0.099999993,1,0,0,0.4654,0,136,136,188,1,strekken,images/br_strekken.png,images/cb_strekken.png,0,,,,,,,,,,,,,,,,,,,,,,
,,,,,,00087,2023-10-24_16h36.35.934,vbt_B1_day2,2022.2.4,Win32,60.26637739,,,,,,,,,,,,,,,,,,,,,,,,,,,down,0,4.2337,,-0.00462963,0.099999993,1,0,0,0.5491,0,137,137,15,1,soda,images/br_soda.png,images/cb_soda.png,0,,,,,,,,,,,,,,,,,,,,,,
,,,,,,00087,2023-10-24_16h36.35.934,vbt_B1_day2,2022.2.4,Win32,60.26637739,,,,,,,,,,,,,,,,,,,,,,,,,,,down,0,12.2833,,-0.00462963,0.099999993,1,0,0,1.0329,0,138,138,143,1,hechten,images/br_hechten.png,images/cb_hechten.png,0,,,,,,,,,,,,,,,,,,,,,,
,,,,,,00087,2023-10-24_16h36.35.934,vbt_B1_day2,2022.2.4,Win32,60.26637739,,,,,,,,,,,,,,,,,,,,,,,,,,,down,0,5.2994,,-0.00462963,0.099999993,1,0,0,1.0996,0,139,139,74,1,graaf,images/br_graaf.png,images/cb_graaf.png,0,,,,,,,,,,,,,,,,,,,,,,
,,,,,,00087,2023-10-24_16h36.35.934,vbt_B1_day2,2022.2.4,Win32,60.26637739,,,,,,,,,,,,,,,,,,,,,,,,,,,down,0,9.8711,,-0.00462963,0.099999993,0,0,1,1.1164,0,140,140,20,1,site,images/br_site.png,images/cb_site.png,0,,,,,,,,,,,,,,,,,,,,,,
,,,,,,00087,2023-10-24_16h36.35.934,vbt_B1_day2,2022.2.4,Win32,60.26637739,,,,,,,,,,,,,,,,,,,,,,,,,,,down,0,5.6504,,0.051851838,-0.039814808,1,0,0,0.6832,0,141,141,54,1,gebit,images/br_gebit.png,images/cb_gebit.png,0,,,,,,,,,,,,,,,,,,,,,,
,,,,,,00087,2023-10-24_16h36.35.934,vbt_B1_day2,2022.2.4,Win32,60.26637739,,,,,,,,,,,,,,,,,,,,,,,,,,,down,0,10.2501,,0.051851838,-0.039814808,0,0,1,0.3832,0,142,142,120,1,klimmen,images/br_klimmen.png,images/cb_klimmen.png,0,,,,,,,,,,,,,,,,,,,,,,
,,,,,,00087,2023-10-24_16h36.35.934,vbt_B1_day2,2022.2.4,Win32,60.26637739,,,,,,,,,,,,,,,,,,,,,,,,,,,down,0,9.1165,,-0.054629644,-0.0074074,1,0,0,0.4664,0,143,143,155,1,gerucht,images/br_gerucht.png,images/cb_gerucht.png,0,,,,,,,,,,,,,,,,,,,,,,
,,,,,,00087,2023-10-24_16h36.35.934,vbt_B1_day2,2022.2.4,Win32,60.26637739,,,,,,,,,,,,,,,,,,,,,,,,,,,down,0,4.3174,,-0.054629644,-0.0074074,1,0,0,0.533,0,144,144,127,1,doodmoe,images/br_doodmoe.png,images/cb_doodmoe.png,0,,,,,,,,,,,,,,,,,,,,,,
,,,,,,00087,2023-10-24_16h36.35.934,vbt_B1_day2,2022.2.4,Win32,60.26637739,,,,,,,,,,,,,,,,,,,,,,,,,,,down,0,6.2505,,-0.054629644,-0.0074074,0,0,1,0.7664,0,145,145,7,1,geld,images/br_geld.png,images/cb_geld.png,0,,,,,,,,,,,,,,,,,,,,,,
,,,,,,00087,2023-10-24_16h36.35.934,vbt_B1_day2,2022.2.4,Win32,60.26637739,,,,,,,,,,,,,,,,,,,,,,,,,,,down,0,7.6295,,0.08148151,0.086111104,1,0,0,0.5998,0,146,146,134,1,geliefd,images/br_geliefd.png,images/cb_geliefd.png,0,,,,,,,,,,,,,,,,,,,,,,
,,,,,,00087,2023-10-24_16h36.35.934,vbt_B1_day2,2022.2.4,Win32,60.26637739,,,,,,,,,,,,,,,,,,,,,,,,,,,down,0,3.817,,0.08148151,0.086111104,1,0,0,0.4836,0,147,147,55,1,praat,images/br_praat.png,images/cb_praat.png,0,,,,,,,,,,,,,,,,,,,,,,
,,,,,,00087,2023-10-24_16h36.35.934,vbt_B1_day2,2022.2.4,Win32,60.26637739,,,,,,,,,,,,,,,,,,,,,,,,,,,down,0,6.1837,,0.08148151,0.086111104,1,0,0,0.4668,0,148,148,150,1,gegeven,images/br_gegeven.png,images/cb_gegeven.png,0,,,,,,,,,,,,,,,,,,,,,,
,,,,,,00087,2023-10-24_16h36.35.934,vbt_B1_day2,2022.2.4,Win32,60.26637739,,,,,,,,,,,,,,,,,,,,,,,,,,,down,0,15.8995,,0.08148151,0.086111104,1,0,0,0.4499,0,149,149,199,1,beseffen,images/br_beseffen.png,images/cb_beseffen.png,0,,,,,,,,,,,,,,,,,,,,,,
,,,,,,00087,2023-10-24_16h36.35.934,vbt_B1_day2,2022.2.4,Win32,60.26637739,,,,,,,,,,,,,,,,,,,,,,,,,,,down,0,5.0533,,0.08148151,0.086111104,1,0,0,1.033,0,150,150,18,1,blik,images/br_blik.png,images/cb_blik.png,1,blikblik,,,,,,,,,,,,,,,,,,,,,
,,,,,,00087,2023-10-24_16h36.35.934,vbt_B1_day2,2022.2.4,Win32,60.26637739,,,,,,,,,,,,,,,,,,,,,,,,,,,down,0,4.8522,,0.08148151,0.086111104,1,0,0,1.2497,0,151,151,95,1,vreten,images/br_vreten.png,images/cb_vreten.png,0,,,,,,,,,,,,,,,,,,,,,,
,,,,,,00087,2023-10-24_16h36.35.934,vbt_B1_day2,2022.2.4,Win32,60.26637739,,,,,,,,,,,,,,,,,,,,,,,,,,,down,0,7.0715,,0.08148151,0.086111104,1,0,0,0.4664,0,152,152,11,1,mode,images/br_mode.png,images/cb_mode.png,0,,,,,,,,,,,,,,,,,,,,,,
,,,,,,00087,2023-10-24_16h36.35.934,vbt_B1_day2,2022.2.4,Win32,60.26637739,,,,,,,,,,,,,,,,,,,,,,,,,,,down,0,4.7527,,0.08148151,0.086111104,1,0,0,0.5664,0,153,153,60,1,jasje,images/br_jasje.png,images/cb_jasje.png,0,,,,,,,,,,,,,,,,,,,,,,
,,,,,,00087,2023-10-24_16h36.35.934,vbt_B1_day2,2022.2.4,Win32,60.26637739,,,,,,,,,,,,,,,,,,,,,,,,,,,down,0,3.8107,,0.08148151,0.086111104,1,0,0,1.8499,0,154,154,61,1,groen,images/br_groen.png,images/cb_groen.png,0,,,,,,,,,,,,,,,,,,,,,,
,,,,,,00087,2023-10-24_16h36.35.934,vbt_B1_day2,2022.2.4,Win32,60.26637739,,,,,,,,,,,,,,,,,,,,,,,,,,,down,0,3.3007,,0.088888875,0.088888875,1,0,0,1.7495,0,155,155,168,1,bisschop,images/br_bisschop.png,images/cb_bisschop.png,0,,,,,,,,,,,,,,,,,,,,,,
,,,,,,00087,2023-10-24_16h36.35.934,vbt_B1_day2,2022.2.4,Win32,60.26637739,,,,,,,,,,,,,,,,,,,,,,,,,,,down,0,20.0463,,0.037962949,0.015740748,1,0,0,0.6492,0,156,156,177,1,maaltijd,images/br_maaltijd.png,images/cb_maaltijd.png,1,maaltijd,,,,,,,,,,,,,,,,,,,,,
,,,,,,00087,2023-10-24_16h36.35.934,vbt_B1_day2,2022.2.4,Win32,60.26637739,,,,,,,,,,,,,,,,,,,,,,,,,,,down,0,0.5579,,0.037962949,0.015740748,1,0,0,0.4831,0,157,157,0,1,slak,images/br_slak.png,images/cb_slak.png,0,,,,,,,,,,,,,,,,,,,,,,
,,,,,,00087,2023-10-24_16h36.35.934,vbt_B1_day2,2022.2.4,Win32,60.26637739,,,,,,,,,,,,,,,,,,,,,,,,,,,down,0,4.3,,-0.01944443,-0.019444466,1,0,0,1.4836,0,158,158,22,1,stof,images/br_stof.png,images/cb_stof.png,0,,,,,,,,,,,,,,,,,,,,,,
,,,,,,00087,2023-10-24_16h36.35.934,vbt_B1_day2,2022.2.4,Win32,60.26637739,,,,,,,,,,,,,,,,,,,,,,,,,,,down,0,2.934,,-0.01944443,-0.019444466,1,0,0,0.5998,0,159,159,106,1,zingen,images/br_zingen.png,images/cb_zingen.png,0,,,,,,,,,,,,,,,,,,,,,,
,,,,,,00087,2023-10-24_16h36.35.934,vbt_B1_day2,2022.2.4,Win32,60.26637739,,,,,,,,,,,,,,,,,,,,,,,,,,,down,0,0.1847,,-0.01944443,-0.019444466,1,0,0,0.7494,0,160,160,173,1,apparaat,images/br_apparaat.png,images/cb_apparaat.png,0,,,,,,,,,,,,,,,,,,,,,,
,,,,,,00087,2023-10-24_16h36.35.934,vbt_B1_day2,2022.2.4,Win32,60.26637739,,,,,,,,,,,,,,,,,,,,,,,,,,,down,0,7.8603,,-0.01944443,-0.019444466,1,0,0,3.3999,0,161,161,137,1,trekker,images/br_trekker.png,images/cb_trekker.png,1,trekker,,,,,,,,,,,,,,,,,,,,,
,,,,,,00087,2023-10-24_16h36.35.934,vbt_B1_day2,2022.2.4,Win32,60.26637739,,,,,,,,,,,,,,,,,,,,,,,,,,,down,0,4.3742,,-0.01944443,-0.019444466,1,0,0,5.5494,0,162,162,160,1,daarheen,images/br_daarheen.png,images/cb_daarheen.png,0,,,,,,,,,,,,,,,,,,,,,,
,,,,,,00087,2023-10-24_16h36.35.934,vbt_B1_day2,2022.2.4,Win32,60.26637739,,,,,,,,,,,,,,,,,,,,,,,,,,,down,0,2.2506,,-0.01944443,-0.019444466,1,0,0,0.4667,0,163,163,166,1,strikken,images/br_strikken.png,images/cb_strikken.png,0,,,,,,,,,,,,,,,,,,,,,,
,,,,,,00087,2023-10-24_16h36.35.934,vbt_B1_day2,2022.2.4,Win32,60.26637739,,,,,,,,,,,,,,,,,,,,,,,,,,,down,0,2.8655,,-0.01944443,-0.019444466,1,0,0,0.5842,0,164,164,172,1,weigeren,images/br_weigeren.png,images/cb_weigeren.png,0,,,,,,,,,,,,,,,,,,,,,,
,,,,,,00087,2023-10-24_16h36.35.934,vbt_B1_day2,2022.2.4,Win32,60.26637739,,,,,,,,,,,,,,,,,,,,,,,,,,,down,0,5.4187,,-0.01944443,-0.019444466,1,0,0,0.9841,0,165,165,140,1,blijven,images/br_blijven.png,images/cb_blijven.png,0,,,,,,,,,,,,,,,,,,,,,,
,,,,,,00087,2023-10-24_16h36.35.934,vbt_B1_day2,2022.2.4,Win32,60.26637739,,,,,,,,,,,,,,,,,,,,,,,,,,,down,0,3.4588,,-0.01944443,-0.019444466,1,0,0,0.466,0,166,166,91,1,gezond,images/br_gezond.png,images/cb_gezond.png,0,,,,,,,,,,,,,,,,,,,,,,
,,,,,,00087,2023-10-24_16h36.35.934,vbt_B1_day2,2022.2.4,Win32,60.26637739,,,,,,,,,,,,,,,,,,,,,,,,,,,down,0,1.2607,,-0.01944443,-0.019444466,1,0,0,0.6825,0,167,167,169,1,oprotten,images/br_oprotten.png,images/cb_oprotten.png,0,,,,,,,,,,,,,,,,,,,,,,
,,,,,,00087,2023-10-24_16h36.35.934,vbt_B1_day2,2022.2.4,Win32,60.26637739,,,,,,,,,,,,,,,,,,,,,,,,,,,down,0,4.6504,,-0.01944443,-0.019444466,1,0,0,0.4496,0,168,168,47,1,kabel,images/br_kabel.png,images/cb_kabel.png,0,,,,,,,,,,,,,,,,,,,,,,
,,,,,,00087,2023-10-24_16h36.35.934,vbt_B1_day2,2022.2.4,Win32,60.26637739,,,,,,,,,,,,,,,,,,,,,,,,,,,down,0,5.7953,,-0.01944443,-0.019444466,1,0,0,0.3832,0,169,169,21,1,mist,images/br_mist.png,images/cb_mist.png,0,,,,,,,,,,,,,,,,,,,,,,
,,,,,,00087,2023-10-24_16h36.35.934,vbt_B1_day2,2022.2.4,Win32,60.26637739,,,,,,,,,,,,,,,,,,,,,,,,,,,down,0,2.65,,-0.01944443,-0.019444466,1,0,0,0.9499,0,170,170,141,1,knielen,images/br_knielen.png,images/cb_knielen.png,0,,,,,,,,,,,,,,,,,,,,,,
,,,,,,00087,2023-10-24_16h36.35.934,vbt_B1_day2,2022.2.4,Win32,60.26637739,,,,,,,,,,,,,,,,,,,,,,,,,,,down,0,3.1006,,-0.01944443,-0.019444466,1,0,0,0.4495,0,171,171,75,1,snoep,images/br_snoep.png,images/cb_snoep.png,0,,,,,,,,,,,,,,,,,,,,,,
,,,,,,00087,2023-10-24_16h36.35.934,vbt_B1_day2,2022.2.4,Win32,60.26637739,,,,,,,,,,,,,,,,,,,,,,,,,,,down,0,2.9424,,-0.01944443,-0.019444466,1,0,0,1.0002,0,172,172,118,1,vinger,images/br_vinger.png,images/cb_vinger.png,0,,,,,,,,,,,,,,,,,,,,,,
,,,,,,00087,2023-10-24_16h36.35.934,vbt_B1_day2,2022.2.4,Win32,60.26637739,,,,,,,,,,,,,,,,,,,,,,,,,,,down,0,8.5092,,-0.01944443,-0.019444466,1,0,0,0.5502,0,173,173,33,1,vlek,images/br_vlek.png,images/cb_vlek.png,0,,,,,,,,,,,,,,,,,,,,,,
,,,,,,00087,2023-10-24_16h36.35.934,vbt_B1_day2,2022.2.4,Win32,60.26637739,,,,,,,,,,,,,,,,,,,,,,,,,,,down,0,1.2521,,-0.01944443,-0.019444466,1,0,0,1.8995,0,174,174,158,1,innemen,images/br_innemen.png,images/cb_innemen.png,0,,,,,,,,,,,,,,,,,,,,,,
,,,,,,00087,2023-10-24_16h36.35.934,vbt_B1_day2,2022.2.4,Win32,60.26637739,,,,,,,,,,,,,,,,,,,,,,,,,,,down,0,3.5033,,0.186111097,-0.08425928,1,0,0,1.5167,0,175,175,163,1,schuilen,images/br_schuilen.png,images/cb_schuilen.png,0,,,,,,,,,,,,,,,,,,,,,,
,,,,,,00087,2023-10-24_16h36.35.934,vbt_B1_day2,2022.2.4,Win32,60.26637739,,,,,,,,,,,,,,,,,,,,,,,,,,,down,0,5.369,,0.186111097,-0.08425928,1,0,0,0.5166,0,176,176,52,1,wagon,images/br_wagon.png,images/cb_wagon.png,0,,,,,,,,,,,,,,,,,,,,,,
,,,,,,00087,2023-10-24_16h36.35.934,vbt_B1_day2,2022.2.4,Win32,60.26637739,,,,,,,,,,,,,,,,,,,,,,,,,,,down,0,2.4681,,0.186111097,-0.08425928,1,0,0,0.4666,0,177,177,161,1,attentie,images/br_attentie.png,images/cb_attentie.png,0,,,,,,,,,,,,,,,,,,,,,,
,,,,,,00087,2023-10-24_16h36.35.934,vbt_B1_day2,2022.2.4,Win32,60.26637739,,,,,,,,,,,,,,,,,,,,,,,,,,,down,0,3.2775,,0.186111097,-0.08425928,1,0,0,0.5998,0,178,178,105,1,wijlen,images/br_wijlen.png,images/cb_wijlen.png,0,,,,,,,,,,,,,,,,,,,,,,
,,,,,,00087,2023-10-24_16h36.35.934,vbt_B1_day2,2022.2.4,Win32,60.26637739,,,,,,,,,,,,,,,,,,,,,,,,,,,down,0,1.6336,,0.186111097,-0.08425928,1,0,0,0.5001,0,179,179,76,1,afval,images/br_afval.png,images/cb_afval.png,0,,,,,,,,,,,,,,,,,,,,,,
,,,,,,00087,2023-10-24_16h36.35.934,vbt_B1_day2,2022.2.4,Win32,60.26637739,,,,,,,,,,,,,,,,,,,,,,,,,,,down,0,2.0165,,0.186111097,-0.08425928,1,0,0,0.8162,0,180,180,184,1,aandelen,images/br_aandelen.png,images/cb_aandelen.png,0,,,,,,,,,,,,,,,,,,,,,,
,,,,,,00087,2023-10-24_16h36.35.934,vbt_B1_day2,2022.2.4,Win32,60.26637739,,,,,,,,,,,,,,,,,,,,,,,,,,,down,0,3.7005,,0.186111097,-0.08425928,1,0,0,0.7835,0,181,181,101,1,staren,images/br_staren.png,images/cb_staren.png,0,,,,,,,,,,,,,,,,,,,,,,
,,,,,,00087,2023-10-24_16h36.35.934,vbt_B1_day2,2022.2.4,Win32,60.26637739,,,,,,,,,,,,,,,,,,,,,,,,,,,down,0,5.3458,,0.186111097,-0.08425928,1,0,0,1.5496,0,182,182,87,1,toeval,images/br_toeval.png,images/cb_toeval.png,0,,,,,,,,,,,,,,,,,,,,,,
,,,,,,00087,2023-10-24_16h36.35.934,vbt_B1_day2,2022.2.4,Win32,60.26637739,,,,,,,,,,,,,,,,,,,,,,,,,,,down,0,36.6168,,0.186111097,-0.08425928,1,0,0,0.9169,0,183,183,178,1,huisdier,images/br_huisdier.png,images/cb_huisdier.png,1,huisdier,,,,,,,,,,,,,,,,,,,,,
,,,,,,00087,2023-10-24_16h36.35.934,vbt_B1_day2,2022.2.4,Win32,60.26637739,,,,,,,,,,,,,,,,,,,,,,,,,,,down,0,0.8815,,0.186111097,-0.08425928,1,0,0,0.5165,0,184,184,4,1,moes,images/br_moes.png,images/cb_moes.png,0,,,,,,,,,,,,,,,,,,,,,,
,,,,,,00087,2023-10-24_16h36.35.934,vbt_B1_day2,2022.2.4,Win32,60.26637739,,,,,,,,,,,,,,,,,,,,,,,,,,,down,0,1.5139,,0.186111097,-0.08425928,1,0,0,0.7163,0,185,185,103,1,joggen,images/br_joggen.png,images/cb_joggen.png,0,,,,,,,,,,,,,,,,,,,,,,
,,,,,,00087,2023-10-24_16h36.35.934,vbt_B1_day2,2022.2.4,Win32,60.26637739,,,,,,,,,,,,,,,,,,,,,,,,,,,down,0,3.2171,,0.186111097,-0.08425928,1,0,0,0.7168,0,186,186,185,1,mijnheer,images/br_mijnheer.png,images/cb_mijnheer.png,0,,,,,,,,,,,,,,,,,,,,,,
,,,,,,00087,2023-10-24_16h36.35.934,vbt_B1_day2,2022.2.4,Win32,60.26637739,,,,,,,,,,,,,,,,,,,,,,,,,,,down,0,3.8776,,0.130555541,-0.130555541,1,0,0,1.8667,0,187,187,187,1,opkijken,images/br_opkijken.png,images/cb_opkijken.png,0,,,,,,,,,,,,,,,,,,,,,,
,,,,,,00087,2023-10-24_16h36.35.934,vbt_B1_day2,2022.2.4,Win32,60.26637739,,,,,,,,,,,,,,,,,,,,,,,,,,,down,0,2.1341,,0.130555541,-0.130555541,1,0,0,0.517,0,188,188,30,1,uien,images/br_uien.png,images/cb_uien.png,0,,,,,,,,,,,,,,,,,,,,,,
,,,,,,00087,2023-10-24_16h36.35.934,vbt_B1_day2,2022.2.4,Win32,60.26637739,,,,,,,,,,,,,,,,,,,,,,,,,,,down,0,3.1537,,0.130555541,-0.130555541,1,0,0,0.4493,0,189,189,159,1,sufferd,images/br_sufferd.png,images/cb_sufferd.png,0,,,,,,,,,,,,,,,,,,,,,,
,,,,,,00087,2023-10-24_16h36.35.934,vbt_B1_day2,2022.2.4,Win32,60.26637739,,,,,,,,,,,,,,,,,,,,,,,,,,,down,0,3.4499,,0.130555541,-0.130555541,1,0,0,0.5496,0,190,190,133,1,seizoen,images/br_seizoen.png,images/cb_seizoen.png,0,,,,,,,,,,,,,,,,,,,,,,
,,,,,,00087,2023-10-24_16h36.35.934,vbt_B1_day2,2022.2.4,Win32,60.26637739,,,,,,,,,,,,,,,,,,,,,,,,,,,down,0,5.038,,0.130555541,-0.130555541,1,0,0,0.4996,0,191,191,46,1,jagen,images/br_jagen.png,images/cb_jagen.png,0,,,,,,,,,,,,,,,,,,,,,,
,,,,,,00087,2023-10-24_16h36.35.934,vbt_B1_day2,2022.2.4,Win32,60.26637739,,,,,,,,,,,,,,,,,,,,,,,,,,,down,0,3.3501,,0.130555541,-0.130555541,1,0,0,1.6664,0,192,192,129,1,verhaal,images/br_verhaal.png,images/cb_verhaal.png,0,,,,,,,,,,,,,,,,,,,,,,
,,,,,,00087,2023-10-24_16h36.35.934,vbt_B1_day2,2022.2.4,Win32,60.26637739,,,,,,,,,,,,,,,,,,,,,,,,,,,down,0,18.9677,,0.130555541,-0.130555541,1,0,0,0.3998,0,193,193,179,1,woestijn,images/br_woestijn.png,images/cb_woestijn.png,1,woestijn,,,,,,,,,,,,,,,,,,,,,
,,,,,,00087,2023-10-24_16h36.35.934,vbt_B1_day2,2022.2.4,Win32,60.26637739,,,,,,,,,,,,,,,,,,,,,,,,,,,down,0,1.2386,,0.130555541,-0.130555541,1,0,0,0.6832,0,194,194,14,1,rijp,images/br_rijp.png,images/cb_rijp.png,0,,,,,,,,,,,,,,,,,,,,,,
,,,,,,00087,2023-10-24_16h36.35.934,vbt_B1_day2,2022.2.4,Win32,60.26637739,,,,,,,,,,,,,,,,,,,,,,,,,,,down,0,4.9955,,0.130555541,-0.130555541,1,0,0,1.6169,0,195,195,16,1,ziek,images/br_ziek.png,images/cb_ziek.png,1,niek,,,,,,,,,,,,,,,,,,,,,
,,,,,,00087,2023-10-24_16h36.35.934,vbt_B1_day2,2022.2.4,Win32,60.26637739,,,,,,,,,,,,,,,,,,,,,,,,,,,down,0,0.8061,,0.130555541,-0.130555541,1,0,0,0.4664,0,196,196,109,1,totaal,images/br_totaal.png,images/cb_totaal.png,0,,,,,,,,,,,,,,,,,,,,,,
,,,,,,00087,2023-10-24_16h36.35.934,vbt_B1_day2,2022.2.4,Win32,60.26637739,,,,,,,,,,,,,,,,,,,,,,,,,,,down,0,2.7005,,0.130555541,-0.130555541,1,0,0,0.3829,0,197,197,67,1,zwart,images/br_zwart.png,images/cb_zwart.png,0,,,,,,,,,,,,,,,,,,,,,,
,,,,,,00087,2023-10-24_16h36.35.934,vbt_B1_day2,2022.2.4,Win32,60.26637739,,,,,,,,,,,,,,,,,,,,,,,,,,,down,0,0.7511,,0.130555541,-0.130555541,1,0,0,0.482,0,198,198,39,1,laag,images/br_laag.png,images/cb_laag.png,0,,,,,,,,,,,,,,,,,,,,,,
,,,,,,00087,2023-10-24_16h36.35.934,vbt_B1_day2,2022.2.4,Win32,60.26637739,,,,,,,,,,,,,,,,,,,,,,,,,,,down,0,2.4508,,0.014814801,0.064814815,1,0,0,0.4666,0,199,199,112,1,lukken,images/br_lukken.png,images/cb_lukken.png,0,,,,,,,,,,,,,,,,,,,,,,
,,,,,,00087,2023-10-24_16h36.35.934,vbt_B1_day2,2022.2.4,Win32,60.26637739,,,,,,,,,,,,,,,,,,,,,,,,,,,,,,,,,,,,,,,,,,,,,,,0.559259344,-0.218518504,1,0,0,,,,,,,,,,,,,,,,
,,,,,,00087,2023-10-24_16h36.35.934,vbt_B1_day2,2022.2.4,Win32,60.26637739,,,,,,,,,,,,,,,,,,,,,,,,,,,,,,,,,,,,,,,,,,,,,,,,,,,,0.559259344,-0.218518504,1,0,0,,,,,,,,,,,
,,,,,,00087,2023-10-24_16h36.35.934,vbt_B1_day2,2022.2.4,Win32,60.26637739,,,,,,,,,,,,,,,,,,,,,,,,,,,,,,,,,,,,,,,,,,toeval,images/br_toeval.png,images/cb_toeval.png,,toeval,,,,,,,,,,,0.046296296,-0.050000014,1,0,0,toeval,0,0,0,11,1
,,,,,,00087,2023-10-24_16h36.35.934,vbt_B1_day2,2022.2.4,Win32,60.26637739,,,,,,,,,,,,,,,,,,,,,,,,,,,,,,,,,,,,,,,,,,joes,images/br_joes.png,images/cb_joes.png,,.oez,,,,,,,,,,,0.046296296,-0.050000014,1,0,0,.oez,0,1,1,20,1
,,,,,,00087,2023-10-24_16h36.35.934,vbt_B1_day2,2022.2.4,Win32,60.26637739,,,,,,,,,,,,,,,,,,,,,,,,,,,,,,,,,,,,,,,,,,prekken,images/br_prekken.png,images/cb_prekken.png,,prekken,,,,,,,,,,,0.046296296,-0.050000014,1,0,0,prekken,0,2,2,34,1
,,,,,,00087,2023-10-24_16h36.35.934,vbt_B1_day2,2022.2.4,Win32,60.26637739,,,,,,,,,,,,,,,,,,,,,,,,,,,,,,,,,,,,,,,,,,trots,images/br_trots.png,images/cb_trots.png,,trots,,,,,,,,,,,0.046296296,-0.050000014,1,0,0,trots,0,3,3,44,1
,,,,,,00087,2023-10-24_16h36.35.934,vbt_B1_day2,2022.2.4,Win32,60.26637739,,,,,,,,,,,,,,,,,,,,,,,,,,,,,,,,,,,,,,,,,,kabel,images/br_kabel.png,images/cb_kabel.png,,kabel,,,,,,,,,,,0.046296296,-0.050000014,1,0,0,kabel,0,4,4,7,1
,,,,,,00087,2023-10-24_16h36.35.934,vbt_B1_day2,2022.2.4,Win32,60.26637739,,,,,,,,,,,,,,,,,,,,,,,,,,,,,,,,,,,,,,,,,,piste,images/br_piste.png,images/cb_piste.png,,piete,,,,,,,,,,,0.046296296,-0.050000014,1,0,0,piete,0,5,5,5,1
,,,,,,00087,2023-10-24_16h36.35.934,vbt_B1_day2,2022.2.4,Win32,60.26637739,,,,,,,,,,,,,,,,,,,,,,,,,,,,,,,,,,,,,,,,,,agressie,images/br_agressie.png,images/cb_agressie.png,,a.ressie,,,,,,,,,,,-0.030555513,-0.20185188,1,0,0,a.ressie,0,6,6,59,1
,,,,,,00087,2023-10-24_16h36.35.934,vbt_B1_day2,2022.2.4,Win32,60.26637739,,,,,,,,,,,,,,,,,,,,,,,,,,,,,,,,,,,,,,,,,,tweeling,images/br_tweeling.png,images/cb_tweeling.png,,tweeling,,,,,,,,,,,-0.038888861,-0.14907406,1,0,0,tweeling,0,7,7,58,1
,,,,,,00087,2023-10-24_16h36.35.934,vbt_B1_day2,2022.2.4,Win32,60.26637739,,,,,,,,,,,,,,,,,,,,,,,,,,,,,,,,,,,,,,,,,,heilig,images/br_heilig.png,images/cb_heilig.png,,.eilig,,,,,,,,,,,-0.038888861,-0.14907406,1,0,0,.eilig,0,8,8,9,1
,,,,,,00087,2023-10-24_16h36.35.934,vbt_B1_day2,2022.2.4,Win32,60.26637739,,,,,,,,,,,,,,,,,,,,,,,,,,,,,,,,,,,,,,,,,,aanzien,images/br_aanzien.png,images/cb_aanzien.png,,aanziet,,,,,,,,,,,-0.038888861,-0.14907406,1,0,0,aanziet,0,9,9,13,1
,,,,,,00087,2023-10-24_16h36.35.934,vbt_B1_day2,2022.2.4,Win32,60.26637739,,,,,,,,,,,,,,,,,,,,,,,,,,,,,,,,,,,,,,,,,,anarchie,images/br_anarchie.png,images/cb_anarchie.png,,anarchie,,,,,,,,,,,-0.038888861,-0.14907406,1,0,0,anarchie,0,10,10,16,1
,,,,,,00087,2023-10-24_16h36.35.934,vbt_B1_day2,2022.2.4,Win32,60.26637739,,,,,,,,,,,,,,,,,,,,,,,,,,,,,,,,,,,,,,,,,,ophuimen,images/br_ophuimen.png,images/cb_ophuimen.png,,op..i.en,,,,,,,,,,,-0.038888861,-0.14907406,1,0,0,op..i.en,0,11,11,36,1
,,,,,,00087,2023-10-24_16h36.35.934,vbt_B1_day2,2022.2.4,Win32,60.26637739,,,,,,,,,,,,,,,,,,,,,,,,,,,,,,,,,,,,,,,,,,strikken,images/br_strikken.png,images/cb_strikken.png,,strikken,,,,,,,,,,,-0.038888861,-0.14907406,1,0,0,strikken,0,12,12,18,1
,,,,,,00087,2023-10-24_16h36.35.934,vbt_B1_day2,2022.2.4,Win32,60.26637739,,,,,,,,,,,,,,,,,,,,,,,,,,,,,,,,,,,,,,,,,,bereuwen,images/br_bereuwen.png,images/cb_bereuwen.png,,bere..n,,,,,,,,,,,-0.038888861,-0.14907406,1,0,0,bere..n,0,13,13,39,1
,,,,,,00087,2023-10-24_16h36.35.934,vbt_B1_day2,2022.2.4,Win32,60.26637739,,,,,,,,,,,,,,,,,,,,,,,,,,,,,,,,,,,,,,,,,,sifferd,images/br_sifferd.png,images/cb_sifferd.png,,si..er.,,,,,,,,,,,-0.038888861,-0.14907406,1,0,0,si..er.,0,14,14,32,1
,,,,,,00087,2023-10-24_16h36.35.934,vbt_B1_day2,2022.2.4,Win32,60.26637739,,,,,,,,,,,,,,,,,,,,,,,,,,,,,,,,,,,,,,,,,,remel,images/br_remel.png,images/cb_remel.png,,remmen,,,,,,,,,,,-0.038888861,-0.14907406,1,0,0,remmen,0,15,15,25,1
,,,,,,00087,2023-10-24_16h36.35.934,vbt_B1_day2,2022.2.4,Win32,60.26637739,,,,,,,,,,,,,,,,,,,,,,,,,,,,,,,,,,,,,,,,,,stes,images/br_stes.png,images/cb_stes.png,,.,,,,,,,,,,,-0.038888861,-0.14907406,1,0,0,.,0,16,16,21,1
,,,,,,00087,2023-10-24_16h36.35.934,vbt_B1_day2,2022.2.4,Win32,60.26637739,,,,,,,,,,,,,,,,,,,,,,,,,,,,,,,,,,,,,,,,,,lijnen,images/br_lijnen.png,images/cb_lijnen.png,,li.nen,,,,,,,,,,,-0.038888861,-0.14907406,1,0,0,li.nen,0,17,17,51,1
,,,,,,00087,2023-10-24_16h36.35.934,vbt_B1_day2,2022.2.4,Win32,60.26637739,,,,,,,,,,,,,,,,,,,,,,,,,,,,,,,,,,,,,,,,,,welzijn,images/br_welzijn.png,images/cb_welzijn.png,,.ellzi.n,,,,,,,,,,,-0.038888861,-0.14907406,1,0,0,.ellzi.n,0,18,18,52,1
,,,,,,00087,2023-10-24_16h36.35.934,vbt_B1_day2,2022.2.4,Win32,60.26637739,,,,,,,,,,,,,,,,,,,,,,,,,,,,,,,,,,,,,,,,,,feestdag,images/br_feestdag.png,images/cb_feestdag.png,,.eest.ag,,,,,,,,,,,-0.038888861,-0.14907406,1,0,0,.eest.ag,0,19,19,17,1
,,,,,,00087,2023-10-24_16h36.35.934,vbt_B1_day2,2022.2.4,Win32,60.26637739,,,,,,,,,,,,,,,,,,,,,,,,,,,,,,,,,,,,,,,,,,sora,images/br_sora.png,images/cb_sora.png,,sora,,,,,,,,,,,-0.038888861,-0.14907406,1,0,0,sora,0,20,20,22,1
,,,,,,00087,2023-10-24_16h36.35.934,vbt_B1_day2,2022.2.4,Win32,60.26637739,,,,,,,,,,,,,,,,,,,,,,,,,,,,,,,,,,,,,,,,,,kenzis,images/br_kenzis.png,images/cb_kenzis.png,,kenzis,,,,,,,,,,,-0.038888861,-0.14907406,1,0,0,kenzis,0,21,21,30,1
,,,,,,00087,2023-10-24_16h36.35.934,vbt_B1_day2,2022.2.4,Win32,60.26637739,,,,,,,,,,,,,,,,,,,,,,,,,,,,,,,,,,,,,,,,,,koorts,images/br_koorts.png,images/cb_koorts.png,,koorts,,,,,,,,,,,-0.038888861,-0.14907406,1,0,0,koorts,0,22,22,50,1
,,,,,,00087,2023-10-24_16h36.35.934,vbt_B1_day2,2022.2.4,Win32,60.26637739,,,,,,,,,,,,,,,,,,,,,,,,,,,,,,,,,,,,,,,,,,lokken,images/br_lokken.png,images/cb_lokken.png,,lokken,,,,,,,,,,,-0.038888861,-0.14907406,1,0,0,lokken,0,23,23,8,1
,,,,,,00087,2023-10-24_16h36.35.934,vbt_B1_day2,2022.2.4,Win32,60.26637739,,,,,,,,,,,,,,,,,,,,,,,,,,,,,,,,,,,,,,,,,,woning,images/br_woning.png,images/cb_woning.png,,koning,,,,,,,,,,,-0.038888861,-0.14907406,1,0,0,koning,0,24,24,10,1
,,,,,,00087,2023-10-24_16h36.35.934,vbt_B1_day2,2022.2.4,Win32,60.26637739,,,,,,,,,,,,,,,,,,,,,,,,,,,,,,,,,,,,,,,,,,zwager,images/br_zwager.png,images/cb_zwager.png,,.,,,,,,,,,,,-0.050000014,-0.168518561,1,0,0,.,0,25,25,49,1
,,,,,,00087,2023-10-24_16h36.35.934,vbt_B1_day2,2022.2.4,Win32,60.26637739,,,,,,,,,,,,,,,,,,,,,,,,,,,,,,,,,,,,,,,,,,doodmoe,images/br_doodmoe.png,images/cb_doodmoe.png,,.,,,,,,,,,,,-0.050000014,-0.168518561,1,0,0,.,0,26,26,15,1
,,,,,,00087,2023-10-24_16h36.35.934,vbt_B1_day2,2022.2.4,Win32,60.26637739,,,,,,,,,,,,,,,,,,,,,,,,,,,,,,,,,,,,,,,,,,eenhoorn,images/br_eenhoorn.png,images/cb_eenhoorn.png,,een.oon,,,,,,,,,,,-0.050000014,-0.168518561,1,0,0,een.oon,0,27,27,19,1
,,,,,,00087,2023-10-24_16h36.35.934,vbt_B1_day2,2022.2.4,Win32,60.26637739,,,,,,,,,,,,,,,,,,,,,,,,,,,,,,,,,,,,,,,,,,dode,images/br_dode.png,images/cb_dode.png,,OI,,,,,,,,,,,-0.050000014,-0.168518561,1,0,0,OI,0,28,28,41,1
,,,,,,00087,2023-10-24_16h36.35.934,vbt_B1_day2,2022.2.4,Win32,60.26637739,,,,,,,,,,,,,,,,,,,,,,,,,,,,,,,,,,,,,,,,,,heengeen,images/br_heengeen.png,images/cb_heengeen.png,,.eengeen,,,,,,,,,,,-0.050000014,-0.168518561,1,0,0,.eengeen,0,29,29,38,1
,,,,,,00087,2023-10-24_16h36.35.934,vbt_B1_day2,2022.2.4,Win32,60.26637739,,,,,,,,,,,,,,,,,,,,,,,,,,,,,,,,,,,,,,,,,,krimmen,images/br_krimmen.png,images/cb_krimmen.png,,trimmen,,,,,,,,,,,-0.041666667,-0.167592578,1,0,0,trimmen,0,30,30,35,1
,,,,,,00087,2023-10-24_16h36.35.934,vbt_B1_day2,2022.2.4,Win32,60.26637739,,,,,,,,,,,,,,,,,,,,,,,,,,,,,,,,,,,,,,,,,,flits,images/br_flits.png,images/cb_flits.png,,.lits,,,,,,,,,,,-0.041666667,-0.167592578,1,0,0,.lits,0,31,31,4,1
,,,,,,00087,2023-10-24_16h36.35.934,vbt_B1_day2,2022.2.4,Win32,60.26637739,,,,,,,,,,,,,,,,,,,,,,,,,,,,,,,,,,,,,,,,,,zomers,images/br_zomers.png,images/cb_zomers.png,,z.e.a,,,,,,,,,,,-0.041666667,-0.167592578,1,0,0,z.e.a,0,32,32,48,1
,,,,,,00087,2023-10-24_16h36.35.934,vbt_B1_day2,2022.2.4,Win32,60.26637739,,,,,,,,,,,,,,,,,,,,,,,,,,,,,,,,,,,,,,,,,,opdatten,images/br_opdatten.png,images/cb_opdatten.png,,op.atten,,,,,,,,,,,-0.041666667,-0.167592578,1,0,0,op.atten,0,33,33,37,1
,,,,,,00087,2023-10-24_16h36.35.934,vbt_B1_day2,2022.2.4,Win32,60.26637739,,,,,,,,,,,,,,,,,,,,,,,,,,,,,,,,,,,,,,,,,,bloeien,images/br_bloeien.png,images/cb_bloeien.png,,bloeien,,,,,,,,,,,-0.041666667,-0.167592578,1,0,0,bloeien,0,34,34,12,1
,,,,,,00087,2023-10-24_16h36.35.934,vbt_B1_day2,2022.2.4,Win32,60.26637739,,,,,,,,,,,,,,,,,,,,,,,,,,,,,,,,,,,,,,,,,,manieren,images/br_manieren.png,images/cb_manieren.png,,.anieren,,,,,,,,,,,-0.022222236,-0.045370384,1,0,0,.anieren,0,35,35,56,1
,,,,,,00087,2023-10-24_16h36.35.934,vbt_B1_day2,2022.2.4,Win32,60.26637739,,,,,,,,,,,,,,,,,,,,,,,,,,,,,,,,,,,,,,,,,,thema,images/br_thema.png,images/cb_thema.png,,t.e.a,,,,,,,,,,,-0.022222236,-0.045370384,1,0,0,t.e.a,0,36,36,47,1
,,,,,,00087,2023-10-24_16h36.35.934,vbt_B1_day2,2022.2.4,Win32,60.26637739,,,,,,,,,,,,,,,,,,,,,,,,,,,,,,,,,,,,,,,,,,badon,images/br_badon.png,images/cb_badon.png,,ba.on,,,,,,,,,,,-0.022222236,-0.045370384,1,0,0,ba.on,0,37,37,26,1
,,,,,,00087,2023-10-24_16h36.35.934,vbt_B1_day2,2022.2.4,Win32,60.26637739,,,,,,,,,,,,,,,,,,,,,,,,,,,,,,,,,,,,,,,,,,systeem,images/br_systeem.png,images/cb_systeem.png,,s.stee.,,,,,,,,,,,-0.022222236,-0.045370384,1,0,0,s.stee.,0,38,38,54,1
,,,,,,00087,2023-10-24_16h36.35.934,vbt_B1_day2,2022.2.4,Win32,60.26637739,,,,,,,,,,,,,,,,,,,,,,,,,,,,,,,,,,,,,,,,,,inzicht,images/br_inzicht.png,images/cb_inzicht.png,,jnzec.t,,,,,,,,,,,-0.022222236,-0.045370384,1,0,0,jnzec.t,0,39,39,53,1
,,,,,,00087,2023-10-24_16h36.35.934,vbt_B1_day2,2022.2.4,Win32,60.26637739,,,,,,,,,,,,,,,,,,,,,,,,,,,,,,,,,,,,,,,,,,plannen,images/br_plannen.png,images/cb_plannen.png,,plannen,,,,,,,,,,,-0.022222236,-0.045370384,1,0,0,plannen,0,40,40,55,1
,,,,,,00087,2023-10-24_16h36.35.934,vbt_B1_day2,2022.2.4,Win32,60.26637739,,,,,,,,,,,,,,,,,,,,,,,,,,,,,,,,,,,,,,,,,,kasteel,images/br_kasteel.png,images/cb_kasteel.png,,kasteel,,,,,,,,,,,-0.022222236,-0.045370384,1,0,0,kasteel,0,41,41,14,1
,,,,,,00087,2023-10-24_16h36.35.934,vbt_B1_day2,2022.2.4,Win32,60.26637739,,,,,,,,,,,,,,,,,,,,,,,,,,,,,,,,,,,,,,,,,,diep,images/br_diep.png,images/cb_diep.png,,.iep,,,,,,,,,,,-0.022222236,-0.045370384,1,0,0,.iep,0,42,42,2,1
,,,,,,00087,2023-10-24_16h36.35.934,vbt_B1_day2,2022.2.4,Win32,60.26637739,,,,,,,,,,,,,,,,,,,,,,,,,,,,,,,,,,,,,,,,,,tand,images/br_tand.png,images/cb_tand.png,,tan.,,,,,,,,,,,-0.022222236,-0.045370384,1,0,0,tan.,0,43,43,42,1
,,,,,,00087,2023-10-24_16h36.35.934,vbt_B1_day2,2022.2.4,Win32,60.26637739,,,,,,,,,,,,,,,,,,,,,,,,,,,,,,,,,,,,,,,,,,negel,images/br_negel.png,images/cb_negel.png,,negel,,,,,,,,,,,-0.022222236,-0.045370384,1,0,0,negel,0,44,44,24,1
,,,,,,00087,2023-10-24_16h36.35.934,vbt_B1_day2,2022.2.4,Win32,60.26637739,,,,,,,,,,,,,,,,,,,,,,,,,,,,,,,,,,,,,,,,,,jong,images/br_jong.png,images/cb_jong.png,,.ong,,,,,,,,,,,-0.022222236,-0.045370384,1,0,0,.ong,0,45,45,43,1
,,,,,,00087,2023-10-24_16h36.35.934,vbt_B1_day2,2022.2.4,Win32,60.26637739,,,,,,,,,,,,,,,,,,,,,,,,,,,,,,,,,,,,,,,,,,kijlen,images/br_kijlen.png,images/cb_kijlen.png,,ki.len,,,,,,,,,,,-0.022222236,-0.045370384,1,0,0,ki.len,0,46,46,31,1
,,,,,,00087,2023-10-24_16h36.35.934,vbt_B1_day2,2022.2.4,Win32,60.26637739,,,,,,,,,,,,,,,,,,,,,,,,,,,,,,,,,,,,,,,,,,breuk,images/br_breuk.png,images/cb_breuk.png,,bre.k,,,,,,,,,,,-0.022222236,-0.045370384,1,0,0,bre.k,0,47,47,45,1
,,,,,,00087,2023-10-24_16h36.35.934,vbt_B1_day2,2022.2.4,Win32,60.26637739,,,,,,,,,,,,,,,,,,,,,,,,,,,,,,,,,,,,,,,,,,aanvraag,images/br_aanvraag.png,images/cb_aanvraag.png,,.,,,,,,,,,,,-0.022222236,-0.045370384,1,0,0,.,0,48,48,57,1
,,,,,,00087,2023-10-24_16h36.35.934,vbt_B1_day2,2022.2.4,Win32,60.26637739,,,,,,,,,,,,,,,,,,,,,,,,,,,,,,,,,,,,,,,,,,lurgen,images/br_lurgen.png,images/cb_lurgen.png,,l.rgen,,,,,,,,,,,-0.022222236,-0.045370384,1,0,0,l.rgen,0,49,49,29,1
,,,,,,00087,2023-10-24_16h36.35.934,vbt_B1_day2,2022.2.4,Win32,60.26637739,,,,,,,,,,,,,,,,,,,,,,,,,,,,,,,,,,,,,,,,,,clan,images/br_clan.png,images/cb_clan.png,,clan,,,,,,,,,,,-0.022222236,-0.045370384,1,0,0,clan,0,50,50,40,1
,,,,,,00087,2023-10-24_16h36.35.934,vbt_B1_day2,2022.2.4,Win32,60.26637739,,,,,,,,,,,,,,,,,,,,,,,,,,,,,,,,,,,,,,,,,,sjijfel,images/br_sjijfel.png,images/cb_sjijfel.png,,s.i..el,,,,,,,,,,,-0.022222236,-0.045370384,1,0,0,s.i..el,0,51,51,33,1
,,,,,,00087,2023-10-24_16h36.35.934,vbt_B1_day2,2022.2.4,Win32,60.26637739,,,,,,,,,,,,,,,,,,,,,,,,,,,,,,,,,,,,,,,,,,moes,images/br_moes.png,images/cb_moes.png,,.oes,,,,,,,,,,,-0.022222236,-0.045370384,1,0,0,.oes,0,52,52,0,1
,,,,,,00087,2023-10-24_16h36.35.934,vbt_B1_day2,2022.2.4,Win32,60.26637739,,,,,,,,,,,,,,,,,,,,,,,,,,,,,,,,,,,,,,,,,,geld,images/br_geld.png,images/cb_geld.png,,gel.,,,,,,,,,,,-0.022222236,-0.045370384,1,0,0,gel.,0,53,53,3,1
,,,,,,00087,2023-10-24_16h36.35.934,vbt_B1_day2,2022.2.4,Win32,60.26637739,,,,,,,,,,,,,,,,,,,,,,,,,,,,,,,,,,,,,,,,,,goon,images/br_goon.png,images/cb_goon.png,,goon,,,,,,,,,,,-0.022222236,-0.045370384,1,0,0,goon,0,54,54,23,1
,,,,,,00087,2023-10-24_16h36.35.934,vbt_B1_day2,2022.2.4,Win32,60.26637739,,,,,,,,,,,,,,,,,,,,,,,,,,,,,,,,,,,,,,,,,,zegel,images/br_zegel.png,images/cb_zegel.png,,zegel,,,,,,,,,,,-0.022222236,-0.045370384,1,0,0,zegel,0,55,55,46,1
,,,,,,00087,2023-10-24_16h36.35.934,vbt_B1_day2,2022.2.4,Win32,60.26637739,,,,,,,,,,,,,,,,,,,,,,,,,,,,,,,,,,,,,,,,,,jagen,images/br_jagen.png,images/cb_jagen.png,,.agen,,,,,,,,,,,-0.022222236,-0.045370384,1,0,0,.agen,0,56,56,6,1
,,,,,,00087,2023-10-24_16h36.35.934,vbt_B1_day2,2022.2.4,Win32,60.26637739,,,,,,,,,,,,,,,,,,,,,,,,,,,,,,,,,,,,,,,,,,ningen,images/br_ningen.png,images/cb_ningen.png,,ningen,,,,,,,,,,,-0.022222236,-0.045370384,1,0,0,ningen,0,57,57,28,1
,,,,,,00087,2023-10-24_16h36.35.934,vbt_B1_day2,2022.2.4,Win32,60.26637739,,,,,,,,,,,,,,,,,,,,,,,,,,,,,,,,,,,,,,,,,,blad,images/br_blad.png,images/cb_blad.png,,cla.,,,,,,,,,,,-0.022222236,-0.045370384,1,0,0,cla.,0,58,58,1,1
,,,,,,00087,2023-10-24_16h36.35.934,vbt_B1_day2,2022.2.4,Win32,60.26637739,,,,,,,,,,,,,,,,,,,,,,,,,,,,,,,,,,,,,,,,,,wijve,images/br_wijve.png,images/cb_wijve.png,,ki..e,,,,,,,,,,,-0.022222236,-0.045370384,1,0,0,ki..e,0,59,59,27,1
,,,,,,00087,2023-10-24_16h36.35.934,vbt_B1_day2,2022.2.4,Win32,60.26637739,,,,,,,,,,,,,,,,,,,,,,,,,,,,,,,,,,,,,,,,,,,,,,,,,,,,,,,,,,,,,,,,,,,
