welcome_mouse.x,welcome_mouse.y,welcome_mouse.leftButton,welcome_mouse.midButton,welcome_mouse.rightButton,welcome_mouse.time,"ID",date,expName,psychopyVersion,OS,frameRate,participant,refresh_mouse.x,refresh_mouse.y,refresh_mouse.leftButton,refresh_mouse.midButton,refresh_mouse.rightButton,refresh_mouse.time,braille_mouse.x,braille_mouse.y,braille_mouse.leftButton,braille_mouse.midButton,braille_mouse.rightButton,braille_mouse.time,trials.thisRepN,trials.thisTrialN,trials.thisN,trials.thisIndex,trials.ran,nlLet,brLet,cbLet,trainInstr_mouse.x,trainInstr_mouse.y,trainInstr_mouse.leftButton,trainInstr_mouse.midButton,trainInstr_mouse.rightButton,trainInstr_mouse.time,translation_key.keys,translation_key.corr,translation_key.rt,word_rsp.text,word_mouse.x,word_mouse.y,word_mouse.leftButton,word_mouse.midButton,word_mouse.rightButton,word_mouse.time,train_loop.thisRepN,train_loop.thisTrialN,train_loop.thisN,train_loop.thisIndex,train_loop.ran,nlWrd,brWrd,cbWrd,test,testResp,mouse.x,mouse.y,mouse.leftButton,mouse.midButton,mouse.rightButton,testInstr_mouse.x,testInstr_mouse.y,testInstr_mouse.leftButton,testInstr_mouse.midButton,testInstr_mouse.rightButton,test_mouse.x,test_mouse.y,test_mouse.leftButton,test_mouse.midButton,test_mouse.rightButton,test_response.text,test_loop.thisRepN,test_loop.thisTrialN,test_loop.thisN,test_loop.thisIndex,test_loop.ran
0.055555556,-0.252777806,1,0,0,10.6135,55891,2023-09-25_12h09.54.832,vbt_B1_day2,2022.2.4,Win32,60.15761295,55891,,,,,,,,,,,,,,,,,,,,,,,,,,,,,,,,,,,,,,,,,,,,,,,,,,,,,,,,,,,,,,,,,,,
,,,,,,55891,2023-09-25_12h09.54.832,vbt_B1_day2,2022.2.4,Win32,60.15761295,55891,0.055555556,-0.252777806,1,0,0,17.4241,,,,,,,,,,,,,,,,,,,,,,,,,,,,,,,,,,,,,,,,,,,,,,,,,,,,,,,,,,,,,
,,,,,,55891,2023-09-25_12h09.54.832,vbt_B1_day2,2022.2.4,Win32,60.15761295,55891,,,,,,,0.165740755,-0.238888917,1,0,0,0.467,0,0,0,12,1,m,images/br_m.png,images/cb_m.png,,,,,,,,,,,,,,,,,,,,,,,,,,,,,,,,,,,,,,,,,,,,,,,
,,,,,,55891,2023-09-25_12h09.54.832,vbt_B1_day2,2022.2.4,Win32,60.15761295,55891,,,,,,,0.165740755,-0.238888917,1,0,0,0.7843,0,1,1,23,1,x,images/br_x.png,images/cb_x.png,,,,,,,,,,,,,,,,,,,,,,,,,,,,,,,,,,,,,,,,,,,,,,,
,,,,,,55891,2023-09-25_12h09.54.832,vbt_B1_day2,2022.2.4,Win32,60.15761295,55891,,,,,,,0.165740755,-0.238888917,1,0,0,0.3975,0,2,2,0,1,a,images/br_a.png,images/cb_a.png,,,,,,,,,,,,,,,,,,,,,,,,,,,,,,,,,,,,,,,,,,,,,,,
,,,,,,55891,2023-09-25_12h09.54.832,vbt_B1_day2,2022.2.4,Win32,60.15761295,55891,,,,,,,0.165740755,-0.238888917,1,0,0,0.3834,0,3,3,24,1,y,images/br_y.png,images/cb_y.png,,,,,,,,,,,,,,,,,,,,,,,,,,,,,,,,,,,,,,,,,,,,,,,
,,,,,,55891,2023-09-25_12h09.54.832,vbt_B1_day2,2022.2.4,Win32,60.15761295,55891,,,,,,,0.165740755,-0.238888917,1,0,0,0.3474,0,4,4,18,1,s,images/br_s.png,images/cb_s.png,,,,,,,,,,,,,,,,,,,,,,,,,,,,,,,,,,,,,,,,,,,,,,,
,,,,,,55891,2023-09-25_12h09.54.832,vbt_B1_day2,2022.2.4,Win32,60.15761295,55891,,,,,,,0.165740755,-0.238888917,1,0,0,0.1472,0,5,5,21,1,v,images/br_v.png,images/cb_v.png,,,,,,,,,,,,,,,,,,,,,,,,,,,,,,,,,,,,,,,,,,,,,,,
,,,,,,55891,2023-09-25_12h09.54.832,vbt_B1_day2,2022.2.4,Win32,60.15761295,55891,,,,,,,0.165740755,-0.238888917,1,0,0,0.0808,0,6,6,20,1,u,images/br_u.png,images/cb_u.png,,,,,,,,,,,,,,,,,,,,,,,,,,,,,,,,,,,,,,,,,,,,,,,
,,,,,,55891,2023-09-25_12h09.54.832,vbt_B1_day2,2022.2.4,Win32,60.15761295,55891,,,,,,,0.165740755,-0.238888917,1,0,0,0.1202,0,7,7,14,1,o,images/br_o.png,images/cb_o.png,,,,,,,,,,,,,,,,,,,,,,,,,,,,,,,,,,,,,,,,,,,,,,,
,,,,,,55891,2023-09-25_12h09.54.832,vbt_B1_day2,2022.2.4,Win32,60.15761295,55891,,,,,,,0.160185213,-0.240740741,1,0,0,0.5008,0,8,8,11,1,l,images/br_l.png,images/cb_l.png,,,,,,,,,,,,,,,,,,,,,,,,,,,,,,,,,,,,,,,,,,,,,,,
,,,,,,55891,2023-09-25_12h09.54.832,vbt_B1_day2,2022.2.4,Win32,60.15761295,55891,,,,,,,0.270370413,-0.266666695,1,0,0,0.3312,0,9,9,6,1,g,images/br_g.png,images/cb_g.png,,,,,,,,,,,,,,,,,,,,,,,,,,,,,,,,,,,,,,,,,,,,,,,
,,,,,,55891,2023-09-25_12h09.54.832,vbt_B1_day2,2022.2.4,Win32,60.15761295,55891,,,,,,,0.270370413,-0.266666695,1,0,0,0.15,0,10,10,5,1,f,images/br_f.png,images/cb_f.png,,,,,,,,,,,,,,,,,,,,,,,,,,,,,,,,,,,,,,,,,,,,,,,
,,,,,,55891,2023-09-25_12h09.54.832,vbt_B1_day2,2022.2.4,Win32,60.15761295,55891,,,,,,,0.270370413,-0.266666695,1,0,0,0.1841,0,11,11,1,1,b,images/br_b.png,images/cb_b.png,,,,,,,,,,,,,,,,,,,,,,,,,,,,,,,,,,,,,,,,,,,,,,,
,,,,,,55891,2023-09-25_12h09.54.832,vbt_B1_day2,2022.2.4,Win32,60.15761295,55891,,,,,,,0.307407379,-0.270370413,1,0,0,0.9332,0,12,12,2,1,c,images/br_c.png,images/cb_c.png,,,,,,,,,,,,,,,,,,,,,,,,,,,,,,,,,,,,,,,,,,,,,,,
,,,,,,55891,2023-09-25_12h09.54.832,vbt_B1_day2,2022.2.4,Win32,60.15761295,55891,,,,,,,0.307407379,-0.270370413,1,0,0,0.151,0,13,13,7,1,h,images/br_h.png,images/cb_h.png,,,,,,,,,,,,,,,,,,,,,,,,,,,,,,,,,,,,,,,,,,,,,,,
,,,,,,55891,2023-09-25_12h09.54.832,vbt_B1_day2,2022.2.4,Win32,60.15761295,55891,,,,,,,0.307407379,-0.270370413,1,0,0,0.0833,0,14,14,9,1,j,images/br_j.png,images/cb_j.png,,,,,,,,,,,,,,,,,,,,,,,,,,,,,,,,,,,,,,,,,,,,,,,
,,,,,,55891,2023-09-25_12h09.54.832,vbt_B1_day2,2022.2.4,Win32,60.15761295,55891,,,,,,,0.307407379,-0.270370413,1,0,0,0.1998,0,15,15,17,1,r,images/br_r.png,images/cb_r.png,,,,,,,,,,,,,,,,,,,,,,,,,,,,,,,,,,,,,,,,,,,,,,,
,,,,,,55891,2023-09-25_12h09.54.832,vbt_B1_day2,2022.2.4,Win32,60.15761295,55891,,,,,,,0.307407379,-0.270370413,1,0,0,0.3165,0,16,16,16,1,q,images/br_q.png,images/cb_q.png,,,,,,,,,,,,,,,,,,,,,,,,,,,,,,,,,,,,,,,,,,,,,,,
,,,,,,55891,2023-09-25_12h09.54.832,vbt_B1_day2,2022.2.4,Win32,60.15761295,55891,,,,,,,0.42777775,-0.277777778,1,0,0,0.1328,0,17,17,15,1,p,images/br_p.png,images/cb_p.png,,,,,,,,,,,,,,,,,,,,,,,,,,,,,,,,,,,,,,,,,,,,,,,
,,,,,,55891,2023-09-25_12h09.54.832,vbt_B1_day2,2022.2.4,Win32,60.15761295,55891,,,,,,,0.42777775,-0.277777778,1,0,0,0.3668,0,18,18,8,1,i,images/br_i.png,images/cb_i.png,,,,,,,,,,,,,,,,,,,,,,,,,,,,,,,,,,,,,,,,,,,,,,,
,,,,,,55891,2023-09-25_12h09.54.832,vbt_B1_day2,2022.2.4,Win32,60.15761295,55891,,,,,,,0.42777775,-0.277777778,1,0,0,0.4835,0,19,19,3,1,d,images/br_d.png,images/cb_d.png,,,,,,,,,,,,,,,,,,,,,,,,,,,,,,,,,,,,,,,,,,,,,,,
,,,,,,55891,2023-09-25_12h09.54.832,vbt_B1_day2,2022.2.4,Win32,60.15761295,55891,,,,,,,0.42777775,-0.277777778,1,0,0,0.1001,0,20,20,25,1,z,images/br_z.png,images/cb_z.png,,,,,,,,,,,,,,,,,,,,,,,,,,,,,,,,,,,,,,,,,,,,,,,
,,,,,,55891,2023-09-25_12h09.54.832,vbt_B1_day2,2022.2.4,Win32,60.15761295,55891,,,,,,,0.42777775,-0.277777778,1,0,0,0.4165,0,21,21,22,1,w,images/br_w.png,images/cb_w.png,,,,,,,,,,,,,,,,,,,,,,,,,,,,,,,,,,,,,,,,,,,,,,,
,,,,,,55891,2023-09-25_12h09.54.832,vbt_B1_day2,2022.2.4,Win32,60.15761295,55891,,,,,,,0.42777775,-0.277777778,1,0,0,0.0331,0,22,22,13,1,n,images/br_n.png,images/cb_n.png,,,,,,,,,,,,,,,,,,,,,,,,,,,,,,,,,,,,,,,,,,,,,,,
,,,,,,55891,2023-09-25_12h09.54.832,vbt_B1_day2,2022.2.4,Win32,60.15761295,55891,,,,,,,0.42777775,-0.277777778,1,0,0,0.1,0,23,23,10,1,k,images/br_k.png,images/cb_k.png,,,,,,,,,,,,,,,,,,,,,,,,,,,,,,,,,,,,,,,,,,,,,,,
,,,,,,55891,2023-09-25_12h09.54.832,vbt_B1_day2,2022.2.4,Win32,60.15761295,55891,,,,,,,0.42777775,-0.277777778,1,0,0,0.117,0,24,24,4,1,e,images/br_e.png,images/cb_e.png,,,,,,,,,,,,,,,,,,,,,,,,,,,,,,,,,,,,,,,,,,,,,,,
,,,,,,55891,2023-09-25_12h09.54.832,vbt_B1_day2,2022.2.4,Win32,60.15761295,55891,,,,,,,0.42777775,-0.277777778,1,0,0,0.0832,0,25,25,19,1,t,images/br_t.png,images/cb_t.png,,,,,,,,,,,,,,,,,,,,,,,,,,,,,,,,,,,,,,,,,,,,,,,
,,,,,,55891,2023-09-25_12h09.54.832,vbt_B1_day2,2022.2.4,Win32,60.15761295,55891,,,,,,,,,,,,,,,,,,,,,0.550925926,-0.327777792,1,0,0,34.8819,,,,,,,,,,,,,,,,,,,,,,,,,,,,,,,,,,,,,,,,,
,,,,,,55891,2023-09-25_12h09.54.832,vbt_B1_day2,2022.2.4,Win32,60.15761295,55891,,,,,,,,,,,,,,,,,,,,,,,,,,,down,0,16.7118,,0.361111111,-0.085185192,1,0,0,7.8697,0,0,0,4,1,moes,images/br_moes.png,images/cb_moes.png,0,,,,,,,,,,,,,,,,,,,,,,
,,,,,,55891,2023-09-25_12h09.54.832,vbt_B1_day2,2022.2.4,Win32,60.15761295,55891,,,,,,,,,,,,,,,,,,,,,,,,,,,down,0,3.8825,,0.516666695,-0.188888903,1,0,0,6.1172,0,1,1,69,1,waken,images/br_waken.png,images/cb_waken.png,0,,,,,,,,,,,,,,,,,,,,,,
,,,,,,55891,2023-09-25_12h09.54.832,vbt_B1_day2,2022.2.4,Win32,60.15761295,55891,,,,,,,,,,,,,,,,,,,,,,,,,,,down,0,28.9316,,0.470370399,-0.363888917,1,0,0,1.2821,0,2,2,136,1,waarbij,images/br_waarbij.png,images/cb_waarbij.png,1,waarbi,,,,,,,,,,,,,,,,,,,,,
,,,,,,55891,2023-09-25_12h09.54.832,vbt_B1_day2,2022.2.4,Win32,60.15761295,55891,,,,,,,,,,,,,,,,,,,,,,,,,,,down,0,10.6673,,0.470370399,-0.363888917,1,0,0,0.8698,0,3,3,94,1,oceaan,images/br_oceaan.png,images/cb_oceaan.png,0,,,,,,,,,,,,,,,,,,,,,,
,,,,,,55891,2023-09-25_12h09.54.832,vbt_B1_day2,2022.2.4,Win32,60.15761295,55891,,,,,,,,,,,,,,,,,,,,,,,,,,,down,0,10.3166,,0.579629686,-0.375,1,0,0,0.9631,0,4,4,141,1,knielen,images/br_knielen.png,images/cb_knielen.png,0,,,,,,,,,,,,,,,,,,,,,,
,,,,,,55891,2023-09-25_12h09.54.832,vbt_B1_day2,2022.2.4,Win32,60.15761295,55891,,,,,,,,,,,,,,,,,,,,,,,,,,,down,0,6.0175,,0.579629686,-0.375,1,0,0,3.8865,0,5,5,107,1,maling,images/br_maling.png,images/cb_maling.png,0,,,,,,,,,,,,,,,,,,,,,,
,,,,,,55891,2023-09-25_12h09.54.832,vbt_B1_day2,2022.2.4,Win32,60.15761295,55891,,,,,,,,,,,,,,,,,,,,,,,,,,,down,0,6.3862,,0.579629686,-0.375,1,0,0,1.0835,0,6,6,154,1,aflopen,images/br_aflopen.png,images/cb_aflopen.png,0,,,,,,,,,,,,,,,,,,,,,,
,,,,,,55891,2023-09-25_12h09.54.832,vbt_B1_day2,2022.2.4,Win32,60.15761295,55891,,,,,,,,,,,,,,,,,,,,,,,,,,,down,0,6.4404,,0.579629686,-0.375,1,0,0,1.2664,0,7,7,14,1,rijp,images/br_rijp.png,images/cb_rijp.png,0,,,,,,,,,,,,,,,,,,,,,,
,,,,,,55891,2023-09-25_12h09.54.832,vbt_B1_day2,2022.2.4,Win32,60.15761295,55891,,,,,,,,,,,,,,,,,,,,,,,,,,,down,0,10.3171,,0.579629686,-0.375,1,0,0,2.0702,0,8,8,162,1,uitdelen,images/br_uitdelen.png,images/cb_uitdelen.png,0,,,,,,,,,,,,,,,,,,,,,,
,,,,,,55891,2023-09-25_12h09.54.832,vbt_B1_day2,2022.2.4,Win32,60.15761295,55891,,,,,,,,,,,,,,,,,,,,,,,,,,,down,0,4.7305,,0.579629686,-0.375,1,0,0,0.8837,0,9,9,18,1,blik,images/br_blik.png,images/cb_blik.png,1,blik,,,,,,,,,,,,,,,,,,,,,
,,,,,,55891,2023-09-25_12h09.54.832,vbt_B1_day2,2022.2.4,Win32,60.15761295,55891,,,,,,,,,,,,,,,,,,,,,,,,,,,down,0,4.7051,,0.579629686,-0.375,1,0,0,0.7532,0,10,10,17,1,taal,images/br_taal.png,images/cb_taal.png,1,taal,,,,,,,,,,,,,,,,,,,,,
,,,,,,55891,2023-09-25_12h09.54.832,vbt_B1_day2,2022.2.4,Win32,60.15761295,55891,,,,,,,,,,,,,,,,,,,,,,,,,,,down,0,5.6861,,0.579629686,-0.375,1,0,0,0.8669,0,11,11,180,1,openbaar,images/br_openbaar.png,images/cb_openbaar.png,0,,,,,,,,,,,,,,,,,,,,,,
,,,,,,55891,2023-09-25_12h09.54.832,vbt_B1_day2,2022.2.4,Win32,60.15761295,55891,,,,,,,,,,,,,,,,,,,,,,,,,,,down,0,11.0112,,0.579629686,-0.375,1,0,0,0.9662,0,12,12,129,1,verhaal,images/br_verhaal.png,images/cb_verhaal.png,0,,,,,,,,,,,,,,,,,,,,,,
,,,,,,55891,2023-09-25_12h09.54.832,vbt_B1_day2,2022.2.4,Win32,60.15761295,55891,,,,,,,,,,,,,,,,,,,,,,,,,,,down,0,4.1234,,0.578703704,-0.375925912,1,0,0,1.0507,0,13,13,61,1,groen,images/br_groen.png,images/cb_groen.png,0,,,,,,,,,,,,,,,,,,,,,,
,,,,,,55891,2023-09-25_12h09.54.832,vbt_B1_day2,2022.2.4,Win32,60.15761295,55891,,,,,,,,,,,,,,,,,,,,,,,,,,,down,0,8.525,,0.578703704,-0.375925912,1,0,0,1.2498,0,14,14,3,1,mand,images/br_mand.png,images/cb_mand.png,0,,,,,,,,,,,,,,,,,,,,,,
,,,,,,55891,2023-09-25_12h09.54.832,vbt_B1_day2,2022.2.4,Win32,60.15761295,55891,,,,,,,,,,,,,,,,,,,,,,,,,,,down,0,7.7764,,0.577777863,-0.375925912,1,0,0,0.754,0,15,15,97,1,loyaal,images/br_loyaal.png,images/cb_loyaal.png,1,loyaal,,,,,,,,,,,,,,,,,,,,,
,,,,,,55891,2023-09-25_12h09.54.832,vbt_B1_day2,2022.2.4,Win32,60.15761295,55891,,,,,,,,,,,,,,,,,,,,,,,,,,,down,0,4.994,,0.574074074,-0.37037037,1,0,0,1.4359,0,16,16,33,1,vlek,images/br_vlek.png,images/cb_vlek.png,0,,,,,,,,,,,,,,,,,,,,,,
,,,,,,55891,2023-09-25_12h09.54.832,vbt_B1_day2,2022.2.4,Win32,60.15761295,55891,,,,,,,,,,,,,,,,,,,,,,,,,,,down,0,9.4828,,0.574074074,-0.37037037,1,0,0,1.2802,0,17,17,155,1,gerucht,images/br_gerucht.png,images/cb_gerucht.png,0,,,,,,,,,,,,,,,,,,,,,,
,,,,,,55891,2023-09-25_12h09.54.832,vbt_B1_day2,2022.2.4,Win32,60.15761295,55891,,,,,,,,,,,,,,,,,,,,,,,,,,,down,0,1.7625,,0.574074074,-0.37037037,1,0,0,0.6665,0,18,18,25,1,plek,images/br_plek.png,images/cb_plek.png,0,,,,,,,,,,,,,,,,,,,,,,
,,,,,,55891,2023-09-25_12h09.54.832,vbt_B1_day2,2022.2.4,Win32,60.15761295,55891,,,,,,,,,,,,,,,,,,,,,,,,,,,down,0,8.4994,,0.574074074,-0.37037037,1,0,0,1.4132,0,19,19,72,1,strak,images/br_strak.png,images/cb_strak.png,0,,,,,,,,,,,,,,,,,,,,,,
,,,,,,55891,2023-09-25_12h09.54.832,vbt_B1_day2,2022.2.4,Win32,60.15761295,55891,,,,,,,,,,,,,,,,,,,,,,,,,,,down,0,3.4748,,0.574074074,-0.37037037,1,0,0,0.5832,0,20,20,49,1,laken,images/br_laken.png,images/cb_laken.png,0,,,,,,,,,,,,,,,,,,,,,,
,,,,,,55891,2023-09-25_12h09.54.832,vbt_B1_day2,2022.2.4,Win32,60.15761295,55891,,,,,,,,,,,,,,,,,,,,,,,,,,,down,0,7.6166,,0.574074074,-0.37037037,1,0,0,1.0665,0,21,21,20,1,site,images/br_site.png,images/cb_site.png,0,,,,,,,,,,,,,,,,,,,,,,
,,,,,,55891,2023-09-25_12h09.54.832,vbt_B1_day2,2022.2.4,Win32,60.15761295,55891,,,,,,,,,,,,,,,,,,,,,,,,,,,down,0,7.854,,0.574074074,-0.37037037,1,0,0,1.95,0,22,22,193,1,weeshuis,images/br_weeshuis.png,images/cb_weeshuis.png,0,,,,,,,,,,,,,,,,,,,,,,
,,,,,,55891,2023-09-25_12h09.54.832,vbt_B1_day2,2022.2.4,Win32,60.15761295,55891,,,,,,,,,,,,,,,,,,,,,,,,,,,down,0,10.7668,,0.574074074,-0.37037037,1,0,0,1.6034,0,23,23,135,1,gedicht,images/br_gedicht.png,images/cb_gedicht.png,0,,,,,,,,,,,,,,,,,,,,,,
,,,,,,55891,2023-09-25_12h09.54.832,vbt_B1_day2,2022.2.4,Win32,60.15761295,55891,,,,,,,,,,,,,,,,,,,,,,,,,,,down,0,7.4547,,0.652777778,-0.336111139,1,0,0,1.0168,0,24,24,114,1,vullen,images/br_vullen.png,images/cb_vullen.png,0,,,,,,,,,,,,,,,,,,,,,,
,,,,,,55891,2023-09-25_12h09.54.832,vbt_B1_day2,2022.2.4,Win32,60.15761295,55891,,,,,,,,,,,,,,,,,,,,,,,,,,,down,0,14.3007,,0.652777778,-0.336111139,1,0,0,2.433,0,25,25,165,1,feestdag,images/br_feestdag.png,images/cb_feestdag.png,0,,,,,,,,,,,,,,,,,,,,,,
,,,,,,55891,2023-09-25_12h09.54.832,vbt_B1_day2,2022.2.4,Win32,60.15761295,55891,,,,,,,,,,,,,,,,,,,,,,,,,,,down,0,1.7752,,0.652777778,-0.336111139,1,0,0,0.9332,0,26,26,7,1,geld,images/br_geld.png,images/cb_geld.png,0,,,,,,,,,,,,,,,,,,,,,,
,,,,,,55891,2023-09-25_12h09.54.832,vbt_B1_day2,2022.2.4,Win32,60.15761295,55891,,,,,,,,,,,,,,,,,,,,,,,,,,,down,0,8.0492,,0.652777778,-0.336111139,1,0,0,1.017,0,27,27,105,1,wijlen,images/br_wijlen.png,images/cb_wijlen.png,0,,,,,,,,,,,,,,,,,,,,,,
,,,,,,55891,2023-09-25_12h09.54.832,vbt_B1_day2,2022.2.4,Win32,60.15761295,55891,,,,,,,,,,,,,,,,,,,,,,,,,,,down,0,0.7018,,0.652777778,-0.336111139,1,0,0,0.7667,0,28,28,13,1,kaal,images/br_kaal.png,images/cb_kaal.png,0,,,,,,,,,,,,,,,,,,,,,,
,,,,,,55891,2023-09-25_12h09.54.832,vbt_B1_day2,2022.2.4,Win32,60.15761295,55891,,,,,,,,,,,,,,,,,,,,,,,,,,,down,0,7.9081,,0.652777778,-0.336111139,1,0,0,0.8199,0,29,29,190,1,goedkoop,images/br_goedkoop.png,images/cb_goedkoop.png,0,,,,,,,,,,,,,,,,,,,,,,
,,,,,,55891,2023-09-25_12h09.54.832,vbt_B1_day2,2022.2.4,Win32,60.15761295,55891,,,,,,,,,,,,,,,,,,,,,,,,,,,down,0,4.5339,,0.652777778,-0.336111139,1,0,0,0.7702,0,30,30,109,1,totaal,images/br_totaal.png,images/cb_totaal.png,0,,,,,,,,,,,,,,,,,,,,,,
,,,,,,55891,2023-09-25_12h09.54.832,vbt_B1_day2,2022.2.4,Win32,60.15761295,55891,,,,,,,,,,,,,,,,,,,,,,,,,,,down,0,10.5677,,0.652777778,-0.336111139,1,0,0,3.2031,0,31,31,30,1,uien,images/br_uien.png,images/cb_uien.png,0,,,,,,,,,,,,,,,,,,,,,,
,,,,,,55891,2023-09-25_12h09.54.832,vbt_B1_day2,2022.2.4,Win32,60.15761295,55891,,,,,,,,,,,,,,,,,,,,,,,,,,,down,0,19.1769,,0.652777778,-0.336111139,1,0,0,1.6832,0,32,32,70,1,ijdel,images/br_ijdel.png,images/cb_ijdel.png,0,,,,,,,,,,,,,,,,,,,,,,
,,,,,,55891,2023-09-25_12h09.54.832,vbt_B1_day2,2022.2.4,Win32,60.15761295,55891,,,,,,,,,,,,,,,,,,,,,,,,,,,down,0,11.0786,,0.652777778,-0.336111139,1,0,0,0.8003,0,33,33,88,1,boeien,images/br_boeien.png,images/cb_boeien.png,0,,,,,,,,,,,,,,,,,,,,,,
,,,,,,55891,2023-09-25_12h09.54.832,vbt_B1_day2,2022.2.4,Win32,60.15761295,55891,,,,,,,,,,,,,,,,,,,,,,,,,,,down,0,2.6514,,0.652777778,-0.336111139,1,0,0,0.5664,0,34,34,53,1,baron,images/br_baron.png,images/cb_baron.png,0,,,,,,,,,,,,,,,,,,,,,,
,,,,,,55891,2023-09-25_12h09.54.832,vbt_B1_day2,2022.2.4,Win32,60.15761295,55891,,,,,,,,,,,,,,,,,,,,,,,,,,,down,0,4.1,,0.652777778,-0.336111139,1,0,0,0.6535,0,35,35,54,1,gebit,images/br_gebit.png,images/cb_gebit.png,0,,,,,,,,,,,,,,,,,,,,,,
,,,,,,55891,2023-09-25_12h09.54.832,vbt_B1_day2,2022.2.4,Win32,60.15761295,55891,,,,,,,,,,,,,,,,,,,,,,,,,,,down,0,4.142,,0.652777778,-0.336111139,1,0,0,0.6161,0,36,36,65,1,parel,images/br_parel.png,images/cb_parel.png,0,,,,,,,,,,,,,,,,,,,,,,
,,,,,,55891,2023-09-25_12h09.54.832,vbt_B1_day2,2022.2.4,Win32,60.15761295,55891,,,,,,,,,,,,,,,,,,,,,,,,,,,down,0,17.9621,,0.652777778,-0.336111139,1,0,0,1.3204,0,37,37,179,1,woestijn,images/br_woestijn.png,images/cb_woestijn.png,1,woestijn,,,,,,,,,,,,,,,,,,,,,
,,,,,,55891,2023-09-25_12h09.54.832,vbt_B1_day2,2022.2.4,Win32,60.15761295,55891,,,,,,,,,,,,,,,,,,,,,,,,,,,down,0,5.7499,,0.652777778,-0.336111139,1,0,0,0.6498,0,38,38,101,1,staren,images/br_staren.png,images/cb_staren.png,0,,,,,,,,,,,,,,,,,,,,,,
,,,,,,55891,2023-09-25_12h09.54.832,vbt_B1_day2,2022.2.4,Win32,60.15761295,55891,,,,,,,,,,,,,,,,,,,,,,,,,,,down,0,1.9505,,0.652777778,-0.336111139,1,0,0,0.7167,0,39,39,36,1,vuur,images/br_vuur.png,images/cb_vuur.png,0,,,,,,,,,,,,,,,,,,,,,,
,,,,,,55891,2023-09-25_12h09.54.832,vbt_B1_day2,2022.2.4,Win32,60.15761295,55891,,,,,,,,,,,,,,,,,,,,,,,,,,,down,0,5.9674,,0.652777778,-0.336111139,1,0,0,0.6998,0,40,40,142,1,snuiven,images/br_snuiven.png,images/cb_snuiven.png,0,,,,,,,,,,,,,,,,,,,,,,
,,,,,,55891,2023-09-25_12h09.54.832,vbt_B1_day2,2022.2.4,Win32,60.15761295,55891,,,,,,,,,,,,,,,,,,,,,,,,,,,down,0,17.4159,,0.652777778,-0.336111139,1,0,0,0.9831,0,41,41,191,1,opheffen,images/br_opheffen.png,images/cb_opheffen.png,0,,,,,,,,,,,,,,,,,,,,,,
,,,,,,55891,2023-09-25_12h09.54.832,vbt_B1_day2,2022.2.4,Win32,60.15761295,55891,,,,,,,,,,,,,,,,,,,,,,,,,,,down,0,7.5399,,0.652777778,-0.336111139,1,0,0,1.0026,0,42,42,37,1,mijn,images/br_mijn.png,images/cb_mijn.png,0,,,,,,,,,,,,,,,,,,,,,,
,,,,,,55891,2023-09-25_12h09.54.832,vbt_B1_day2,2022.2.4,Win32,60.15761295,55891,,,,,,,,,,,,,,,,,,,,,,,,,,,down,0,3.0676,,0.652777778,-0.336111139,1,0,0,0.786,0,43,43,6,1,diep,images/br_diep.png,images/cb_diep.png,0,,,,,,,,,,,,,,,,,,,,,,
,,,,,,55891,2023-09-25_12h09.54.832,vbt_B1_day2,2022.2.4,Win32,60.15761295,55891,,,,,,,,,,,,,,,,,,,,,,,,,,,down,0,24.896,,0.652777778,-0.336111139,1,0,0,5.0169,0,44,44,178,1,huisdier,images/br_huisdier.png,images/cb_huisdier.png,1,.misjier,,,,,,,,,,,,,,,,,,,,,
,,,,,,55891,2023-09-25_12h09.54.832,vbt_B1_day2,2022.2.4,Win32,60.15761295,55891,,,,,,,,,,,,,,,,,,,,,,,,,,,down,0,1.1177,,0.652777778,-0.336111139,1,0,0,0.7463,0,45,45,84,1,lokken,images/br_lokken.png,images/cb_lokken.png,0,,,,,,,,,,,,,,,,,,,,,,
,,,,,,55891,2023-09-25_12h09.54.832,vbt_B1_day2,2022.2.4,Win32,60.15761295,55891,,,,,,,,,,,,,,,,,,,,,,,,,,,down,0,5.763,,0.652777778,-0.336111139,1,0,0,0.6164,0,46,46,122,1,waarvan,images/br_waarvan.png,images/cb_waarvan.png,0,,,,,,,,,,,,,,,,,,,,,,
,,,,,,55891,2023-09-25_12h09.54.832,vbt_B1_day2,2022.2.4,Win32,60.15761295,55891,,,,,,,,,,,,,,,,,,,,,,,,,,,down,0,4.5457,,0.652777778,-0.336111139,1,0,0,0.5671,0,47,47,175,1,heengaan,images/br_heengaan.png,images/cb_heengaan.png,0,,,,,,,,,,,,,,,,,,,,,,
,,,,,,55891,2023-09-25_12h09.54.832,vbt_B1_day2,2022.2.4,Win32,60.15761295,55891,,,,,,,,,,,,,,,,,,,,,,,,,,,down,0,21.7137,,0.652777778,-0.336111139,1,0,0,0.6158,0,48,48,139,1,stiekem,images/br_stiekem.png,images/cb_stiekem.png,1,stiekem,,,,,,,,,,,,,,,,,,,,,
,,,,,,55891,2023-09-25_12h09.54.832,vbt_B1_day2,2022.2.4,Win32,60.15761295,55891,,,,,,,,,,,,,,,,,,,,,,,,,,,down,0,1.4515,,0.652777778,-0.336111139,1,0,0,0.5664,0,49,49,78,1,leren,images/br_leren.png,images/cb_leren.png,0,,,,,,,,,,,,,,,,,,,,,,
,,,,,,55891,2023-09-25_12h09.54.832,vbt_B1_day2,2022.2.4,Win32,60.15761295,55891,,,,,,,,,,,,,,,,,,,,,,,,,,,down,0,3.1888,,0.652777778,-0.336111139,1,0,0,0.7834,0,50,50,74,1,graaf,images/br_graaf.png,images/cb_graaf.png,0,,,,,,,,,,,,,,,,,,,,,,
,,,,,,55891,2023-09-25_12h09.54.832,vbt_B1_day2,2022.2.4,Win32,60.15761295,55891,,,,,,,,,,,,,,,,,,,,,,,,,,,down,0,3.0215,,0.652777778,-0.336111139,1,0,0,0.6,0,51,51,66,1,lever,images/br_lever.png,images/cb_lever.png,0,,,,,,,,,,,,,,,,,,,,,,
,,,,,,55891,2023-09-25_12h09.54.832,vbt_B1_day2,2022.2.4,Win32,60.15761295,55891,,,,,,,,,,,,,,,,,,,,,,,,,,,down,0,11.2863,,0.652777778,-0.336111139,1,0,0,2.0366,0,52,52,176,1,techniek,images/br_techniek.png,images/cb_techniek.png,1,techniek,,,,,,,,,,,,,,,,,,,,,
,,,,,,55891,2023-09-25_12h09.54.832,vbt_B1_day2,2022.2.4,Win32,60.15761295,55891,,,,,,,,,,,,,,,,,,,,,,,,,,,down,0,11.9833,,0.652777778,-0.336111139,1,0,0,1.013,0,53,53,174,1,stemming,images/br_stemming.png,images/cb_stemming.png,0,,,,,,,,,,,,,,,,,,,,,,
,,,,,,55891,2023-09-25_12h09.54.832,vbt_B1_day2,2022.2.4,Win32,60.15761295,55891,,,,,,,,,,,,,,,,,,,,,,,,,,,down,0,7.9166,,0.688888974,-0.357407393,1,0,0,0.3965,0,54,54,183,1,getuigen,images/br_getuigen.png,images/cb_getuigen.png,0,,,,,,,,,,,,,,,,,,,,,,
,,,,,,55891,2023-09-25_12h09.54.832,vbt_B1_day2,2022.2.4,Win32,60.15761295,55891,,,,,,,,,,,,,,,,,,,,,,,,,,,down,0,6.6643,,0.683333362,-0.352777764,1,0,0,0.8195,0,55,55,158,1,innemen,images/br_innemen.png,images/cb_innemen.png,0,,,,,,,,,,,,,,,,,,,,,,
,,,,,,55891,2023-09-25_12h09.54.832,vbt_B1_day2,2022.2.4,Win32,60.15761295,55891,,,,,,,,,,,,,,,,,,,,,,,,,,,down,0,4.7898,,0.683333362,-0.352777764,1,0,0,0.7192,0,56,56,64,1,wegen,images/br_wegen.png,images/cb_wegen.png,0,,,,,,,,,,,,,,,,,,,,,,
,,,,,,55891,2023-09-25_12h09.54.832,vbt_B1_day2,2022.2.4,Win32,60.15761295,55891,,,,,,,,,,,,,,,,,,,,,,,,,,,down,0,9.0586,,0.683333362,-0.352777764,1,0,0,1.3332,0,57,57,58,1,tekst,images/br_tekst.png,images/cb_tekst.png,1,tekst,,,,,,,,,,,,,,,,,,,,,
,,,,,,55891,2023-09-25_12h09.54.832,vbt_B1_day2,2022.2.4,Win32,60.15761295,55891,,,,,,,,,,,,,,,,,,,,,,,,,,,down,0,3.7292,,0.683333362,-0.352777764,1,0,0,0.6501,0,58,58,185,1,mijnheer,images/br_mijnheer.png,images/cb_mijnheer.png,0,,,,,,,,,,,,,,,,,,,,,,
,,,,,,55891,2023-09-25_12h09.54.832,vbt_B1_day2,2022.2.4,Win32,60.15761295,55891,,,,,,,,,,,,,,,,,,,,,,,,,,,down,0,2.6668,,0.67314812,-0.348148134,1,0,0,1.5334,0,59,59,123,1,hiervan,images/br_hiervan.png,images/cb_hiervan.png,0,,,,,,,,,,,,,,,,,,,,,,
,,,,,,55891,2023-09-25_12h09.54.832,vbt_B1_day2,2022.2.4,Win32,60.15761295,55891,,,,,,,,,,,,,,,,,,,,,,,,,,,down,0,2.6111,,0.67314812,-0.348148134,1,0,0,0.803,0,60,60,160,1,daarheen,images/br_daarheen.png,images/cb_daarheen.png,0,,,,,,,,,,,,,,,,,,,,,,
,,,,,,55891,2023-09-25_12h09.54.832,vbt_B1_day2,2022.2.4,Win32,60.15761295,55891,,,,,,,,,,,,,,,,,,,,,,,,,,,down,0,9.6928,,0.67314812,-0.348148134,1,0,0,0.82,0,61,61,63,1,flirt,images/br_flirt.png,images/cb_flirt.png,0,,,,,,,,,,,,,,,,,,,,,,
,,,,,,55891,2023-09-25_12h09.54.832,vbt_B1_day2,2022.2.4,Win32,60.15761295,55891,,,,,,,,,,,,,,,,,,,,,,,,,,,down,0,3.2168,,0.67314812,-0.348148134,1,0,0,0.6673,0,62,62,82,1,muziek,images/br_muziek.png,images/cb_muziek.png,0,,,,,,,,,,,,,,,,,,,,,,
,,,,,,55891,2023-09-25_12h09.54.832,vbt_B1_day2,2022.2.4,Win32,60.15761295,55891,,,,,,,,,,,,,,,,,,,,,,,,,,,down,0,6.7971,,0.67314812,-0.348148134,1,0,0,0.6363,0,63,63,131,1,opzicht,images/br_opzicht.png,images/cb_opzicht.png,0,,,,,,,,,,,,,,,,,,,,,,
,,,,,,55891,2023-09-25_12h09.54.832,vbt_B1_day2,2022.2.4,Win32,60.15761295,55891,,,,,,,,,,,,,,,,,,,,,,,,,,,down,0,9.8389,,0.67314812,-0.348148134,1,0,0,0.8166,0,64,64,198,1,bedoelen,images/br_bedoelen.png,images/cb_bedoelen.png,0,,,,,,,,,,,,,,,,,,,,,,
,,,,,,55891,2023-09-25_12h09.54.832,vbt_B1_day2,2022.2.4,Win32,60.15761295,55891,,,,,,,,,,,,,,,,,,,,,,,,,,,down,0,9.25,,0.67777775,-0.34629631,1,0,0,0.8167,0,65,65,71,1,bever,images/br_bever.png,images/cb_bever.png,0,,,,,,,,,,,,,,,,,,,,,,
,,,,,,55891,2023-09-25_12h09.54.832,vbt_B1_day2,2022.2.4,Win32,60.15761295,55891,,,,,,,,,,,,,,,,,,,,,,,,,,,down,0,9.6671,,0.675925926,-0.34629631,1,0,0,1.2507,0,66,66,77,1,woede,images/br_woede.png,images/cb_woede.png,0,,,,,,,,,,,,,,,,,,,,,,
,,,,,,55891,2023-09-25_12h09.54.832,vbt_B1_day2,2022.2.4,Win32,60.15761295,55891,,,,,,,,,,,,,,,,,,,,,,,,,,,down,0,2.49,,0.675925926,-0.34629631,1,0,0,0.6038,0,67,67,28,1,stal,images/br_stal.png,images/cb_stal.png,0,,,,,,,,,,,,,,,,,,,,,,
,,,,,,55891,2023-09-25_12h09.54.832,vbt_B1_day2,2022.2.4,Win32,60.15761295,55891,,,,,,,,,,,,,,,,,,,,,,,,,,,down,0,8.594,,0.675925926,-0.34629631,1,0,0,0.5365,0,68,68,75,1,snoep,images/br_snoep.png,images/cb_snoep.png,0,,,,,,,,,,,,,,,,,,,,,,
,,,,,,55891,2023-09-25_12h09.54.832,vbt_B1_day2,2022.2.4,Win32,60.15761295,55891,,,,,,,,,,,,,,,,,,,,,,,,,,,down,0,3.8171,,0.675925926,-0.34629631,1,0,0,0.6299,0,69,69,8,1,knie,images/br_knie.png,images/cb_knie.png,0,,,,,,,,,,,,,,,,,,,,,,
,,,,,,55891,2023-09-25_12h09.54.832,vbt_B1_day2,2022.2.4,Win32,60.15761295,55891,,,,,,,,,,,,,,,,,,,,,,,,,,,down,0,12.1998,,0.675925926,-0.34629631,1,0,0,0.6999,0,70,70,104,1,zweven,images/br_zweven.png,images/cb_zweven.png,0,,,,,,,,,,,,,,,,,,,,,,
,,,,,,55891,2023-09-25_12h09.54.832,vbt_B1_day2,2022.2.4,Win32,60.15761295,55891,,,,,,,,,,,,,,,,,,,,,,,,,,,down,0,4.3413,,0.675925926,-0.34629631,1,0,0,1.1704,0,71,71,81,1,dubbel,images/br_dubbel.png,images/cb_dubbel.png,0,,,,,,,,,,,,,,,,,,,,,,
,,,,,,55891,2023-09-25_12h09.54.832,vbt_B1_day2,2022.2.4,Win32,60.15761295,55891,,,,,,,,,,,,,,,,,,,,,,,,,,,down,0,10.4373,,0.675925926,-0.34629631,1,0,0,0.5701,0,72,72,184,1,aandelen,images/br_aandelen.png,images/cb_aandelen.png,0,,,,,,,,,,,,,,,,,,,,,,
,,,,,,55891,2023-09-25_12h09.54.832,vbt_B1_day2,2022.2.4,Win32,60.15761295,55891,,,,,,,,,,,,,,,,,,,,,,,,,,,down,0,7.2906,,0.675925926,-0.34629631,1,0,0,1.1699,0,73,73,80,1,kanjer,images/br_kanjer.png,images/cb_kanjer.png,0,,,,,,,,,,,,,,,,,,,,,,
,,,,,,55891,2023-09-25_12h09.54.832,vbt_B1_day2,2022.2.4,Win32,60.15761295,55891,,,,,,,,,,,,,,,,,,,,,,,,,,,down,0,8.7345,,0.675925926,-0.34629631,1,0,0,0.6199,0,74,74,172,1,weigeren,images/br_weigeren.png,images/cb_weigeren.png,0,,,,,,,,,,,,,,,,,,,,,,
,,,,,,55891,2023-09-25_12h09.54.832,vbt_B1_day2,2022.2.4,Win32,60.15761295,55891,,,,,,,,,,,,,,,,,,,,,,,,,,,down,0,6.517,,0.675925926,-0.34629631,1,0,0,3.8332,0,75,75,40,1,schep,images/br_schep.png,images/cb_schep.png,0,,,,,,,,,,,,,,,,,,,,,,
,,,,,,55891,2023-09-25_12h09.54.832,vbt_B1_day2,2022.2.4,Win32,60.15761295,55891,,,,,,,,,,,,,,,,,,,,,,,,,,,down,0,1.3658,,0.675925926,-0.34629631,1,0,0,0.5508,0,76,76,133,1,seizoen,images/br_seizoen.png,images/cb_seizoen.png,0,,,,,,,,,,,,,,,,,,,,,,
,,,,,,55891,2023-09-25_12h09.54.832,vbt_B1_day2,2022.2.4,Win32,60.15761295,55891,,,,,,,,,,,,,,,,,,,,,,,,,,,down,0,0.9005,,0.675925926,-0.34629631,1,0,0,0.9794,0,77,77,85,1,heilig,images/br_heilig.png,images/cb_heilig.png,0,,,,,,,,,,,,,,,,,,,,,,
,,,,,,55891,2023-09-25_12h09.54.832,vbt_B1_day2,2022.2.4,Win32,60.15761295,55891,,,,,,,,,,,,,,,,,,,,,,,,,,,down,0,4.4205,,0.675925926,-0.34629631,1,0,0,0.9,0,78,78,96,1,slagen,images/br_slagen.png,images/cb_slagen.png,1,slagen,,,,,,,,,,,,,,,,,,,,,
,,,,,,55891,2023-09-25_12h09.54.832,vbt_B1_day2,2022.2.4,Win32,60.15761295,55891,,,,,,,,,,,,,,,,,,,,,,,,,,,down,0,8.907,,0.675925926,-0.34629631,1,0,0,0.7701,0,79,79,98,1,kreeft,images/br_kreeft.png,images/cb_kreeft.png,1,kreeft,,,,,,,,,,,,,,,,,,,,,
,,,,,,55891,2023-09-25_12h09.54.832,vbt_B1_day2,2022.2.4,Win32,60.15761295,55891,,,,,,,,,,,,,,,,,,,,,,,,,,,down,0,0.6038,,0.675925926,-0.34629631,1,0,0,0.7165,0,80,80,51,1,samen,images/br_samen.png,images/cb_samen.png,0,,,,,,,,,,,,,,,,,,,,,,
,,,,,,55891,2023-09-25_12h09.54.832,vbt_B1_day2,2022.2.4,Win32,60.15761295,55891,,,,,,,,,,,,,,,,,,,,,,,,,,,down,0,2.0602,,0.675925926,-0.34629631,1,0,0,0.8665,0,81,81,27,1,dans,images/br_dans.png,images/cb_dans.png,0,,,,,,,,,,,,,,,,,,,,,,
,,,,,,55891,2023-09-25_12h09.54.832,vbt_B1_day2,2022.2.4,Win32,60.15761295,55891,,,,,,,,,,,,,,,,,,,,,,,,,,,down,0,3.5727,,0.675925926,-0.34629631,1,0,0,0.5331,0,82,82,38,1,baai,images/br_baai.png,images/cb_baai.png,0,,,,,,,,,,,,,,,,,,,,,,
,,,,,,55891,2023-09-25_12h09.54.832,vbt_B1_day2,2022.2.4,Win32,60.15761295,55891,,,,,,,,,,,,,,,,,,,,,,,,,,,down,0,14.9311,,0.675925926,-0.34629631,1,0,0,0.6662,0,83,83,145,1,invloed,images/br_invloed.png,images/cb_invloed.png,0,,,,,,,,,,,,,,,,,,,,,,
,,,,,,55891,2023-09-25_12h09.54.832,vbt_B1_day2,2022.2.4,Win32,60.15761295,55891,,,,,,,,,,,,,,,,,,,,,,,,,,,down,0,2.3666,,0.675925926,-0.34629631,1,0,0,0.5465,0,84,84,150,1,gegeven,images/br_gegeven.png,images/cb_gegeven.png,0,,,,,,,,,,,,,,,,,,,,,,
,,,,,,55891,2023-09-25_12h09.54.832,vbt_B1_day2,2022.2.4,Win32,60.15761295,55891,,,,,,,,,,,,,,,,,,,,,,,,,,,down,0,6.7177,,0.675925926,-0.34629631,1,0,0,1.3033,0,85,85,197,1,spanning,images/br_spanning.png,images/cb_spanning.png,0,,,,,,,,,,,,,,,,,,,,,,
,,,,,,55891,2023-09-25_12h09.54.832,vbt_B1_day2,2022.2.4,Win32,60.15761295,55891,,,,,,,,,,,,,,,,,,,,,,,,,,,down,0,13.1763,,0.675925926,-0.34629631,1,0,0,2.2531,0,86,86,152,1,afnemen,images/br_afnemen.png,images/cb_afnemen.png,0,,,,,,,,,,,,,,,,,,,,,,
,,,,,,55891,2023-09-25_12h09.54.832,vbt_B1_day2,2022.2.4,Win32,60.15761295,55891,,,,,,,,,,,,,,,,,,,,,,,,,,,down,0,8.0336,,0.675925926,-0.34629631,1,0,0,0.8669,0,87,87,100,1,geduld,images/br_geduld.png,images/cb_geduld.png,0,,,,,,,,,,,,,,,,,,,,,,
,,,,,,55891,2023-09-25_12h09.54.832,vbt_B1_day2,2022.2.4,Win32,60.15761295,55891,,,,,,,,,,,,,,,,,,,,,,,,,,,down,0,7.325,,0.675925926,-0.34629631,1,0,0,1.1031,0,88,88,149,1,redding,images/br_redding.png,images/cb_redding.png,0,,,,,,,,,,,,,,,,,,,,,,
,,,,,,55891,2023-09-25_12h09.54.832,vbt_B1_day2,2022.2.4,Win32,60.15761295,55891,,,,,,,,,,,,,,,,,,,,,,,,,,,down,0,4.9666,,0.675925926,-0.34629631,1,0,0,0.6001,0,89,89,128,1,prikken,images/br_prikken.png,images/cb_prikken.png,0,,,,,,,,,,,,,,,,,,,,,,
,,,,,,55891,2023-09-25_12h09.54.832,vbt_B1_day2,2022.2.4,Win32,60.15761295,55891,,,,,,,,,,,,,,,,,,,,,,,,,,,down,0,2.077,,0.675925926,-0.34629631,1,0,0,0.6999,0,90,90,106,1,zingen,images/br_zingen.png,images/cb_zingen.png,0,,,,,,,,,,,,,,,,,,,,,,
,,,,,,55891,2023-09-25_12h09.54.832,vbt_B1_day2,2022.2.4,Win32,60.15761295,55891,,,,,,,,,,,,,,,,,,,,,,,,,,,down,0,7.8113,,0.675925926,-0.34629631,1,0,0,0.6834,0,91,91,188,1,strekken,images/br_strekken.png,images/cb_strekken.png,0,,,,,,,,,,,,,,,,,,,,,,
,,,,,,55891,2023-09-25_12h09.54.832,vbt_B1_day2,2022.2.4,Win32,60.15761295,55891,,,,,,,,,,,,,,,,,,,,,,,,,,,down,0,4.9731,,0.675925926,-0.34629631,1,0,0,0.5667,0,92,92,23,1,zout,images/br_zout.png,images/cb_zout.png,0,,,,,,,,,,,,,,,,,,,,,,
,,,,,,55891,2023-09-25_12h09.54.832,vbt_B1_day2,2022.2.4,Win32,60.15761295,55891,,,,,,,,,,,,,,,,,,,,,,,,,,,down,0,3.2294,,0.675925926,-0.34629631,1,0,0,0.7966,0,93,93,19,1,geit,images/br_geit.png,images/cb_geit.png,1,geit,,,,,,,,,,,,,,,,,,,,,
,,,,,,55891,2023-09-25_12h09.54.832,vbt_B1_day2,2022.2.4,Win32,60.15761295,55891,,,,,,,,,,,,,,,,,,,,,,,,,,,down,0,11.3573,,0.675925926,-0.34629631,1,0,0,0.7333,0,94,94,22,1,stof,images/br_stof.png,images/cb_stof.png,0,,,,,,,,,,,,,,,,,,,,,,
,,,,,,55891,2023-09-25_12h09.54.832,vbt_B1_day2,2022.2.4,Win32,60.15761295,55891,,,,,,,,,,,,,,,,,,,,,,,,,,,down,0,4.4394,,0.675925926,-0.34629631,1,0,0,0.7197,0,95,95,26,1,leuk,images/br_leuk.png,images/cb_leuk.png,0,,,,,,,,,,,,,,,,,,,,,,
,,,,,,55891,2023-09-25_12h09.54.832,vbt_B1_day2,2022.2.4,Win32,60.15761295,55891,,,,,,,,,,,,,,,,,,,,,,,,,,,down,0,5.4228,,0.675925926,-0.34629631,1,0,0,0.6167,0,96,96,134,1,geliefd,images/br_geliefd.png,images/cb_geliefd.png,0,,,,,,,,,,,,,,,,,,,,,,
,,,,,,55891,2023-09-25_12h09.54.832,vbt_B1_day2,2022.2.4,Win32,60.15761295,55891,,,,,,,,,,,,,,,,,,,,,,,,,,,down,0,6.3998,,0.675925926,-0.34629631,1,0,0,0.7502,0,97,97,161,1,attentie,images/br_attentie.png,images/cb_attentie.png,0,,,,,,,,,,,,,,,,,,,,,,
,,,,,,55891,2023-09-25_12h09.54.832,vbt_B1_day2,2022.2.4,Win32,60.15761295,55891,,,,,,,,,,,,,,,,,,,,,,,,,,,down,0,1.7764,,0.675925926,-0.34629631,1,0,0,0.5695,0,98,98,39,1,laag,images/br_laag.png,images/cb_laag.png,0,,,,,,,,,,,,,,,,,,,,,,
,,,,,,55891,2023-09-25_12h09.54.832,vbt_B1_day2,2022.2.4,Win32,60.15761295,55891,,,,,,,,,,,,,,,,,,,,,,,,,,,down,0,7.2674,,0.675925926,-0.34629631,1,0,0,0.6466,0,99,99,48,1,steel,images/br_steel.png,images/cb_steel.png,0,,,,,,,,,,,,,,,,,,,,,,
,,,,,,55891,2023-09-25_12h09.54.832,vbt_B1_day2,2022.2.4,Win32,60.15761295,55891,,,,,,,,,,,,,,,,,,,,,,,,,,,down,0,3.5894,,0.675925926,-0.34629631,1,0,0,0.5865,0,100,100,52,1,wagon,images/br_wagon.png,images/cb_wagon.png,0,,,,,,,,,,,,,,,,,,,,,,
,,,,,,55891,2023-09-25_12h09.54.832,vbt_B1_day2,2022.2.4,Win32,60.15761295,55891,,,,,,,,,,,,,,,,,,,,,,,,,,,down,0,6.1166,,0.675925926,-0.34629631,1,0,0,0.4675,0,101,101,140,1,blijven,images/br_blijven.png,images/cb_blijven.png,0,,,,,,,,,,,,,,,,,,,,,,
,,,,,,55891,2023-09-25_12h09.54.832,vbt_B1_day2,2022.2.4,Win32,60.15761295,55891,,,,,,,,,,,,,,,,,,,,,,,,,,,down,0,4.75,,0.675925926,-0.34629631,1,0,0,0.6007,0,102,102,120,1,klimmen,images/br_klimmen.png,images/cb_klimmen.png,0,,,,,,,,,,,,,,,,,,,,,,
,,,,,,55891,2023-09-25_12h09.54.832,vbt_B1_day2,2022.2.4,Win32,60.15761295,55891,,,,,,,,,,,,,,,,,,,,,,,,,,,down,0,8.1598,,0.675925926,-0.34629631,1,0,0,1.033,0,103,103,156,1,rechten,images/br_rechten.png,images/cb_rechten.png,0,,,,,,,,,,,,,,,,,,,,,,
,,,,,,55891,2023-09-25_12h09.54.832,vbt_B1_day2,2022.2.4,Win32,60.15761295,55891,,,,,,,,,,,,,,,,,,,,,,,,,,,down,0,14.1031,,0.675925926,-0.34629631,1,0,0,1.3028,0,104,104,199,1,beseffen,images/br_beseffen.png,images/cb_beseffen.png,0,,,,,,,,,,,,,,,,,,,,,,
,,,,,,55891,2023-09-25_12h09.54.832,vbt_B1_day2,2022.2.4,Win32,60.15761295,55891,,,,,,,,,,,,,,,,,,,,,,,,,,,down,0,0.5058,,0.700000057,-0.349074116,1,0,0,0.5869,0,105,105,143,1,hechten,images/br_hechten.png,images/cb_hechten.png,0,,,,,,,,,,,,,,,,,,,,,,
,,,,,,55891,2023-09-25_12h09.54.832,vbt_B1_day2,2022.2.4,Win32,60.15761295,55891,,,,,,,,,,,,,,,,,,,,,,,,,,,down,0,2.4016,,0.700000057,-0.349074116,1,0,0,0.5498,0,106,106,132,1,grappen,images/br_grappen.png,images/cb_grappen.png,0,,,,,,,,,,,,,,,,,,,,,,
,,,,,,55891,2023-09-25_12h09.54.832,vbt_B1_day2,2022.2.4,Win32,60.15761295,55891,,,,,,,,,,,,,,,,,,,,,,,,,,,down,0,1.9636,,0.700925898,-0.354629658,1,0,0,1.3504,0,107,107,79,1,nodig,images/br_nodig.png,images/cb_nodig.png,0,,,,,,,,,,,,,,,,,,,,,,
,,,,,,55891,2023-09-25_12h09.54.832,vbt_B1_day2,2022.2.4,Win32,60.15761295,55891,,,,,,,,,,,,,,,,,,,,,,,,,,,down,0,3.6337,,0.700925898,-0.354629658,1,0,0,0.5662,0,108,108,159,1,sufferd,images/br_sufferd.png,images/cb_sufferd.png,0,,,,,,,,,,,,,,,,,,,,,,
,,,,,,55891,2023-09-25_12h09.54.832,vbt_B1_day2,2022.2.4,Win32,60.15761295,55891,,,,,,,,,,,,,,,,,,,,,,,,,,,down,0,6.9496,,0.700925898,-0.354629658,1,0,0,0.6171,0,109,109,119,1,liefje,images/br_liefje.png,images/cb_liefje.png,0,,,,,,,,,,,,,,,,,,,,,,
,,,,,,55891,2023-09-25_12h09.54.832,vbt_B1_day2,2022.2.4,Win32,60.15761295,55891,,,,,,,,,,,,,,,,,,,,,,,,,,,down,0,5.6731,,0.700925898,-0.354629658,1,0,0,0.8166,0,110,110,117,1,kennis,images/br_kennis.png,images/cb_kennis.png,0,,,,,,,,,,,,,,,,,,,,,,
,,,,,,55891,2023-09-25_12h09.54.832,vbt_B1_day2,2022.2.4,Win32,60.15761295,55891,,,,,,,,,,,,,,,,,,,,,,,,,,,down,0,4.0758,,0.700925898,-0.354629658,1,0,0,0.5689,0,111,111,125,1,aanzien,images/br_aanzien.png,images/cb_aanzien.png,0,,,,,,,,,,,,,,,,,,,,,,
,,,,,,55891,2023-09-25_12h09.54.832,vbt_B1_day2,2022.2.4,Win32,60.15761295,55891,,,,,,,,,,,,,,,,,,,,,,,,,,,down,0,3.0549,,0.700925898,-0.354629658,1,0,0,0.5698,0,112,112,16,1,ziek,images/br_ziek.png,images/cb_ziek.png,1,ziek,,,,,,,,,,,,,,,,,,,,,
,,,,,,55891,2023-09-25_12h09.54.832,vbt_B1_day2,2022.2.4,Win32,60.15761295,55891,,,,,,,,,,,,,,,,,,,,,,,,,,,down,0,2.1791,,0.700925898,-0.354629658,1,0,0,0.5506,0,113,113,43,1,klauw,images/br_klauw.png,images/cb_klauw.png,0,,,,,,,,,,,,,,,,,,,,,,
,,,,,,55891,2023-09-25_12h09.54.832,vbt_B1_day2,2022.2.4,Win32,60.15761295,55891,,,,,,,,,,,,,,,,,,,,,,,,,,,down,0,5.8297,,0.700925898,-0.354629658,1,0,0,0.5312,0,114,114,189,1,aanraden,images/br_aanraden.png,images/cb_aanraden.png,0,,,,,,,,,,,,,,,,,,,,,,
,,,,,,55891,2023-09-25_12h09.54.832,vbt_B1_day2,2022.2.4,Win32,60.15761295,55891,,,,,,,,,,,,,,,,,,,,,,,,,,,down,0,6.9176,,0.700925898,-0.354629658,1,0,0,0.6122,0,115,115,90,1,geluid,images/br_geluid.png,images/cb_geluid.png,0,,,,,,,,,,,,,,,,,,,,,,
,,,,,,55891,2023-09-25_12h09.54.832,vbt_B1_day2,2022.2.4,Win32,60.15761295,55891,,,,,,,,,,,,,,,,,,,,,,,,,,,down,0,3.6007,,0.700925898,-0.354629658,1,0,0,0.7868,0,116,116,182,1,bijkomen,images/br_bijkomen.png,images/cb_bijkomen.png,0,,,,,,,,,,,,,,,,,,,,,,
,,,,,,55891,2023-09-25_12h09.54.832,vbt_B1_day2,2022.2.4,Win32,60.15761295,55891,,,,,,,,,,,,,,,,,,,,,,,,,,,down,0,6.1956,,0.700925898,-0.354629658,1,0,0,0.6206,0,117,117,177,1,maaltijd,images/br_maaltijd.png,images/cb_maaltijd.png,1,maaltijd,,,,,,,,,,,,,,,,,,,,,
,,,,,,55891,2023-09-25_12h09.54.832,vbt_B1_day2,2022.2.4,Win32,60.15761295,55891,,,,,,,,,,,,,,,,,,,,,,,,,,,down,0,0.7292,,0.700925898,-0.354629658,1,0,0,0.7002,0,118,118,24,1,jurk,images/br_jurk.png,images/cb_jurk.png,0,,,,,,,,,,,,,,,,,,,,,,
,,,,,,55891,2023-09-25_12h09.54.832,vbt_B1_day2,2022.2.4,Win32,60.15761295,55891,,,,,,,,,,,,,,,,,,,,,,,,,,,down,0,2.1706,,0.700925898,-0.354629658,1,0,0,1.2665,0,119,119,170,1,schatten,images/br_schatten.png,images/cb_schatten.png,0,,,,,,,,,,,,,,,,,,,,,,
,,,,,,55891,2023-09-25_12h09.54.832,vbt_B1_day2,2022.2.4,Win32,60.15761295,55891,,,,,,,,,,,,,,,,,,,,,,,,,,,down,0,1.3707,,0.700925898,-0.354629658,1,0,0,0.7361,0,120,120,9,1,hier,images/br_hier.png,images/cb_hier.png,0,,,,,,,,,,,,,,,,,,,,,,
,,,,,,55891,2023-09-25_12h09.54.832,vbt_B1_day2,2022.2.4,Win32,60.15761295,55891,,,,,,,,,,,,,,,,,,,,,,,,,,,down,0,5.7214,,0.700925898,-0.354629658,1,0,0,1.9833,0,121,121,195,1,middelen,images/br_middelen.png,images/cb_middelen.png,0,,,,,,,,,,,,,,,,,,,,,,
,,,,,,55891,2023-09-25_12h09.54.832,vbt_B1_day2,2022.2.4,Win32,60.15761295,55891,,,,,,,,,,,,,,,,,,,,,,,,,,,down,0,3.2581,,0.700925898,-0.354629658,1,0,0,0.8865,0,122,122,67,1,zwart,images/br_zwart.png,images/cb_zwart.png,0,,,,,,,,,,,,,,,,,,,,,,
,,,,,,55891,2023-09-25_12h09.54.832,vbt_B1_day2,2022.2.4,Win32,60.15761295,55891,,,,,,,,,,,,,,,,,,,,,,,,,,,down,0,9.9785,,0.700925898,-0.354629658,1,0,0,1.2505,0,123,123,164,1,anarchie,images/br_anarchie.png,images/cb_anarchie.png,0,,,,,,,,,,,,,,,,,,,,,,
,,,,,,55891,2023-09-25_12h09.54.832,vbt_B1_day2,2022.2.4,Win32,60.15761295,55891,,,,,,,,,,,,,,,,,,,,,,,,,,,down,0,3.6657,,0.704629686,-0.360185199,1,0,0,1.2668,0,124,124,89,1,slapen,images/br_slapen.png,images/cb_slapen.png,0,,,,,,,,,,,,,,,,,,,,,,
,,,,,,55891,2023-09-25_12h09.54.832,vbt_B1_day2,2022.2.4,Win32,60.15761295,55891,,,,,,,,,,,,,,,,,,,,,,,,,,,down,0,3.1921,,0.704629686,-0.360185199,1,0,0,0.7197,0,125,125,11,1,mode,images/br_mode.png,images/cb_mode.png,0,,,,,,,,,,,,,,,,,,,,,,
,,,,,,55891,2023-09-25_12h09.54.832,vbt_B1_day2,2022.2.4,Win32,60.15761295,55891,,,,,,,,,,,,,,,,,,,,,,,,,,,down,0,2.4835,,0.714814787,-0.365740741,1,0,0,0.6491,0,126,126,171,1,aarzelen,images/br_aarzelen.png,images/cb_aarzelen.png,0,,,,,,,,,,,,,,,,,,,,,,
,,,,,,55891,2023-09-25_12h09.54.832,vbt_B1_day2,2022.2.4,Win32,60.15761295,55891,,,,,,,,,,,,,,,,,,,,,,,,,,,down,0,10.6602,,0.714814787,-0.365740741,1,0,0,0.87,0,127,127,116,1,besmet,images/br_besmet.png,images/cb_besmet.png,0,,,,,,,,,,,,,,,,,,,,,,
,,,,,,55891,2023-09-25_12h09.54.832,vbt_B1_day2,2022.2.4,Win32,60.15761295,55891,,,,,,,,,,,,,,,,,,,,,,,,,,,down,0,1.75,,0.714814787,-0.365740741,1,0,0,0.6132,0,128,128,15,1,soda,images/br_soda.png,images/cb_soda.png,0,,,,,,,,,,,,,,,,,,,,,,
,,,,,,55891,2023-09-25_12h09.54.832,vbt_B1_day2,2022.2.4,Win32,60.15761295,55891,,,,,,,,,,,,,,,,,,,,,,,,,,,down,0,0.434,,0.714814787,-0.365740741,1,0,0,0.8134,0,129,129,10,1,leek,images/br_leek.png,images/cb_leek.png,0,,,,,,,,,,,,,,,,,,,,,,
,,,,,,55891,2023-09-25_12h09.54.832,vbt_B1_day2,2022.2.4,Win32,60.15761295,55891,,,,,,,,,,,,,,,,,,,,,,,,,,,down,0,10.9691,,0.714814787,-0.365740741,1,0,0,2.703,0,130,130,91,1,gezond,images/br_gezond.png,images/cb_gezond.png,0,,,,,,,,,,,,,,,,,,,,,,
,,,,,,55891,2023-09-25_12h09.54.832,vbt_B1_day2,2022.2.4,Win32,60.15761295,55891,,,,,,,,,,,,,,,,,,,,,,,,,,,down,0,7.1237,,0.714814787,-0.365740741,1,0,0,0.6366,0,131,131,83,1,mening,images/br_mening.png,images/cb_mening.png,0,,,,,,,,,,,,,,,,,,,,,,
,,,,,,55891,2023-09-25_12h09.54.832,vbt_B1_day2,2022.2.4,Win32,60.15761295,55891,,,,,,,,,,,,,,,,,,,,,,,,,,,down,0,0.7253,,0.714814787,-0.365740741,1,0,0,0.4834,0,132,132,29,1,baas,images/br_baas.png,images/cb_baas.png,0,,,,,,,,,,,,,,,,,,,,,,
,,,,,,55891,2023-09-25_12h09.54.832,vbt_B1_day2,2022.2.4,Win32,60.15761295,55891,,,,,,,,,,,,,,,,,,,,,,,,,,,down,0,6.6581,,0.713888945,-0.367592635,1,0,0,0.5668,0,133,133,115,1,kleren,images/br_kleren.png,images/cb_kleren.png,0,,,,,,,,,,,,,,,,,,,,,,
,,,,,,55891,2023-09-25_12h09.54.832,vbt_B1_day2,2022.2.4,Win32,60.15761295,55891,,,,,,,,,,,,,,,,,,,,,,,,,,,down,0,1.0866,,0.713888945,-0.367592635,1,0,0,0.5701,0,134,134,0,1,slak,images/br_slak.png,images/cb_slak.png,0,,,,,,,,,,,,,,,,,,,,,,
,,,,,,55891,2023-09-25_12h09.54.832,vbt_B1_day2,2022.2.4,Win32,60.15761295,55891,,,,,,,,,,,,,,,,,,,,,,,,,,,down,0,9.6976,,0.713888945,-0.367592635,1,0,0,1.3199,0,135,135,194,1,driemaal,images/br_driemaal.png,images/cb_driemaal.png,0,,,,,,,,,,,,,,,,,,,,,,
,,,,,,55891,2023-09-25_12h09.54.832,vbt_B1_day2,2022.2.4,Win32,60.15761295,55891,,,,,,,,,,,,,,,,,,,,,,,,,,,down,0,5.3604,,0.713888945,-0.367592635,1,0,0,0.7167,0,136,136,76,1,afval,images/br_afval.png,images/cb_afval.png,0,,,,,,,,,,,,,,,,,,,,,,
,,,,,,55891,2023-09-25_12h09.54.832,vbt_B1_day2,2022.2.4,Win32,60.15761295,55891,,,,,,,,,,,,,,,,,,,,,,,,,,,down,0,5.3496,,0.713888945,-0.367592635,1,0,0,0.7336,0,137,137,124,1,bloeien,images/br_bloeien.png,images/cb_bloeien.png,0,,,,,,,,,,,,,,,,,,,,,,
,,,,,,55891,2023-09-25_12h09.54.832,vbt_B1_day2,2022.2.4,Win32,60.15761295,55891,,,,,,,,,,,,,,,,,,,,,,,,,,,down,0,5.3132,,0.713888945,-0.367592635,1,0,0,1.0131,0,138,138,173,1,apparaat,images/br_apparaat.png,images/cb_apparaat.png,0,,,,,,,,,,,,,,,,,,,,,,
,,,,,,55891,2023-09-25_12h09.54.832,vbt_B1_day2,2022.2.4,Win32,60.15761295,55891,,,,,,,,,,,,,,,,,,,,,,,,,,,down,0,2.4516,,0.713888945,-0.367592635,1,0,0,0.7333,0,139,139,12,1,kust,images/br_kust.png,images/cb_kust.png,0,,,,,,,,,,,,,,,,,,,,,,
,,,,,,55891,2023-09-25_12h09.54.832,vbt_B1_day2,2022.2.4,Win32,60.15761295,55891,,,,,,,,,,,,,,,,,,,,,,,,,,,down,0,4.5931,,0.713888945,-0.367592635,1,0,0,0.7331,0,140,140,68,1,schat,images/br_schat.png,images/cb_schat.png,0,,,,,,,,,,,,,,,,,,,,,,
,,,,,,55891,2023-09-25_12h09.54.832,vbt_B1_day2,2022.2.4,Win32,60.15761295,55891,,,,,,,,,,,,,,,,,,,,,,,,,,,down,0,2.343,,0.713888945,-0.367592635,1,0,0,1.02,0,141,141,60,1,jasje,images/br_jasje.png,images/cb_jasje.png,0,,,,,,,,,,,,,,,,,,,,,,
,,,,,,55891,2023-09-25_12h09.54.832,vbt_B1_day2,2022.2.4,Win32,60.15761295,55891,,,,,,,,,,,,,,,,,,,,,,,,,,,down,0,8.703,,0.713888945,-0.367592635,1,0,0,0.6665,0,142,142,108,1,excuus,images/br_excuus.png,images/cb_excuus.png,0,,,,,,,,,,,,,,,,,,,,,,
,,,,,,55891,2023-09-25_12h09.54.832,vbt_B1_day2,2022.2.4,Win32,60.15761295,55891,,,,,,,,,,,,,,,,,,,,,,,,,,,down,0,1.2753,,0.713888945,-0.367592635,1,0,0,0.8536,0,143,143,103,1,joggen,images/br_joggen.png,images/cb_joggen.png,0,,,,,,,,,,,,,,,,,,,,,,
,,,,,,55891,2023-09-25_12h09.54.832,vbt_B1_day2,2022.2.4,Win32,60.15761295,55891,,,,,,,,,,,,,,,,,,,,,,,,,,,down,0,2.1445,,0.713888945,-0.367592635,1,0,0,0.6811,0,144,144,73,1,volop,images/br_volop.png,images/cb_volop.png,0,,,,,,,,,,,,,,,,,,,,,,
,,,,,,55891,2023-09-25_12h09.54.832,vbt_B1_day2,2022.2.4,Win32,60.15761295,55891,,,,,,,,,,,,,,,,,,,,,,,,,,,down,0,11.4173,,0.713888945,-0.367592635,1,0,0,0.8669,0,145,145,99,1,koffie,images/br_koffie.png,images/cb_koffie.png,1,koffie,,,,,,,,,,,,,,,,,,,,,
,,,,,,55891,2023-09-25_12h09.54.832,vbt_B1_day2,2022.2.4,Win32,60.15761295,55891,,,,,,,,,,,,,,,,,,,,,,,,,,,down,0,3.1676,,0.713888945,-0.367592635,1,0,0,0.75,0,146,146,59,1,kring,images/br_kring.png,images/cb_kring.png,1,kring,,,,,,,,,,,,,,,,,,,,,
,,,,,,55891,2023-09-25_12h09.54.832,vbt_B1_day2,2022.2.4,Win32,60.15761295,55891,,,,,,,,,,,,,,,,,,,,,,,,,,,down,0,7.3969,,0.717592593,-0.402777778,1,0,0,0.8634,0,147,147,169,1,oprotten,images/br_oprotten.png,images/cb_oprotten.png,0,,,,,,,,,,,,,,,,,,,,,,
,,,,,,55891,2023-09-25_12h09.54.832,vbt_B1_day2,2022.2.4,Win32,60.15761295,55891,,,,,,,,,,,,,,,,,,,,,,,,,,,down,0,4.2893,,0.717592593,-0.402777778,1,0,0,0.7831,0,148,148,87,1,toeval,images/br_toeval.png,images/cb_toeval.png,0,,,,,,,,,,,,,,,,,,,,,,
,,,,,,55891,2023-09-25_12h09.54.832,vbt_B1_day2,2022.2.4,Win32,60.15761295,55891,,,,,,,,,,,,,,,,,,,,,,,,,,,down,0,2.6242,,0.717592593,-0.402777778,1,0,0,1.6832,0,149,149,44,1,flits,images/br_flits.png,images/cb_flits.png,0,,,,,,,,,,,,,,,,,,,,,,
,,,,,,55891,2023-09-25_12h09.54.832,vbt_B1_day2,2022.2.4,Win32,60.15761295,55891,,,,,,,,,,,,,,,,,,,,,,,,,,,down,0,6.711,,0.717592593,-0.402777778,1,0,0,0.937,0,150,150,137,1,trekker,images/br_trekker.png,images/cb_trekker.png,1,trekker,,,,,,,,,,,,,,,,,,,,,
,,,,,,55891,2023-09-25_12h09.54.832,vbt_B1_day2,2022.2.4,Win32,60.15761295,55891,,,,,,,,,,,,,,,,,,,,,,,,,,,down,0,2.9533,,0.717592593,-0.402777778,1,0,0,0.7695,0,151,151,187,1,opkijken,images/br_opkijken.png,images/cb_opkijken.png,0,,,,,,,,,,,,,,,,,,,,,,
,,,,,,55891,2023-09-25_12h09.54.832,vbt_B1_day2,2022.2.4,Win32,60.15761295,55891,,,,,,,,,,,,,,,,,,,,,,,,,,,down,0,0.8177,,0.717592593,-0.402777778,1,0,0,0.7637,0,152,152,35,1,lust,images/br_lust.png,images/cb_lust.png,0,,,,,,,,,,,,,,,,,,,,,,
,,,,,,55891,2023-09-25_12h09.54.832,vbt_B1_day2,2022.2.4,Win32,60.15761295,55891,,,,,,,,,,,,,,,,,,,,,,,,,,,down,0,5.1912,,0.717592593,-0.402777778,1,0,0,0.5166,0,153,153,112,1,lukken,images/br_lukken.png,images/cb_lukken.png,0,,,,,,,,,,,,,,,,,,,,,,
,,,,,,55891,2023-09-25_12h09.54.832,vbt_B1_day2,2022.2.4,Win32,60.15761295,55891,,,,,,,,,,,,,,,,,,,,,,,,,,,down,0,5.2333,,0.718518575,-0.40370369,1,0,0,0.6166,0,154,154,157,1,uitlaat,images/br_uitlaat.png,images/cb_uitlaat.png,0,,,,,,,,,,,,,,,,,,,,,,
,,,,,,55891,2023-09-25_12h09.54.832,vbt_B1_day2,2022.2.4,Win32,60.15761295,55891,,,,,,,,,,,,,,,,,,,,,,,,,,,down,0,4.9696,,0.723148205,-0.402777778,1,0,0,0.8166,0,155,155,111,1,ticket,images/br_ticket.png,images/cb_ticket.png,0,,,,,,,,,,,,,,,,,,,,,,
,,,,,,55891,2023-09-25_12h09.54.832,vbt_B1_day2,2022.2.4,Win32,60.15761295,55891,,,,,,,,,,,,,,,,,,,,,,,,,,,down,0,6.7809,,0.723148205,-0.402777778,1,0,0,0.796,0,156,156,167,1,eenhoorn,images/br_eenhoorn.png,images/cb_eenhoorn.png,0,,,,,,,,,,,,,,,,,,,,,,
,,,,,,55891,2023-09-25_12h09.54.832,vbt_B1_day2,2022.2.4,Win32,60.15761295,55891,,,,,,,,,,,,,,,,,,,,,,,,,,,down,0,1.4441,,0.723148205,-0.402777778,1,0,0,0.6525,0,157,157,31,1,poes,images/br_poes.png,images/cb_poes.png,0,,,,,,,,,,,,,,,,,,,,,,
,,,,,,55891,2023-09-25_12h09.54.832,vbt_B1_day2,2022.2.4,Win32,60.15761295,55891,,,,,,,,,,,,,,,,,,,,,,,,,,,down,0,2.4447,,0.723148205,-0.402777778,1,0,0,0.6027,0,158,158,102,1,legaal,images/br_legaal.png,images/cb_legaal.png,0,,,,,,,,,,,,,,,,,,,,,,
,,,,,,55891,2023-09-25_12h09.54.832,vbt_B1_day2,2022.2.4,Win32,60.15761295,55891,,,,,,,,,,,,,,,,,,,,,,,,,,,down,0,8.2498,,0.723148205,-0.402777778,1,0,0,1.3004,0,159,159,147,1,komisch,images/br_komisch.png,images/cb_komisch.png,0,,,,,,,,,,,,,,,,,,,,,,
,,,,,,55891,2023-09-25_12h09.54.832,vbt_B1_day2,2022.2.4,Win32,60.15761295,55891,,,,,,,,,,,,,,,,,,,,,,,,,,,down,0,2.3009,,0.723148205,-0.402777778,1,0,0,0.6002,0,160,160,186,1,voorraad,images/br_voorraad.png,images/cb_voorraad.png,0,,,,,,,,,,,,,,,,,,,,,,
,,,,,,55891,2023-09-25_12h09.54.832,vbt_B1_day2,2022.2.4,Win32,60.15761295,55891,,,,,,,,,,,,,,,,,,,,,,,,,,,down,0,2.7142,,0.723148205,-0.402777778,1,0,0,1.6138,0,161,161,57,1,steek,images/br_steek.png,images/cb_steek.png,1,steek,,,,,,,,,,,,,,,,,,,,,
,,,,,,55891,2023-09-25_12h09.54.832,vbt_B1_day2,2022.2.4,Win32,60.15761295,55891,,,,,,,,,,,,,,,,,,,,,,,,,,,down,0,2.6865,,0.723148205,-0.402777778,1,0,0,0.5833,0,162,162,196,1,nakijken,images/br_nakijken.png,images/cb_nakijken.png,0,,,,,,,,,,,,,,,,,,,,,,
,,,,,,55891,2023-09-25_12h09.54.832,vbt_B1_day2,2022.2.4,Win32,60.15761295,55891,,,,,,,,,,,,,,,,,,,,,,,,,,,down,0,2.9009,,0.723148205,-0.402777778,1,0,0,0.5496,0,163,163,56,1,traag,images/br_traag.png,images/cb_traag.png,1,traag,,,,,,,,,,,,,,,,,,,,,
,,,,,,55891,2023-09-25_12h09.54.832,vbt_B1_day2,2022.2.4,Win32,60.15761295,55891,,,,,,,,,,,,,,,,,,,,,,,,,,,down,0,5.2006,,0.723148205,-0.402777778,1,0,0,0.4705,0,164,164,47,1,kabel,images/br_kabel.png,images/cb_kabel.png,0,,,,,,,,,,,,,,,,,,,,,,
,,,,,,55891,2023-09-25_12h09.54.832,vbt_B1_day2,2022.2.4,Win32,60.15761295,55891,,,,,,,,,,,,,,,,,,,,,,,,,,,down,0,0.9946,,0.723148205,-0.402777778,1,0,0,0.87,0,165,165,46,1,jagen,images/br_jagen.png,images/cb_jagen.png,0,,,,,,,,,,,,,,,,,,,,,,
,,,,,,55891,2023-09-25_12h09.54.832,vbt_B1_day2,2022.2.4,Win32,60.15761295,55891,,,,,,,,,,,,,,,,,,,,,,,,,,,down,0,6.6492,,0.723148205,-0.402777778,1,0,0,0.6672,0,166,166,55,1,praat,images/br_praat.png,images/cb_praat.png,0,,,,,,,,,,,,,,,,,,,,,,
,,,,,,55891,2023-09-25_12h09.54.832,vbt_B1_day2,2022.2.4,Win32,60.15761295,55891,,,,,,,,,,,,,,,,,,,,,,,,,,,down,0,5.7305,,0.723148205,-0.402777778,1,0,0,1.0499,0,167,167,118,1,vinger,images/br_vinger.png,images/cb_vinger.png,0,,,,,,,,,,,,,,,,,,,,,,
,,,,,,55891,2023-09-25_12h09.54.832,vbt_B1_day2,2022.2.4,Win32,60.15761295,55891,,,,,,,,,,,,,,,,,,,,,,,,,,,down,0,4.0227,,0.723148205,-0.402777778,1,0,0,1.2034,0,168,168,2,1,jaar,images/br_jaar.png,images/cb_jaar.png,0,,,,,,,,,,,,,,,,,,,,,,
,,,,,,55891,2023-09-25_12h09.54.832,vbt_B1_day2,2022.2.4,Win32,60.15761295,55891,,,,,,,,,,,,,,,,,,,,,,,,,,,down,0,4.6472,,0.723148205,-0.402777778,1,0,0,0.6172,0,169,169,148,1,smullen,images/br_smullen.png,images/cb_smullen.png,0,,,,,,,,,,,,,,,,,,,,,,
,,,,,,55891,2023-09-25_12h09.54.832,vbt_B1_day2,2022.2.4,Win32,60.15761295,55891,,,,,,,,,,,,,,,,,,,,,,,,,,,down,0,4.5997,,0.723148205,-0.402777778,1,0,0,0.717,0,170,170,144,1,eetlust,images/br_eetlust.png,images/cb_eetlust.png,0,,,,,,,,,,,,,,,,,,,,,,
,,,,,,55891,2023-09-25_12h09.54.832,vbt_B1_day2,2022.2.4,Win32,60.15761295,55891,,,,,,,,,,,,,,,,,,,,,,,,,,,down,0,5.4491,,0.723148205,-0.402777778,1,0,0,0.7665,0,171,171,110,1,zuster,images/br_zuster.png,images/cb_zuster.png,0,,,,,,,,,,,,,,,,,,,,,,
,,,,,,55891,2023-09-25_12h09.54.832,vbt_B1_day2,2022.2.4,Win32,60.15761295,55891,,,,,,,,,,,,,,,,,,,,,,,,,,,down,0,1.7004,,0.723148205,-0.402777778,1,0,0,0.6629,0,172,172,151,1,aanzoek,images/br_aanzoek.png,images/cb_aanzoek.png,0,,,,,,,,,,,,,,,,,,,,,,
,,,,,,55891,2023-09-25_12h09.54.832,vbt_B1_day2,2022.2.4,Win32,60.15761295,55891,,,,,,,,,,,,,,,,,,,,,,,,,,,down,0,4.6569,,0.723148205,-0.402777778,1,0,0,0.4369,0,173,173,41,1,maken,images/br_maken.png,images/cb_maken.png,0,,,,,,,,,,,,,,,,,,,,,,
,,,,,,55891,2023-09-25_12h09.54.832,vbt_B1_day2,2022.2.4,Win32,60.15761295,55891,,,,,,,,,,,,,,,,,,,,,,,,,,,down,0,11.05,,0.723148205,-0.402777778,1,0,0,0.6136,0,174,174,21,1,mist,images/br_mist.png,images/cb_mist.png,0,,,,,,,,,,,,,,,,,,,,,,
,,,,,,55891,2023-09-25_12h09.54.832,vbt_B1_day2,2022.2.4,Win32,60.15761295,55891,,,,,,,,,,,,,,,,,,,,,,,,,,,down,0,2.5092,,0.723148205,-0.402777778,1,0,0,0.6038,0,175,175,62,1,knaap,images/br_knaap.png,images/cb_knaap.png,0,,,,,,,,,,,,,,,,,,,,,,
,,,,,,55891,2023-09-25_12h09.54.832,vbt_B1_day2,2022.2.4,Win32,60.15761295,55891,,,,,,,,,,,,,,,,,,,,,,,,,,,down,0,3.799,,0.723148205,-0.402777778,1,0,0,0.8331,0,176,176,166,1,strikken,images/br_strikken.png,images/cb_strikken.png,0,,,,,,,,,,,,,,,,,,,,,,
,,,,,,55891,2023-09-25_12h09.54.832,vbt_B1_day2,2022.2.4,Win32,60.15761295,55891,,,,,,,,,,,,,,,,,,,,,,,,,,,down,0,0.7313,,0.723148205,-0.402777778,1,0,0,0.5162,0,177,177,1,1,zaal,images/br_zaal.png,images/cb_zaal.png,0,,,,,,,,,,,,,,,,,,,,,,
,,,,,,55891,2023-09-25_12h09.54.832,vbt_B1_day2,2022.2.4,Win32,60.15761295,55891,,,,,,,,,,,,,,,,,,,,,,,,,,,down,0,6.9664,,0.723148205,-0.402777778,1,0,0,1.1002,0,178,178,92,1,geheim,images/br_geheim.png,images/cb_geheim.png,0,,,,,,,,,,,,,,,,,,,,,,
,,,,,,55891,2023-09-25_12h09.54.832,vbt_B1_day2,2022.2.4,Win32,60.15761295,55891,,,,,,,,,,,,,,,,,,,,,,,,,,,down,0,5.0778,,0.723148205,-0.402777778,1,0,0,0.8366,0,179,179,127,1,doodmoe,images/br_doodmoe.png,images/cb_doodmoe.png,0,,,,,,,,,,,,,,,,,,,,,,
,,,,,,55891,2023-09-25_12h09.54.832,vbt_B1_day2,2022.2.4,Win32,60.15761295,55891,,,,,,,,,,,,,,,,,,,,,,,,,,,down,0,3.7833,,0.723148205,-0.402777778,1,0,0,0.65,0,180,180,34,1,vorm,images/br_vorm.png,images/cb_vorm.png,0,,,,,,,,,,,,,,,,,,,,,,
,,,,,,55891,2023-09-25_12h09.54.832,vbt_B1_day2,2022.2.4,Win32,60.15761295,55891,,,,,,,,,,,,,,,,,,,,,,,,,,,down,0,15.8495,,0.723148205,-0.402777778,1,0,0,0.9634,0,181,181,168,1,bisschop,images/br_bisschop.png,images/cb_bisschop.png,0,,,,,,,,,,,,,,,,,,,,,,
,,,,,,55891,2023-09-25_12h09.54.832,vbt_B1_day2,2022.2.4,Win32,60.15761295,55891,,,,,,,,,,,,,,,,,,,,,,,,,,,down,0,0.8568,,0.723148205,-0.402777778,1,0,0,0.7532,0,182,182,32,1,palm,images/br_palm.png,images/cb_palm.png,0,,,,,,,,,,,,,,,,,,,,,,
,,,,,,55891,2023-09-25_12h09.54.832,vbt_B1_day2,2022.2.4,Win32,60.15761295,55891,,,,,,,,,,,,,,,,,,,,,,,,,,,down,0,1.1497,,0.723148205,-0.402777778,1,0,0,0.7366,0,183,183,113,1,koppen,images/br_koppen.png,images/cb_koppen.png,0,,,,,,,,,,,,,,,,,,,,,,
,,,,,,55891,2023-09-25_12h09.54.832,vbt_B1_day2,2022.2.4,Win32,60.15761295,55891,,,,,,,,,,,,,,,,,,,,,,,,,,,down,0,1.0332,,0.723148205,-0.402777778,1,0,0,0.5307,0,184,184,42,1,bleek,images/br_bleek.png,images/cb_bleek.png,0,,,,,,,,,,,,,,,,,,,,,,
,,,,,,55891,2023-09-25_12h09.54.832,vbt_B1_day2,2022.2.4,Win32,60.15761295,55891,,,,,,,,,,,,,,,,,,,,,,,,,,,down,0,4.7622,,0.723148205,-0.402777778,1,0,0,0.5469,0,185,185,181,1,toegeven,images/br_toegeven.png,images/cb_toegeven.png,0,,,,,,,,,,,,,,,,,,,,,,
,,,,,,55891,2023-09-25_12h09.54.832,vbt_B1_day2,2022.2.4,Win32,60.15761295,55891,,,,,,,,,,,,,,,,,,,,,,,,,,,down,0,9.317,,0.723148205,-0.402777778,1,0,0,0.5667,0,186,186,138,1,akkoord,images/br_akkoord.png,images/cb_akkoord.png,1,akkoord,,,,,,,,,,,,,,,,,,,,,
,,,,,,55891,2023-09-25_12h09.54.832,vbt_B1_day2,2022.2.4,Win32,60.15761295,55891,,,,,,,,,,,,,,,,,,,,,,,,,,,down,0,7.8803,,0.723148205,-0.402777778,1,0,0,0.5833,0,187,187,86,1,woning,images/br_woning.png,images/cb_woning.png,0,,,,,,,,,,,,,,,,,,,,,,
,,,,,,55891,2023-09-25_12h09.54.832,vbt_B1_day2,2022.2.4,Win32,60.15761295,55891,,,,,,,,,,,,,,,,,,,,,,,,,,,down,0,5.5928,,0.723148205,-0.402777778,1,0,0,0.7328,0,188,188,153,1,vervoer,images/br_vervoer.png,images/cb_vervoer.png,0,,,,,,,,,,,,,,,,,,,,,,
,,,,,,55891,2023-09-25_12h09.54.832,vbt_B1_day2,2022.2.4,Win32,60.15761295,55891,,,,,,,,,,,,,,,,,,,,,,,,,,,down,0,3.6763,,0.723148205,-0.402777778,1,0,0,1.0165,0,189,189,126,1,kasteel,images/br_kasteel.png,images/cb_kasteel.png,0,,,,,,,,,,,,,,,,,,,,,,
,,,,,,55891,2023-09-25_12h09.54.832,vbt_B1_day2,2022.2.4,Win32,60.15761295,55891,,,,,,,,,,,,,,,,,,,,,,,,,,,down,0,5.996,,0.723148205,-0.402777778,1,0,0,0.8004,0,190,190,192,1,schaamte,images/br_schaamte.png,images/cb_schaamte.png,0,,,,,,,,,,,,,,,,,,,,,,
,,,,,,55891,2023-09-25_12h09.54.832,vbt_B1_day2,2022.2.4,Win32,60.15761295,55891,,,,,,,,,,,,,,,,,,,,,,,,,,,down,0,4.4828,,0.723148205,-0.402777778,1,0,0,1.9005,0,191,191,93,1,waarop,images/br_waarop.png,images/cb_waarop.png,0,,,,,,,,,,,,,,,,,,,,,,
,,,,,,55891,2023-09-25_12h09.54.832,vbt_B1_day2,2022.2.4,Win32,60.15761295,55891,,,,,,,,,,,,,,,,,,,,,,,,,,,down,0,5.0336,,0.723148205,-0.402777778,1,0,0,0.5803,0,192,192,146,1,opkomen,images/br_opkomen.png,images/cb_opkomen.png,0,,,,,,,,,,,,,,,,,,,,,,
,,,,,,55891,2023-09-25_12h09.54.832,vbt_B1_day2,2022.2.4,Win32,60.15761295,55891,,,,,,,,,,,,,,,,,,,,,,,,,,,down,0,1.4482,,0.723148205,-0.402777778,1,0,0,0.0175,0,193,193,45,1,piste,images/br_piste.png,images/cb_piste.png,0,,,,,,,,,,,,,,,,,,,,,,
,,,,,,55891,2023-09-25_12h09.54.832,vbt_B1_day2,2022.2.4,Win32,60.15761295,55891,,,,,,,,,,,,,,,,,,,,,,,,,,,down,0,5.7209,,0.723148205,-0.402777778,1,0,0,0.5036,0,194,194,50,1,stoom,images/br_stoom.png,images/cb_stoom.png,0,,,,,,,,,,,,,,,,,,,,,,
,,,,,,55891,2023-09-25_12h09.54.832,vbt_B1_day2,2022.2.4,Win32,60.15761295,55891,,,,,,,,,,,,,,,,,,,,,,,,,,,down,0,4.5589,,0.723148205,-0.402777778,1,0,0,0.5368,0,195,195,163,1,schuilen,images/br_schuilen.png,images/cb_schuilen.png,0,,,,,,,,,,,,,,,,,,,,,,
,,,,,,55891,2023-09-25_12h09.54.832,vbt_B1_day2,2022.2.4,Win32,60.15761295,55891,,,,,,,,,,,,,,,,,,,,,,,,,,,down,0,1.1835,,0.723148205,-0.402777778,1,0,0,0.5033,0,196,196,5,1,blad,images/br_blad.png,images/cb_blad.png,0,,,,,,,,,,,,,,,,,,,,,,
,,,,,,55891,2023-09-25_12h09.54.832,vbt_B1_day2,2022.2.4,Win32,60.15761295,55891,,,,,,,,,,,,,,,,,,,,,,,,,,,down,0,4.3476,,0.723148205,-0.402777778,1,0,0,0.6025,0,197,197,95,1,vreten,images/br_vreten.png,images/cb_vreten.png,0,,,,,,,,,,,,,,,,,,,,,,
,,,,,,55891,2023-09-25_12h09.54.832,vbt_B1_day2,2022.2.4,Win32,60.15761295,55891,,,,,,,,,,,,,,,,,,,,,,,,,,,down,0,10.6279,,0.723148205,-0.402777778,1,0,0,0.7704,0,198,198,130,1,keihard,images/br_keihard.png,images/cb_keihard.png,0,,,,,,,,,,,,,,,,,,,,,,
,,,,,,55891,2023-09-25_12h09.54.832,vbt_B1_day2,2022.2.4,Win32,60.15761295,55891,,,,,,,,,,,,,,,,,,,,,,,,,,,down,0,9.984,,0.723148205,-0.402777778,1,0,0,1.0998,0,199,199,121,1,twijfel,images/br_twijfel.png,images/cb_twijfel.png,0,,,,,,,,,,,,,,,,,,,,,,
,,,,,,55891,2023-09-25_12h09.54.832,vbt_B1_day2,2022.2.4,Win32,60.15761295,55891,,,,,,,,,,,,,,,,,,,,,,,,,,,,,,,,,,,,,,,,,,,,,,,0.723148205,-0.402777778,1,0,0,,,,,,,,,,,,,,,,
,,,,,,55891,2023-09-25_12h09.54.832,vbt_B1_day2,2022.2.4,Win32,60.15761295,55891,,,,,,,,,,,,,,,,,,,,,,,,,,,,,,,,,,,,,,,,,,,,,,,,,,,,0.723148205,-0.402777778,1,0,0,,,,,,,,,,,
,,,,,,55891,2023-09-25_12h09.54.832,vbt_B1_day2,2022.2.4,Win32,60.15761295,55891,,,,,,,,,,,,,,,,,,,,,,,,,,,,,,,,,,,,,,,,,,eenhoorn,images/br_eenhoorn.png,images/cb_eenhoorn.png,,een.,,,,,,,,,,,0.723148205,-0.402777778,1,0,0,een.,0,0,0,19,1
,,,,,,55891,2023-09-25_12h09.54.832,vbt_B1_day2,2022.2.4,Win32,60.15761295,55891,,,,,,,,,,,,,,,,,,,,,,,,,,,,,,,,,,,,,,,,,,lokken,images/br_lokken.png,images/cb_lokken.png,,lokken,,,,,,,,,,,0.723148205,-0.402777778,1,0,0,lokken,0,1,1,8,1
,,,,,,55891,2023-09-25_12h09.54.832,vbt_B1_day2,2022.2.4,Win32,60.15761295,55891,,,,,,,,,,,,,,,,,,,,,,,,,,,,,,,,,,,,,,,,,,sjijfel,images/br_sjijfel.png,images/cb_sjijfel.png,,s.i.el,,,,,,,,,,,0.723148205,-0.402777778,1,0,0,s.i.el,0,2,2,33,1
,,,,,,55891,2023-09-25_12h09.54.832,vbt_B1_day2,2022.2.4,Win32,60.15761295,55891,,,,,,,,,,,,,,,,,,,,,,,,,,,,,,,,,,,,,,,,,,opdatten,images/br_opdatten.png,images/cb_opdatten.png,,op.atten,,,,,,,,,,,0.723148205,-0.402777778,1,0,0,op.atten,0,3,3,37,1
,,,,,,55891,2023-09-25_12h09.54.832,vbt_B1_day2,2022.2.4,Win32,60.15761295,55891,,,,,,,,,,,,,,,,,,,,,,,,,,,,,,,,,,,,,,,,,,kasteel,images/br_kasteel.png,images/cb_kasteel.png,,kasteel,,,,,,,,,,,0.723148205,-0.402777778,1,0,0,kasteel,0,4,4,14,1
,,,,,,55891,2023-09-25_12h09.54.832,vbt_B1_day2,2022.2.4,Win32,60.15761295,55891,,,,,,,,,,,,,,,,,,,,,,,,,,,,,,,,,,,,,,,,,,geld,images/br_geld.png,images/cb_geld.png,,geld,,,,,,,,,,,0.367592564,-0.369444459,1,0,0,geld,0,5,5,3,1
,,,,,,55891,2023-09-25_12h09.54.832,vbt_B1_day2,2022.2.4,Win32,60.15761295,55891,,,,,,,,,,,,,,,,,,,,,,,,,,,,,,,,,,,,,,,,,,lijnen,images/br_lijnen.png,images/cb_lijnen.png,,li.nen,,,,,,,,,,,0.367592564,-0.369444459,1,0,0,li.nen,0,6,6,51,1
,,,,,,55891,2023-09-25_12h09.54.832,vbt_B1_day2,2022.2.4,Win32,60.15761295,55891,,,,,,,,,,,,,,,,,,,,,,,,,,,,,,,,,,,,,,,,,,lurgen,images/br_lurgen.png,images/cb_lurgen.png,,lurgen,,,,,,,,,,,0.367592564,-0.369444459,1,0,0,lurgen,0,7,7,29,1
,,,,,,55891,2023-09-25_12h09.54.832,vbt_B1_day2,2022.2.4,Win32,60.15761295,55891,,,,,,,,,,,,,,,,,,,,,,,,,,,,,,,,,,,,,,,,,,kenzis,images/br_kenzis.png,images/cb_kenzis.png,,kenzis,,,,,,,,,,,0.367592564,-0.369444459,1,0,0,kenzis,0,8,8,30,1
,,,,,,55891,2023-09-25_12h09.54.832,vbt_B1_day2,2022.2.4,Win32,60.15761295,55891,,,,,,,,,,,,,,,,,,,,,,,,,,,,,,,,,,,,,,,,,,kabel,images/br_kabel.png,images/cb_kabel.png,,kabel,,,,,,,,,,,0.367592564,-0.369444459,1,0,0,kabel,0,9,9,7,1
,,,,,,55891,2023-09-25_12h09.54.832,vbt_B1_day2,2022.2.4,Win32,60.15761295,55891,,,,,,,,,,,,,,,,,,,,,,,,,,,,,,,,,,,,,,,,,,remel,images/br_remel.png,images/cb_remel.png,,remil,,,,,,,,,,,0.367592564,-0.369444459,1,0,0,remil,0,10,10,25,1
,,,,,,55891,2023-09-25_12h09.54.832,vbt_B1_day2,2022.2.4,Win32,60.15761295,55891,,,,,,,,,,,,,,,,,,,,,,,,,,,,,,,,,,,,,,,,,,aanvraag,images/br_aanvraag.png,images/cb_aanvraag.png,,aanvraag,,,,,,,,,,,0.367592564,-0.369444459,1,0,0,aanvraag,0,11,11,57,1
,,,,,,55891,2023-09-25_12h09.54.832,vbt_B1_day2,2022.2.4,Win32,60.15761295,55891,,,,,,,,,,,,,,,,,,,,,,,,,,,,,,,,,,,,,,,,,,anarchie,images/br_anarchie.png,images/cb_anarchie.png,,anar.,,,,,,,,,,,0.367592564,-0.369444459,1,0,0,anar.,0,12,12,16,1
,,,,,,55891,2023-09-25_12h09.54.832,vbt_B1_day2,2022.2.4,Win32,60.15761295,55891,,,,,,,,,,,,,,,,,,,,,,,,,,,,,,,,,,,,,,,,,,flits,images/br_flits.png,images/cb_flits.png,,flits,,,,,,,,,,,0.367592564,-0.369444459,1,0,0,flits,0,13,13,4,1
,,,,,,55891,2023-09-25_12h09.54.832,vbt_B1_day2,2022.2.4,Win32,60.15761295,55891,,,,,,,,,,,,,,,,,,,,,,,,,,,,,,,,,,,,,,,,,,strikken,images/br_strikken.png,images/cb_strikken.png,,strek.,,,,,,,,,,,0.367592564,-0.369444459,1,0,0,strek.,0,14,14,18,1
,,,,,,55891,2023-09-25_12h09.54.832,vbt_B1_day2,2022.2.4,Win32,60.15761295,55891,,,,,,,,,,,,,,,,,,,,,,,,,,,,,,,,,,,,,,,,,,ophuimen,images/br_ophuimen.png,images/cb_ophuimen.png,,op.ui.,,,,,,,,,,,0.367592564,-0.369444459,1,0,0,op.ui.,0,15,15,36,1
,,,,,,55891,2023-09-25_12h09.54.832,vbt_B1_day2,2022.2.4,Win32,60.15761295,55891,,,,,,,,,,,,,,,,,,,,,,,,,,,,,,,,,,,,,,,,,,thema,images/br_thema.png,images/cb_thema.png,,t.mer,,,,,,,,,,,0.367592564,-0.369444459,1,0,0,t.mer,0,16,16,47,1
,,,,,,55891,2023-09-25_12h09.54.832,vbt_B1_day2,2022.2.4,Win32,60.15761295,55891,,,,,,,,,,,,,,,,,,,,,,,,,,,,,,,,,,,,,,,,,,prekken,images/br_prekken.png,images/cb_prekken.png,,prekken,,,,,,,,,,,0.367592564,-0.369444459,1,0,0,prekken,0,17,17,34,1
,,,,,,55891,2023-09-25_12h09.54.832,vbt_B1_day2,2022.2.4,Win32,60.15761295,55891,,,,,,,,,,,,,,,,,,,,,,,,,,,,,,,,,,,,,,,,,,wijve,images/br_wijve.png,images/cb_wijve.png,,we.ve,,,,,,,,,,,-0.000925912,-0.203703704,1,0,0,we.ve,0,18,18,27,1
,,,,,,55891,2023-09-25_12h09.54.832,vbt_B1_day2,2022.2.4,Win32,60.15761295,55891,,,,,,,,,,,,,,,,,,,,,,,,,,,,,,,,,,,,,,,,,,systeem,images/br_systeem.png,images/cb_systeem.png,,wi.ve,,,,,,,,,,,-0.000925912,-0.20185188,1,0,0,wi.ve,0,19,19,54,1
,,,,,,55891,2023-09-25_12h09.54.832,vbt_B1_day2,2022.2.4,Win32,60.15761295,55891,,,,,,,,,,,,,,,,,,,,,,,,,,,,,,,,,,,,,,,,,,inzicht,images/br_inzicht.png,images/cb_inzicht.png,,inzicht,,,,,,,,,,,-0.015740712,-0.194444444,1,0,0,inzicht,0,20,20,53,1
,,,,,,55891,2023-09-25_12h09.54.832,vbt_B1_day2,2022.2.4,Win32,60.15761295,55891,,,,,,,,,,,,,,,,,,,,,,,,,,,,,,,,,,,,,,,,,,agressie,images/br_agressie.png,images/cb_agressie.png,,agressie,,,,,,,,,,,-0.015740712,-0.194444444,1,0,0,agressie,0,21,21,59,1
,,,,,,55891,2023-09-25_12h09.54.832,vbt_B1_day2,2022.2.4,Win32,60.15761295,55891,,,,,,,,,,,,,,,,,,,,,,,,,,,,,,,,,,,,,,,,,,goon,images/br_goon.png,images/cb_goon.png,,goon,,,,,,,,,,,-0.015740712,-0.194444444,1,0,0,goon,0,22,22,23,1
,,,,,,55891,2023-09-25_12h09.54.832,vbt_B1_day2,2022.2.4,Win32,60.15761295,55891,,,,,,,,,,,,,,,,,,,,,,,,,,,,,,,,,,,,,,,,,,negel,images/br_negel.png,images/cb_negel.png,,zegel,,,,,,,,,,,0.051851838,-0.280555584,1,0,0,zegel,0,23,23,24,1
,,,,,,55891,2023-09-25_12h09.54.832,vbt_B1_day2,2022.2.4,Win32,60.15761295,55891,,,,,,,,,,,,,,,,,,,,,,,,,,,,,,,,,,,,,,,,,,tweeling,images/br_tweeling.png,images/cb_tweeling.png,,tweeling,,,,,,,,,,,0.051851838,-0.280555584,1,0,0,tweeling,0,24,24,58,1
,,,,,,55891,2023-09-25_12h09.54.832,vbt_B1_day2,2022.2.4,Win32,60.15761295,55891,,,,,,,,,,,,,,,,,,,,,,,,,,,,,,,,,,,,,,,,,,badon,images/br_badon.png,images/cb_badon.png,,baron,,,,,,,,,,,0.051851838,-0.280555584,1,0,0,baron,0,25,25,26,1
,,,,,,55891,2023-09-25_12h09.54.832,vbt_B1_day2,2022.2.4,Win32,60.15761295,55891,,,,,,,,,,,,,,,,,,,,,,,,,,,,,,,,,,,,,,,,,,jong,images/br_jong.png,images/cb_jong.png,,.ong,,,,,,,,,,,0.051851838,-0.280555584,1,0,0,.ong,0,26,26,43,1
,,,,,,55891,2023-09-25_12h09.54.832,vbt_B1_day2,2022.2.4,Win32,60.15761295,55891,,,,,,,,,,,,,,,,,,,,,,,,,,,,,,,,,,,,,,,,,,koorts,images/br_koorts.png,images/cb_koorts.png,,koorts,,,,,,,,,,,0.051851838,-0.280555584,1,0,0,koorts,0,27,27,50,1
,,,,,,55891,2023-09-25_12h09.54.832,vbt_B1_day2,2022.2.4,Win32,60.15761295,55891,,,,,,,,,,,,,,,,,,,,,,,,,,,,,,,,,,,,,,,,,,dode,images/br_dode.png,images/cb_dode.png,,.o.e,,,,,,,,,,,0.051851838,-0.280555584,1,0,0,.o.e,0,28,28,41,1
,,,,,,55891,2023-09-25_12h09.54.832,vbt_B1_day2,2022.2.4,Win32,60.15761295,55891,,,,,,,,,,,,,,,,,,,,,,,,,,,,,,,,,,,,,,,,,,plannen,images/br_plannen.png,images/cb_plannen.png,,plannen,,,,,,,,,,,0.051851838,-0.280555584,1,0,0,plannen,0,29,29,55,1
,,,,,,55891,2023-09-25_12h09.54.832,vbt_B1_day2,2022.2.4,Win32,60.15761295,55891,,,,,,,,,,,,,,,,,,,,,,,,,,,,,,,,,,,,,,,,,,trots,images/br_trots.png,images/cb_trots.png,,trots,,,,,,,,,,,0.051851838,-0.280555584,1,0,0,trots,0,30,30,44,1
,,,,,,55891,2023-09-25_12h09.54.832,vbt_B1_day2,2022.2.4,Win32,60.15761295,55891,,,,,,,,,,,,,,,,,,,,,,,,,,,,,,,,,,,,,,,,,,toeval,images/br_toeval.png,images/cb_toeval.png,,toeval,,,,,,,,,,,0.051851838,-0.280555584,1,0,0,toeval,0,31,31,11,1
,,,,,,55891,2023-09-25_12h09.54.832,vbt_B1_day2,2022.2.4,Win32,60.15761295,55891,,,,,,,,,,,,,,,,,,,,,,,,,,,,,,,,,,,,,,,,,,clan,images/br_clan.png,images/cb_clan.png,,clan,,,,,,,,,,,0.051851838,-0.280555584,1,0,0,clan,0,32,32,40,1
,,,,,,55891,2023-09-25_12h09.54.832,vbt_B1_day2,2022.2.4,Win32,60.15761295,55891,,,,,,,,,,,,,,,,,,,,,,,,,,,,,,,,,,,,,,,,,,joes,images/br_joes.png,images/cb_joes.png,,poes,,,,,,,,,,,0.051851838,-0.280555584,1,0,0,poes,0,33,33,20,1
,,,,,,55891,2023-09-25_12h09.54.832,vbt_B1_day2,2022.2.4,Win32,60.15761295,55891,,,,,,,,,,,,,,,,,,,,,,,,,,,,,,,,,,,,,,,,,,woning,images/br_woning.png,images/cb_woning.png,,woning,,,,,,,,,,,0.051851838,-0.280555584,1,0,0,woning,0,34,34,10,1
,,,,,,55891,2023-09-25_12h09.54.832,vbt_B1_day2,2022.2.4,Win32,60.15761295,55891,,,,,,,,,,,,,,,,,,,,,,,,,,,,,,,,,,,,,,,,,,tand,images/br_tand.png,images/cb_tand.png,,tan.,,,,,,,,,,,0.051851838,-0.280555584,1,0,0,tan.,0,35,35,42,1
,,,,,,55891,2023-09-25_12h09.54.832,vbt_B1_day2,2022.2.4,Win32,60.15761295,55891,,,,,,,,,,,,,,,,,,,,,,,,,,,,,,,,,,,,,,,,,,manieren,images/br_manieren.png,images/cb_manieren.png,,manieren,,,,,,,,,,,0.051851838,-0.280555584,1,0,0,manieren,0,36,36,56,1
,,,,,,55891,2023-09-25_12h09.54.832,vbt_B1_day2,2022.2.4,Win32,60.15761295,55891,,,,,,,,,,,,,,,,,,,,,,,,,,,,,,,,,,,,,,,,,,piste,images/br_piste.png,images/cb_piste.png,,piste,,,,,,,,,,,0.051851838,-0.280555584,1,0,0,piste,0,37,37,5,1
,,,,,,55891,2023-09-25_12h09.54.832,vbt_B1_day2,2022.2.4,Win32,60.15761295,55891,,,,,,,,,,,,,,,,,,,,,,,,,,,,,,,,,,,,,,,,,,kijlen,images/br_kijlen.png,images/cb_kijlen.png,,ki.l.,,,,,,,,,,,0.051851838,-0.280555584,1,0,0,ki.l.,0,38,38,31,1
,,,,,,55891,2023-09-25_12h09.54.832,vbt_B1_day2,2022.2.4,Win32,60.15761295,55891,,,,,,,,,,,,,,,,,,,,,,,,,,,,,,,,,,,,,,,,,,sifferd,images/br_sifferd.png,images/cb_sifferd.png,,si.e.a.,,,,,,,,,,,0.051851838,-0.280555584,1,0,0,si.e.a.,0,39,39,32,1
,,,,,,55891,2023-09-25_12h09.54.832,vbt_B1_day2,2022.2.4,Win32,60.15761295,55891,,,,,,,,,,,,,,,,,,,,,,,,,,,,,,,,,,,,,,,,,,stes,images/br_stes.png,images/cb_stes.png,,stes,,,,,,,,,,,0.051851838,-0.280555584,1,0,0,stes,0,40,40,21,1
,,,,,,55891,2023-09-25_12h09.54.832,vbt_B1_day2,2022.2.4,Win32,60.15761295,55891,,,,,,,,,,,,,,,,,,,,,,,,,,,,,,,,,,,,,,,,,,heengeen,images/br_heengeen.png,images/cb_heengeen.png,,.eeng.,,,,,,,,,,,0.051851838,-0.280555584,1,0,0,.eeng.,0,41,41,38,1
,,,,,,55891,2023-09-25_12h09.54.832,vbt_B1_day2,2022.2.4,Win32,60.15761295,55891,,,,,,,,,,,,,,,,,,,,,,,,,,,,,,,,,,,,,,,,,,doodmoe,images/br_doodmoe.png,images/cb_doodmoe.png,,doodmoe,,,,,,,,,,,0.051851838,-0.280555584,1,0,0,doodmoe,0,42,42,15,1
,,,,,,55891,2023-09-25_12h09.54.832,vbt_B1_day2,2022.2.4,Win32,60.15761295,55891,,,,,,,,,,,,,,,,,,,,,,,,,,,,,,,,,,,,,,,,,,jagen,images/br_jagen.png,images/cb_jagen.png,,.agen,,,,,,,,,,,0.051851838,-0.280555584,1,0,0,.agen,0,43,43,6,1
,,,,,,55891,2023-09-25_12h09.54.832,vbt_B1_day2,2022.2.4,Win32,60.15761295,55891,,,,,,,,,,,,,,,,,,,,,,,,,,,,,,,,,,,,,,,,,,zomers,images/br_zomers.png,images/cb_zomers.png,,nom.,,,,,,,,,,,0.051851838,-0.280555584,1,0,0,nom.,0,44,44,48,1
,,,,,,55891,2023-09-25_12h09.54.832,vbt_B1_day2,2022.2.4,Win32,60.15761295,55891,,,,,,,,,,,,,,,,,,,,,,,,,,,,,,,,,,,,,,,,,,bereuwen,images/br_bereuwen.png,images/cb_bereuwen.png,,bereu.,,,,,,,,,,,0.051851838,-0.280555584,1,0,0,bereu.,0,45,45,39,1
,,,,,,55891,2023-09-25_12h09.54.832,vbt_B1_day2,2022.2.4,Win32,60.15761295,55891,,,,,,,,,,,,,,,,,,,,,,,,,,,,,,,,,,,,,,,,,,zwager,images/br_zwager.png,images/cb_zwager.png,,zwager,,,,,,,,,,,0.051851838,-0.280555584,1,0,0,zwager,0,46,46,49,1
,,,,,,55891,2023-09-25_12h09.54.832,vbt_B1_day2,2022.2.4,Win32,60.15761295,55891,,,,,,,,,,,,,,,,,,,,,,,,,,,,,,,,,,,,,,,,,,bloeien,images/br_bloeien.png,images/cb_bloeien.png,,bloeien,,,,,,,,,,,0.051851838,-0.280555584,1,0,0,bloeien,0,47,47,12,1
,,,,,,55891,2023-09-25_12h09.54.832,vbt_B1_day2,2022.2.4,Win32,60.15761295,55891,,,,,,,,,,,,,,,,,,,,,,,,,,,,,,,,,,,,,,,,,,ningen,images/br_ningen.png,images/cb_ningen.png,,ni.g.,,,,,,,,,,,0.051851838,-0.280555584,1,0,0,ni.g.,0,48,48,28,1
,,,,,,55891,2023-09-25_12h09.54.832,vbt_B1_day2,2022.2.4,Win32,60.15761295,55891,,,,,,,,,,,,,,,,,,,,,,,,,,,,,,,,,,,,,,,,,,blad,images/br_blad.png,images/cb_blad.png,,blad,,,,,,,,,,,0.051851838,-0.280555584,1,0,0,blad,0,49,49,1,1
,,,,,,55891,2023-09-25_12h09.54.832,vbt_B1_day2,2022.2.4,Win32,60.15761295,55891,,,,,,,,,,,,,,,,,,,,,,,,,,,,,,,,,,,,,,,,,,sora,images/br_sora.png,images/cb_sora.png,,sora,,,,,,,,,,,0.051851838,-0.280555584,1,0,0,sora,0,50,50,22,1
,,,,,,55891,2023-09-25_12h09.54.832,vbt_B1_day2,2022.2.4,Win32,60.15761295,55891,,,,,,,,,,,,,,,,,,,,,,,,,,,,,,,,,,,,,,,,,,feestdag,images/br_feestdag.png,images/cb_feestdag.png,,.eest.,,,,,,,,,,,0.051851838,-0.280555584,1,0,0,.eest.,0,51,51,17,1
,,,,,,55891,2023-09-25_12h09.54.832,vbt_B1_day2,2022.2.4,Win32,60.15761295,55891,,,,,,,,,,,,,,,,,,,,,,,,,,,,,,,,,,,,,,,,,,breuk,images/br_breuk.png,images/cb_breuk.png,,breuk,,,,,,,,,,,0.051851838,-0.280555584,1,0,0,breuk,0,52,52,45,1
,,,,,,55891,2023-09-25_12h09.54.832,vbt_B1_day2,2022.2.4,Win32,60.15761295,55891,,,,,,,,,,,,,,,,,,,,,,,,,,,,,,,,,,,,,,,,,,heilig,images/br_heilig.png,images/cb_heilig.png,,.ig,,,,,,,,,,,0.051851838,-0.280555584,1,0,0,.ig,0,53,53,9,1
,,,,,,55891,2023-09-25_12h09.54.832,vbt_B1_day2,2022.2.4,Win32,60.15761295,55891,,,,,,,,,,,,,,,,,,,,,,,,,,,,,,,,,,,,,,,,,,welzijn,images/br_welzijn.png,images/cb_welzijn.png,,wel.,,,,,,,,,,,0.051851838,-0.280555584,1,0,0,wel.,0,54,54,52,1
,,,,,,55891,2023-09-25_12h09.54.832,vbt_B1_day2,2022.2.4,Win32,60.15761295,55891,,,,,,,,,,,,,,,,,,,,,,,,,,,,,,,,,,,,,,,,,,zegel,images/br_zegel.png,images/cb_zegel.png,,zegel,,,,,,,,,,,0.049074102,-0.27407406,1,0,0,zegel,0,55,55,46,1
,,,,,,55891,2023-09-25_12h09.54.832,vbt_B1_day2,2022.2.4,Win32,60.15761295,55891,,,,,,,,,,,,,,,,,,,,,,,,,,,,,,,,,,,,,,,,,,diep,images/br_diep.png,images/cb_diep.png,,.iep,,,,,,,,,,,0.049074102,-0.27407406,1,0,0,.iep,0,56,56,2,1
,,,,,,55891,2023-09-25_12h09.54.832,vbt_B1_day2,2022.2.4,Win32,60.15761295,55891,,,,,,,,,,,,,,,,,,,,,,,,,,,,,,,,,,,,,,,,,,moes,images/br_moes.png,images/cb_moes.png,,moes,,,,,,,,,,,0.049074102,-0.27407406,1,0,0,moes,0,57,57,0,1
,,,,,,55891,2023-09-25_12h09.54.832,vbt_B1_day2,2022.2.4,Win32,60.15761295,55891,,,,,,,,,,,,,,,,,,,,,,,,,,,,,,,,,,,,,,,,,,krimmen,images/br_krimmen.png,images/cb_krimmen.png,,krimmen,,,,,,,,,,,0.021296325,-0.316666709,1,0,0,krimmen,0,58,58,35,1
,,,,,,55891,2023-09-25_12h09.54.832,vbt_B1_day2,2022.2.4,Win32,60.15761295,55891,,,,,,,,,,,,,,,,,,,,,,,,,,,,,,,,,,,,,,,,,,aanzien,images/br_aanzien.png,images/cb_aanzien.png,,aanzi.,,,,,,,,,,,0.021296325,-0.316666709,1,0,0,aanzi.,0,59,59,13,1
,,,,,,55891,2023-09-25_12h09.54.832,vbt_B1_day2,2022.2.4,Win32,60.15761295,55891,,,,,,,,,,,,,,,,,,,,,,,,,,,,,,,,,,,,,,,,,,,,,,,,,,,,,,,,,,,,,,,,,,,
