welcome_mouse.x,welcome_mouse.y,welcome_mouse.leftButton,welcome_mouse.midButton,welcome_mouse.rightButton,welcome_mouse.time,"ID",date,expName,psychopyVersion,OS,frameRate,refresh_mouse.x,refresh_mouse.y,refresh_mouse.leftButton,refresh_mouse.midButton,refresh_mouse.rightButton,refresh_mouse.time,braille_mouse.x,braille_mouse.y,braille_mouse.leftButton,braille_mouse.midButton,braille_mouse.rightButton,braille_mouse.time,trials.thisRepN,trials.thisTrialN,trials.thisN,trials.thisIndex,trials.ran,nlLet,brLet,cbLet,trainInstr_mouse.x,trainInstr_mouse.y,trainInstr_mouse.leftButton,trainInstr_mouse.midButton,trainInstr_mouse.rightButton,trainInstr_mouse.time,translation_key.keys,translation_key.corr,translation_key.rt,word_rsp.text,word_mouse.x,word_mouse.y,word_mouse.leftButton,word_mouse.midButton,word_mouse.rightButton,word_mouse.time,train_loop.thisRepN,train_loop.thisTrialN,train_loop.thisN,train_loop.thisIndex,train_loop.ran,nlWrd,brWrd,cbWrd,test,testResp,mouse.x,mouse.y,mouse.leftButton,mouse.midButton,mouse.rightButton,testInstr_mouse.x,testInstr_mouse.y,testInstr_mouse.leftButton,testInstr_mouse.midButton,testInstr_mouse.rightButton,test_mouse.x,test_mouse.y,test_mouse.leftButton,test_mouse.midButton,test_mouse.rightButton,test_response.text,test_loop.thisRepN,test_loop.thisTrialN,test_loop.thisN,test_loop.thisIndex,test_loop.ran
-0.154629601,-0.242592635,1,0,0,11.44,00062,2023-10-11_18h25.10.834,vbt_B1_day2,2022.2.4,Win32,60.05645307,,,,,,,,,,,,,,,,,,,,,,,,,,,,,,,,,,,,,,,,,,,,,,,,,,,,,,,,,,,,,,,,,,,
,,,,,,00062,2023-10-11_18h25.10.834,vbt_B1_day2,2022.2.4,Win32,60.05645307,-0.154629601,-0.242592635,1,0,0,16.9009,,,,,,,,,,,,,,,,,,,,,,,,,,,,,,,,,,,,,,,,,,,,,,,,,,,,,,,,,,,,,
,,,,,,00062,2023-10-11_18h25.10.834,vbt_B1_day2,2022.2.4,Win32,60.05645307,,,,,,,-0.154629601,-0.242592635,1,0,0,17.9085,0,0,0,19,1,t,images/br_t.png,images/cb_t.png,,,,,,,,,,,,,,,,,,,,,,,,,,,,,,,,,,,,,,,,,,,,,,,
,,,,,,00062,2023-10-11_18h25.10.834,vbt_B1_day2,2022.2.4,Win32,60.05645307,,,,,,,-0.154629601,-0.242592635,1,0,0,2.0008,0,1,1,17,1,r,images/br_r.png,images/cb_r.png,,,,,,,,,,,,,,,,,,,,,,,,,,,,,,,,,,,,,,,,,,,,,,,
,,,,,,00062,2023-10-11_18h25.10.834,vbt_B1_day2,2022.2.4,Win32,60.05645307,,,,,,,-0.154629601,-0.242592635,1,0,0,3.1676,0,2,2,18,1,s,images/br_s.png,images/cb_s.png,,,,,,,,,,,,,,,,,,,,,,,,,,,,,,,,,,,,,,,,,,,,,,,
,,,,,,00062,2023-10-11_18h25.10.834,vbt_B1_day2,2022.2.4,Win32,60.05645307,,,,,,,-0.154629601,-0.242592635,1,0,0,2.4675,0,3,3,3,1,d,images/br_d.png,images/cb_d.png,,,,,,,,,,,,,,,,,,,,,,,,,,,,,,,,,,,,,,,,,,,,,,,
,,,,,,00062,2023-10-11_18h25.10.834,vbt_B1_day2,2022.2.4,Win32,60.05645307,,,,,,,-0.154629601,-0.242592635,1,0,0,2.7178,0,4,4,22,1,w,images/br_w.png,images/cb_w.png,,,,,,,,,,,,,,,,,,,,,,,,,,,,,,,,,,,,,,,,,,,,,,,
,,,,,,00062,2023-10-11_18h25.10.834,vbt_B1_day2,2022.2.4,Win32,60.05645307,,,,,,,-0.154629601,-0.242592635,1,0,0,0.6049,0,5,5,16,1,q,images/br_q.png,images/cb_q.png,,,,,,,,,,,,,,,,,,,,,,,,,,,,,,,,,,,,,,,,,,,,,,,
,,,,,,00062,2023-10-11_18h25.10.834,vbt_B1_day2,2022.2.4,Win32,60.05645307,,,,,,,-0.154629601,-0.242592635,1,0,0,3.7345,0,6,6,7,1,h,images/br_h.png,images/cb_h.png,,,,,,,,,,,,,,,,,,,,,,,,,,,,,,,,,,,,,,,,,,,,,,,
,,,,,,00062,2023-10-11_18h25.10.834,vbt_B1_day2,2022.2.4,Win32,60.05645307,,,,,,,-0.154629601,-0.242592635,1,0,0,0.4832,0,7,7,2,1,c,images/br_c.png,images/cb_c.png,,,,,,,,,,,,,,,,,,,,,,,,,,,,,,,,,,,,,,,,,,,,,,,
,,,,,,00062,2023-10-11_18h25.10.834,vbt_B1_day2,2022.2.4,Win32,60.05645307,,,,,,,-0.156481496,-0.246296282,1,0,0,0.6077,0,8,8,4,1,e,images/br_e.png,images/cb_e.png,,,,,,,,,,,,,,,,,,,,,,,,,,,,,,,,,,,,,,,,,,,,,,,
,,,,,,00062,2023-10-11_18h25.10.834,vbt_B1_day2,2022.2.4,Win32,60.05645307,,,,,,,-0.156481496,-0.246296282,1,0,0,4.3843,0,9,9,5,1,f,images/br_f.png,images/cb_f.png,,,,,,,,,,,,,,,,,,,,,,,,,,,,,,,,,,,,,,,,,,,,,,,
,,,,,,00062,2023-10-11_18h25.10.834,vbt_B1_day2,2022.2.4,Win32,60.05645307,,,,,,,-0.156481496,-0.246296282,1,0,0,0.3668,0,10,10,11,1,l,images/br_l.png,images/cb_l.png,,,,,,,,,,,,,,,,,,,,,,,,,,,,,,,,,,,,,,,,,,,,,,,
,,,,,,00062,2023-10-11_18h25.10.834,vbt_B1_day2,2022.2.4,Win32,60.05645307,,,,,,,-0.156481496,-0.246296282,1,0,0,0.1169,0,11,11,6,1,g,images/br_g.png,images/cb_g.png,,,,,,,,,,,,,,,,,,,,,,,,,,,,,,,,,,,,,,,,,,,,,,,
,,,,,,00062,2023-10-11_18h25.10.834,vbt_B1_day2,2022.2.4,Win32,60.05645307,,,,,,,-0.156481496,-0.246296282,1,0,0,0.9335,0,12,12,15,1,p,images/br_p.png,images/cb_p.png,,,,,,,,,,,,,,,,,,,,,,,,,,,,,,,,,,,,,,,,,,,,,,,
,,,,,,00062,2023-10-11_18h25.10.834,vbt_B1_day2,2022.2.4,Win32,60.05645307,,,,,,,-0.156481496,-0.246296282,1,0,0,0.0506,0,13,13,1,1,b,images/br_b.png,images/cb_b.png,,,,,,,,,,,,,,,,,,,,,,,,,,,,,,,,,,,,,,,,,,,,,,,
,,,,,,00062,2023-10-11_18h25.10.834,vbt_B1_day2,2022.2.4,Win32,60.05645307,,,,,,,-0.156481496,-0.246296282,1,0,0,1.7849,0,14,14,13,1,n,images/br_n.png,images/cb_n.png,,,,,,,,,,,,,,,,,,,,,,,,,,,,,,,,,,,,,,,,,,,,,,,
,,,,,,00062,2023-10-11_18h25.10.834,vbt_B1_day2,2022.2.4,Win32,60.05645307,,,,,,,-0.156481496,-0.246296282,1,0,0,1.617,0,15,15,10,1,k,images/br_k.png,images/cb_k.png,,,,,,,,,,,,,,,,,,,,,,,,,,,,,,,,,,,,,,,,,,,,,,,
,,,,,,00062,2023-10-11_18h25.10.834,vbt_B1_day2,2022.2.4,Win32,60.05645307,,,,,,,-0.156481496,-0.246296282,1,0,0,0.2841,0,16,16,8,1,i,images/br_i.png,images/cb_i.png,,,,,,,,,,,,,,,,,,,,,,,,,,,,,,,,,,,,,,,,,,,,,,,
,,,,,,00062,2023-10-11_18h25.10.834,vbt_B1_day2,2022.2.4,Win32,60.05645307,,,,,,,-0.156481496,-0.246296282,1,0,0,1.434,0,17,17,20,1,u,images/br_u.png,images/cb_u.png,,,,,,,,,,,,,,,,,,,,,,,,,,,,,,,,,,,,,,,,,,,,,,,
,,,,,,00062,2023-10-11_18h25.10.834,vbt_B1_day2,2022.2.4,Win32,60.05645307,,,,,,,-0.156481496,-0.246296282,1,0,0,0.1995,0,18,18,23,1,x,images/br_x.png,images/cb_x.png,,,,,,,,,,,,,,,,,,,,,,,,,,,,,,,,,,,,,,,,,,,,,,,
,,,,,,00062,2023-10-11_18h25.10.834,vbt_B1_day2,2022.2.4,Win32,60.05645307,,,,,,,-0.156481496,-0.246296282,1,0,0,1.6683,0,19,19,24,1,y,images/br_y.png,images/cb_y.png,,,,,,,,,,,,,,,,,,,,,,,,,,,,,,,,,,,,,,,,,,,,,,,
,,,,,,00062,2023-10-11_18h25.10.834,vbt_B1_day2,2022.2.4,Win32,60.05645307,,,,,,,-0.156481496,-0.246296282,1,0,0,5.0015,0,20,20,12,1,m,images/br_m.png,images/cb_m.png,,,,,,,,,,,,,,,,,,,,,,,,,,,,,,,,,,,,,,,,,,,,,,,
,,,,,,00062,2023-10-11_18h25.10.834,vbt_B1_day2,2022.2.4,Win32,60.05645307,,,,,,,-0.156481496,-0.246296282,1,0,0,0.2502,0,21,21,21,1,v,images/br_v.png,images/cb_v.png,,,,,,,,,,,,,,,,,,,,,,,,,,,,,,,,,,,,,,,,,,,,,,,
,,,,,,00062,2023-10-11_18h25.10.834,vbt_B1_day2,2022.2.4,Win32,60.05645307,,,,,,,-0.156481496,-0.246296282,1,0,0,1.9675,0,22,22,25,1,z,images/br_z.png,images/cb_z.png,,,,,,,,,,,,,,,,,,,,,,,,,,,,,,,,,,,,,,,,,,,,,,,
,,,,,,00062,2023-10-11_18h25.10.834,vbt_B1_day2,2022.2.4,Win32,60.05645307,,,,,,,-0.156481496,-0.246296282,1,0,0,0.8001,0,23,23,9,1,j,images/br_j.png,images/cb_j.png,,,,,,,,,,,,,,,,,,,,,,,,,,,,,,,,,,,,,,,,,,,,,,,
,,,,,,00062,2023-10-11_18h25.10.834,vbt_B1_day2,2022.2.4,Win32,60.05645307,,,,,,,-0.156481496,-0.246296282,1,0,0,0.4003,0,24,24,14,1,o,images/br_o.png,images/cb_o.png,,,,,,,,,,,,,,,,,,,,,,,,,,,,,,,,,,,,,,,,,,,,,,,
,,,,,,00062,2023-10-11_18h25.10.834,vbt_B1_day2,2022.2.4,Win32,60.05645307,,,,,,,-0.156481496,-0.246296282,1,0,0,0.3662,0,25,25,0,1,a,images/br_a.png,images/cb_a.png,,,,,,,,,,,,,,,,,,,,,,,,,,,,,,,,,,,,,,,,,,,,,,,
,,,,,,00062,2023-10-11_18h25.10.834,vbt_B1_day2,2022.2.4,Win32,60.05645307,,,,,,,,,,,,,,,,,,,,,-0.188888903,-0.296296296,1,0,0,130.9882,,,,,,,,,,,,,,,,,,,,,,,,,,,,,,,,,,,,,,,,,
,,,,,,00062,2023-10-11_18h25.10.834,vbt_B1_day2,2022.2.4,Win32,60.05645307,,,,,,,,,,,,,,,,,,,,,,,,,,,down,0,7.4939,,-0.188888903,-0.296296296,1,0,0,4.6773,0,0,0,113,1,koppen,images/br_koppen.png,images/cb_koppen.png,0,,,,,,,,,,,,,,,,,,,,,,
,,,,,,00062,2023-10-11_18h25.10.834,vbt_B1_day2,2022.2.4,Win32,60.05645307,,,,,,,,,,,,,,,,,,,,,,,,,,,down,0,4.5696,,-0.188888903,-0.296296296,1,0,0,3.0245,0,1,1,63,1,flirt,images/br_flirt.png,images/cb_flirt.png,0,,,,,,,,,,,,,,,,,,,,,,
,,,,,,00062,2023-10-11_18h25.10.834,vbt_B1_day2,2022.2.4,Win32,60.05645307,,,,,,,,,,,,,,,,,,,,,,,,,,,down,0,3.7528,,-0.188888903,-0.296296296,1,0,0,3.0013,0,2,2,36,1,vuur,images/br_vuur.png,images/cb_vuur.png,0,,,,,,,,,,,,,,,,,,,,,,
,,,,,,00062,2023-10-11_18h25.10.834,vbt_B1_day2,2022.2.4,Win32,60.05645307,,,,,,,,,,,,,,,,,,,,,,,,,,,down,0,6.542,,-0.188888903,-0.296296296,1,0,0,3.4845,0,3,3,0,1,slak,images/br_slak.png,images/cb_slak.png,0,,,,,,,,,,,,,,,,,,,,,,
,,,,,,00062,2023-10-11_18h25.10.834,vbt_B1_day2,2022.2.4,Win32,60.05645307,,,,,,,,,,,,,,,,,,,,,,,,,,,down,0,3.0778,,-0.188888903,-0.296296296,1,0,0,3.4503,0,4,4,33,1,vlek,images/br_vlek.png,images/cb_vlek.png,0,,,,,,,,,,,,,,,,,,,,,,
,,,,,,00062,2023-10-11_18h25.10.834,vbt_B1_day2,2022.2.4,Win32,60.05645307,,,,,,,,,,,,,,,,,,,,,,,,,,,down,0,5.5015,,-0.188888903,-0.296296296,1,0,0,3.9345,0,5,5,153,1,vervoer,images/br_vervoer.png,images/cb_vervoer.png,0,,,,,,,,,,,,,,,,,,,,,,
,,,,,,00062,2023-10-11_18h25.10.834,vbt_B1_day2,2022.2.4,Win32,60.05645307,,,,,,,,,,,,,,,,,,,,,,,,,,,down,0,8.4251,,-0.188888903,-0.296296296,1,0,0,5.1849,0,6,6,182,1,bijkomen,images/br_bijkomen.png,images/cb_bijkomen.png,0,,,,,,,,,,,,,,,,,,,,,,
,,,,,,00062,2023-10-11_18h25.10.834,vbt_B1_day2,2022.2.4,Win32,60.05645307,,,,,,,,,,,,,,,,,,,,,,,,,,,down,0,6.4259,,-0.188888903,-0.296296296,1,0,0,4.4686,0,7,7,43,1,klauw,images/br_klauw.png,images/cb_klauw.png,0,,,,,,,,,,,,,,,,,,,,,,
,,,,,,00062,2023-10-11_18h25.10.834,vbt_B1_day2,2022.2.4,Win32,60.05645307,,,,,,,,,,,,,,,,,,,,,,,,,,,down,0,2.0324,,-0.188888903,-0.296296296,1,0,0,2.9345,0,8,8,10,1,leek,images/br_leek.png,images/cb_leek.png,0,,,,,,,,,,,,,,,,,,,,,,
,,,,,,00062,2023-10-11_18h25.10.834,vbt_B1_day2,2022.2.4,Win32,60.05645307,,,,,,,,,,,,,,,,,,,,,,,,,,,down,0,6.6468,,0.163888931,-0.155555584,1,0,0,2.5016,0,9,9,17,1,taal,images/br_taal.png,images/cb_taal.png,1,taaltaal,,,,,,,,,,,,,,,,,,,,,
,,,,,,00062,2023-10-11_18h25.10.834,vbt_B1_day2,2022.2.4,Win32,60.05645307,,,,,,,,,,,,,,,,,,,,,,,,,,,down,0,9.1584,,0.163888931,-0.155555584,1,0,0,9.6369,0,10,10,44,1,flits,images/br_flits.png,images/cb_flits.png,0,,,,,,,,,,,,,,,,,,,,,,
,,,,,,00062,2023-10-11_18h25.10.834,vbt_B1_day2,2022.2.4,Win32,60.05645307,,,,,,,,,,,,,,,,,,,,,,,,,,,down,0,8.1543,,0.162962949,-0.157407407,1,0,0,3.9223,0,11,11,88,1,boeien,images/br_boeien.png,images/cb_boeien.png,0,,,,,,,,,,,,,,,,,,,,,,
,,,,,,00062,2023-10-11_18h25.10.834,vbt_B1_day2,2022.2.4,Win32,60.05645307,,,,,,,,,,,,,,,,,,,,,,,,,,,down,0,5.6075,,0.162962949,-0.157407407,1,0,0,3.8346,0,12,12,112,1,lukken,images/br_lukken.png,images/cb_lukken.png,0,,,,,,,,,,,,,,,,,,,,,,
,,,,,,00062,2023-10-11_18h25.10.834,vbt_B1_day2,2022.2.4,Win32,60.05645307,,,,,,,,,,,,,,,,,,,,,,,,,,,down,0,9.8939,,0.162962949,-0.157407407,1,0,0,2.1839,0,13,13,99,1,koffie,images/br_koffie.png,images/cb_koffie.png,1,koffie,,,,,,,,,,,,,,,,,,,,,
,,,,,,00062,2023-10-11_18h25.10.834,vbt_B1_day2,2022.2.4,Win32,60.05645307,,,,,,,,,,,,,,,,,,,,,,,,,,,down,0,6.9115,,0.162962949,-0.157407407,1,0,0,4.5348,0,14,14,14,1,rijp,images/br_rijp.png,images/cb_rijp.png,0,,,,,,,,,,,,,,,,,,,,,,
,,,,,,00062,2023-10-11_18h25.10.834,vbt_B1_day2,2022.2.4,Win32,60.05645307,,,,,,,,,,,,,,,,,,,,,,,,,,,down,0,0.1887,,0.162962949,-0.157407407,1,0,0,2.2671,0,15,15,94,1,oceaan,images/br_oceaan.png,images/cb_oceaan.png,0,,,,,,,,,,,,,,,,,,,,,,
,,,,,,00062,2023-10-11_18h25.10.834,vbt_B1_day2,2022.2.4,Win32,60.05645307,,,,,,,,,,,,,,,,,,,,,,,,,,,down,0,0.2014,,0.162037037,-0.159259302,1,0,0,2.1671,0,16,16,65,1,parel,images/br_parel.png,images/cb_parel.png,0,,,,,,,,,,,,,,,,,,,,,,
,,,,,,00062,2023-10-11_18h25.10.834,vbt_B1_day2,2022.2.4,Win32,60.05645307,,,,,,,,,,,,,,,,,,,,,,,,,,,down,0,34.1962,,0.162037037,-0.159259302,1,0,0,0.9841,0,17,17,177,1,maaltijd,images/br_maaltijd.png,images/cb_maaltijd.png,1,maaltijd,,,,,,,,,,,,,,,,,,,,,
,,,,,,00062,2023-10-11_18h25.10.834,vbt_B1_day2,2022.2.4,Win32,60.05645307,,,,,,,,,,,,,,,,,,,,,,,,,,,down,0,0.8518,,0.162037037,-0.159259302,1,0,0,1.484,0,18,18,111,1,ticket,images/br_ticket.png,images/cb_ticket.png,0,,,,,,,,,,,,,,,,,,,,,,
,,,,,,00062,2023-10-11_18h25.10.834,vbt_B1_day2,2022.2.4,Win32,60.05645307,,,,,,,,,,,,,,,,,,,,,,,,,,,down,0,2.1689,,0.162037037,-0.159259302,1,0,0,1.5502,0,19,19,169,1,oprotten,images/br_oprotten.png,images/cb_oprotten.png,0,,,,,,,,,,,,,,,,,,,,,,
,,,,,,00062,2023-10-11_18h25.10.834,vbt_B1_day2,2022.2.4,Win32,60.05645307,,,,,,,,,,,,,,,,,,,,,,,,,,,down,0,0.4701,,0.162037037,-0.159259302,1,0,0,2.0183,0,20,20,128,1,prikken,images/br_prikken.png,images/cb_prikken.png,0,,,,,,,,,,,,,,,,,,,,,,
,,,,,,00062,2023-10-11_18h25.10.834,vbt_B1_day2,2022.2.4,Win32,60.05645307,,,,,,,,,,,,,,,,,,,,,,,,,,,down,0,0.2016,,0.162037037,-0.159259302,1,0,0,1.8507,0,21,21,12,1,kust,images/br_kust.png,images/cb_kust.png,0,,,,,,,,,,,,,,,,,,,,,,
,,,,,,00062,2023-10-11_18h25.10.834,vbt_B1_day2,2022.2.4,Win32,60.05645307,,,,,,,,,,,,,,,,,,,,,,,,,,,down,0,0.5014,,0.162037037,-0.159259302,1,0,0,1.1503,0,22,22,1,1,zaal,images/br_zaal.png,images/cb_zaal.png,0,,,,,,,,,,,,,,,,,,,,,,
,,,,,,00062,2023-10-11_18h25.10.834,vbt_B1_day2,2022.2.4,Win32,60.05645307,,,,,,,,,,,,,,,,,,,,,,,,,,,down,0,13.2901,,0.162037037,-0.159259302,1,0,0,0.7834,0,23,23,97,1,loyaal,images/br_loyaal.png,images/cb_loyaal.png,1,loyaal,,,,,,,,,,,,,,,,,,,,,
,,,,,,00062,2023-10-11_18h25.10.834,vbt_B1_day2,2022.2.4,Win32,60.05645307,,,,,,,,,,,,,,,,,,,,,,,,,,,down,0,0.0763,,0.162037037,-0.159259302,1,0,0,1.3504,0,24,24,76,1,afval,images/br_afval.png,images/cb_afval.png,0,,,,,,,,,,,,,,,,,,,,,,
,,,,,,00062,2023-10-11_18h25.10.834,vbt_B1_day2,2022.2.4,Win32,60.05645307,,,,,,,,,,,,,,,,,,,,,,,,,,,down,0,0.4489,,0.160185213,-0.162037037,1,0,0,2.9586,0,25,25,79,1,nodig,images/br_nodig.png,images/cb_nodig.png,0,,,,,,,,,,,,,,,,,,,,,,
,,,,,,00062,2023-10-11_18h25.10.834,vbt_B1_day2,2022.2.4,Win32,60.05645307,,,,,,,,,,,,,,,,,,,,,,,,,,,down,0,0.5355,,0.160185213,-0.162037037,0,0,1,0.7592,0,26,26,81,1,dubbel,images/br_dubbel.png,images/cb_dubbel.png,0,,,,,,,,,,,,,,,,,,,,,,
,,,,,,00062,2023-10-11_18h25.10.834,vbt_B1_day2,2022.2.4,Win32,60.05645307,,,,,,,,,,,,,,,,,,,,,,,,,,,down,0,1.0773,,0.161111125,-0.160185213,0,0,1,0.6827,0,27,27,25,1,plek,images/br_plek.png,images/cb_plek.png,0,,,,,,,,,,,,,,,,,,,,,,
,,,,,,00062,2023-10-11_18h25.10.834,vbt_B1_day2,2022.2.4,Win32,60.05645307,,,,,,,,,,,,,,,,,,,,,,,,,,,down,0,0.386,,0.02407406,-0.131481524,0,0,1,0.7496,0,28,28,127,1,doodmoe,images/br_doodmoe.png,images/cb_doodmoe.png,0,,,,,,,,,,,,,,,,,,,,,,
,,,,,,00062,2023-10-11_18h25.10.834,vbt_B1_day2,2022.2.4,Win32,60.05645307,,,,,,,,,,,,,,,,,,,,,,,,,,,down,0,1.1713,,-0.087962963,-0.169444473,1,0,0,0.9828,0,29,29,131,1,opzicht,images/br_opzicht.png,images/cb_opzicht.png,0,,,,,,,,,,,,,,,,,,,,,,
,,,,,,00062,2023-10-11_18h25.10.834,vbt_B1_day2,2022.2.4,Win32,60.05645307,,,,,,,,,,,,,,,,,,,,,,,,,,,down,0,0.0735,,-0.087962963,-0.169444473,1,0,0,0.9498,0,30,30,155,1,gerucht,images/br_gerucht.png,images/cb_gerucht.png,0,,,,,,,,,,,,,,,,,,,,,,
,,,,,,00062,2023-10-11_18h25.10.834,vbt_B1_day2,2022.2.4,Win32,60.05645307,,,,,,,,,,,,,,,,,,,,,,,,,,,down,0,0.1676,,-0.087962963,-0.169444473,0,0,1,3.7508,0,31,31,159,1,sufferd,images/br_sufferd.png,images/cb_sufferd.png,0,,,,,,,,,,,,,,,,,,,,,,
,,,,,,00062,2023-10-11_18h25.10.834,vbt_B1_day2,2022.2.4,Win32,60.05645307,,,,,,,,,,,,,,,,,,,,,,,,,,,down,0,37.8991,,-0.122222194,-0.143518519,1,0,0,14.6389,0,32,32,136,1,waarbij,images/br_waarbij.png,images/cb_waarbij.png,1,waarcij,,,,,,,,,,,,,,,,,,,,,
,,,,,,00062,2023-10-11_18h25.10.834,vbt_B1_day2,2022.2.4,Win32,60.05645307,,,,,,,,,,,,,,,,,,,,,,,,,,,down,0,0.5154,,-0.122222194,-0.143518519,1,0,0,1.5338,0,33,33,66,1,lever,images/br_lever.png,images/cb_lever.png,0,,,,,,,,,,,,,,,,,,,,,,
,,,,,,00062,2023-10-11_18h25.10.834,vbt_B1_day2,2022.2.4,Win32,60.05645307,,,,,,,,,,,,,,,,,,,,,,,,,,,down,0,0.4861,,-0.122222194,-0.143518519,1,0,0,1.1656,0,34,34,188,1,strekken,images/br_strekken.png,images/cb_strekken.png,0,,,,,,,,,,,,,,,,,,,,,,
,,,,,,00062,2023-10-11_18h25.10.834,vbt_B1_day2,2022.2.4,Win32,60.05645307,,,,,,,,,,,,,,,,,,,,,,,,,,,down,0,0.9018,,-0.122222194,-0.143518519,1,0,0,3.0183,0,35,35,161,1,attentie,images/br_attentie.png,images/cb_attentie.png,0,,,,,,,,,,,,,,,,,,,,,,
,,,,,,00062,2023-10-11_18h25.10.834,vbt_B1_day2,2022.2.4,Win32,60.05645307,,,,,,,,,,,,,,,,,,,,,,,,,,,down,0,2.271,,-0.122222194,-0.143518519,1,0,0,1.0001,0,36,36,28,1,stal,images/br_stal.png,images/cb_stal.png,0,,,,,,,,,,,,,,,,,,,,,,
,,,,,,00062,2023-10-11_18h25.10.834,vbt_B1_day2,2022.2.4,Win32,60.05645307,,,,,,,,,,,,,,,,,,,,,,,,,,,down,0,1.6935,,-0.122222194,-0.143518519,1,0,0,1.1501,0,37,37,38,1,baai,images/br_baai.png,images/cb_baai.png,0,,,,,,,,,,,,,,,,,,,,,,
,,,,,,00062,2023-10-11_18h25.10.834,vbt_B1_day2,2022.2.4,Win32,60.05645307,,,,,,,,,,,,,,,,,,,,,,,,,,,down,0,5.0197,,-0.122222194,-0.143518519,1,0,0,0.9171,0,38,38,107,1,maling,images/br_maling.png,images/cb_maling.png,0,,,,,,,,,,,,,,,,,,,,,,
,,,,,,00062,2023-10-11_18h25.10.834,vbt_B1_day2,2022.2.4,Win32,60.05645307,,,,,,,,,,,,,,,,,,,,,,,,,,,down,0,0.2021,,-0.122222194,-0.143518519,1,0,0,1.034,0,39,39,91,1,gezond,images/br_gezond.png,images/cb_gezond.png,0,,,,,,,,,,,,,,,,,,,,,,
,,,,,,00062,2023-10-11_18h25.10.834,vbt_B1_day2,2022.2.4,Win32,60.05645307,,,,,,,,,,,,,,,,,,,,,,,,,,,down,0,1.0944,,-0.122222194,-0.143518519,1,0,0,1.0843,0,40,40,141,1,knielen,images/br_knielen.png,images/cb_knielen.png,0,,,,,,,,,,,,,,,,,,,,,,
,,,,,,00062,2023-10-11_18h25.10.834,vbt_B1_day2,2022.2.4,Win32,60.05645307,,,,,,,,,,,,,,,,,,,,,,,,,,,down,0,4.0678,,-0.122222194,-0.143518519,1,0,0,1.0174,0,41,41,104,1,zweven,images/br_zweven.png,images/cb_zweven.png,0,,,,,,,,,,,,,,,,,,,,,,
,,,,,,00062,2023-10-11_18h25.10.834,vbt_B1_day2,2022.2.4,Win32,60.05645307,,,,,,,,,,,,,,,,,,,,,,,,,,,down,0,1.0916,,-0.122222194,-0.143518519,1,0,0,0.9161,0,42,42,126,1,kasteel,images/br_kasteel.png,images/cb_kasteel.png,0,,,,,,,,,,,,,,,,,,,,,,
,,,,,,00062,2023-10-11_18h25.10.834,vbt_B1_day2,2022.2.4,Win32,60.05645307,,,,,,,,,,,,,,,,,,,,,,,,,,,down,0,0.502,,-0.122222194,-0.143518519,1,0,0,0.9496,0,43,43,145,1,invloed,images/br_invloed.png,images/cb_invloed.png,0,,,,,,,,,,,,,,,,,,,,,,
,,,,,,00062,2023-10-11_18h25.10.834,vbt_B1_day2,2022.2.4,Win32,60.05645307,,,,,,,,,,,,,,,,,,,,,,,,,,,down,0,0.794,,-0.122222194,-0.143518519,1,0,0,0.7832,0,44,44,196,1,nakijken,images/br_nakijken.png,images/cb_nakijken.png,0,,,,,,,,,,,,,,,,,,,,,,
,,,,,,00062,2023-10-11_18h25.10.834,vbt_B1_day2,2022.2.4,Win32,60.05645307,,,,,,,,,,,,,,,,,,,,,,,,,,,down,0,10.6609,,-0.122222194,-0.143518519,1,0,0,1.4007,0,45,45,139,1,stiekem,images/br_stiekem.png,images/cb_stiekem.png,1,stiekem,,,,,,,,,,,,,,,,,,,,,
,,,,,,00062,2023-10-11_18h25.10.834,vbt_B1_day2,2022.2.4,Win32,60.05645307,,,,,,,,,,,,,,,,,,,,,,,,,,,down,0,0.5013,,-0.122222194,-0.143518519,1,0,0,0.9668,0,46,46,74,1,graaf,images/br_graaf.png,images/cb_graaf.png,0,,,,,,,,,,,,,,,,,,,,,,
,,,,,,00062,2023-10-11_18h25.10.834,vbt_B1_day2,2022.2.4,Win32,60.05645307,,,,,,,,,,,,,,,,,,,,,,,,,,,down,0,23.6352,,-0.122222194,-0.143518519,1,0,0,1.2341,0,47,47,179,1,woestijn,images/br_woestijn.png,images/cb_woestijn.png,1,woestijn ,,,,,,,,,,,,,,,,,,,,,
,,,,,,00062,2023-10-11_18h25.10.834,vbt_B1_day2,2022.2.4,Win32,60.05645307,,,,,,,,,,,,,,,,,,,,,,,,,,,down,0,0.5707,,-0.122222194,-0.143518519,1,0,0,5.1851,0,48,48,46,1,jagen,images/br_jagen.png,images/cb_jagen.png,0,,,,,,,,,,,,,,,,,,,,,,
,,,,,,00062,2023-10-11_18h25.10.834,vbt_B1_day2,2022.2.4,Win32,60.05645307,,,,,,,,,,,,,,,,,,,,,,,,,,,down,0,0.5252,,-0.122222194,-0.143518519,1,0,0,1.0338,0,49,49,154,1,aflopen,images/br_aflopen.png,images/cb_aflopen.png,0,,,,,,,,,,,,,,,,,,,,,,
,,,,,,00062,2023-10-11_18h25.10.834,vbt_B1_day2,2022.2.4,Win32,60.05645307,,,,,,,,,,,,,,,,,,,,,,,,,,,down,0,0.6741,,-0.122222194,-0.143518519,1,0,0,0.9502,0,50,50,175,1,heengaan,images/br_heengaan.png,images/cb_heengaan.png,0,,,,,,,,,,,,,,,,,,,,,,
,,,,,,00062,2023-10-11_18h25.10.834,vbt_B1_day2,2022.2.4,Win32,60.05645307,,,,,,,,,,,,,,,,,,,,,,,,,,,down,0,1.9274,,-0.122222194,-0.143518519,1,0,0,0.65,0,51,51,71,1,bever,images/br_bever.png,images/cb_bever.png,0,,,,,,,,,,,,,,,,,,,,,,
,,,,,,00062,2023-10-11_18h25.10.834,vbt_B1_day2,2022.2.4,Win32,60.05645307,,,,,,,,,,,,,,,,,,,,,,,,,,,down,0,12.5064,,-0.122222194,-0.143518519,1,0,0,1.6839,0,52,52,19,1,geit,images/br_geit.png,images/cb_geit.png,1,geit,,,,,,,,,,,,,,,,,,,,,
,,,,,,00062,2023-10-11_18h25.10.834,vbt_B1_day2,2022.2.4,Win32,60.05645307,,,,,,,,,,,,,,,,,,,,,,,,,,,down,0,8.3971,,-0.122222194,-0.143518519,1,0,0,0.4841,0,53,53,16,1,ziek,images/br_ziek.png,images/cb_ziek.png,1,ziek,,,,,,,,,,,,,,,,,,,,,
,,,,,,00062,2023-10-11_18h25.10.834,vbt_B1_day2,2022.2.4,Win32,60.05645307,,,,,,,,,,,,,,,,,,,,,,,,,,,down,0,18.6904,,-0.122222194,-0.143518519,1,0,0,0.8005,0,54,54,174,1,stemming,images/br_stemming.png,images/cb_stemming.png,0,,,,,,,,,,,,,,,,,,,,,,
,,,,,,00062,2023-10-11_18h25.10.834,vbt_B1_day2,2022.2.4,Win32,60.05645307,,,,,,,,,,,,,,,,,,,,,,,,,,,down,0,0.4499,,-0.122222194,-0.143518519,1,0,0,1.1104,0,55,55,110,1,zuster,images/br_zuster.png,images/cb_zuster.png,0,,,,,,,,,,,,,,,,,,,,,,
,,,,,,00062,2023-10-11_18h25.10.834,vbt_B1_day2,2022.2.4,Win32,60.05645307,,,,,,,,,,,,,,,,,,,,,,,,,,,down,0,1.1772,,-0.122222194,-0.143518519,1,0,0,0.733,0,56,56,40,1,schep,images/br_schep.png,images/cb_schep.png,0,,,,,,,,,,,,,,,,,,,,,,
,,,,,,00062,2023-10-11_18h25.10.834,vbt_B1_day2,2022.2.4,Win32,60.05645307,,,,,,,,,,,,,,,,,,,,,,,,,,,down,0,1.1005,,-0.122222194,-0.143518519,1,0,0,0.7673,0,57,57,87,1,toeval,images/br_toeval.png,images/cb_toeval.png,0,,,,,,,,,,,,,,,,,,,,,,
,,,,,,00062,2023-10-11_18h25.10.834,vbt_B1_day2,2022.2.4,Win32,60.05645307,,,,,,,,,,,,,,,,,,,,,,,,,,,down,0,0.2861,,-0.122222194,-0.143518519,1,0,0,1.0331,0,58,58,8,1,knie,images/br_knie.png,images/cb_knie.png,0,,,,,,,,,,,,,,,,,,,,,,
,,,,,,00062,2023-10-11_18h25.10.834,vbt_B1_day2,2022.2.4,Win32,60.05645307,,,,,,,,,,,,,,,,,,,,,,,,,,,down,0,14.5068,,-0.122222194,-0.143518519,1,0,0,0.8495,0,59,59,198,1,bedoelen,images/br_bedoelen.png,images/cb_bedoelen.png,0,,,,,,,,,,,,,,,,,,,,,,
,,,,,,00062,2023-10-11_18h25.10.834,vbt_B1_day2,2022.2.4,Win32,60.05645307,,,,,,,,,,,,,,,,,,,,,,,,,,,down,0,4.1367,,-0.122222194,-0.143518519,1,0,0,1.0671,0,60,60,18,1,blik,images/br_blik.png,images/cb_blik.png,1,blij,,,,,,,,,,,,,,,,,,,,,
,,,,,,00062,2023-10-11_18h25.10.834,vbt_B1_day2,2022.2.4,Win32,60.05645307,,,,,,,,,,,,,,,,,,,,,,,,,,,down,0,0.1248,,-0.122222194,-0.143518519,1,0,0,1.0669,0,61,61,69,1,waken,images/br_waken.png,images/cb_waken.png,0,,,,,,,,,,,,,,,,,,,,,,
,,,,,,00062,2023-10-11_18h25.10.834,vbt_B1_day2,2022.2.4,Win32,60.05645307,,,,,,,,,,,,,,,,,,,,,,,,,,,down,0,4.3704,,-0.122222194,-0.143518519,1,0,0,0.8835,0,62,62,22,1,stof,images/br_stof.png,images/cb_stof.png,0,,,,,,,,,,,,,,,,,,,,,,
,,,,,,00062,2023-10-11_18h25.10.834,vbt_B1_day2,2022.2.4,Win32,60.05645307,,,,,,,,,,,,,,,,,,,,,,,,,,,down,0,1.1688,,-0.122222194,-0.143518519,1,0,0,2.4839,0,63,63,75,1,snoep,images/br_snoep.png,images/cb_snoep.png,0,,,,,,,,,,,,,,,,,,,,,,
,,,,,,00062,2023-10-11_18h25.10.834,vbt_B1_day2,2022.2.4,Win32,60.05645307,,,,,,,,,,,,,,,,,,,,,,,,,,,down,0,0.5354,,-0.122222194,-0.143518519,1,0,0,1.0165,0,64,64,20,1,site,images/br_site.png,images/cb_site.png,0,,,,,,,,,,,,,,,,,,,,,,
,,,,,,00062,2023-10-11_18h25.10.834,vbt_B1_day2,2022.2.4,Win32,60.05645307,,,,,,,,,,,,,,,,,,,,,,,,,,,down,0,1.1226,,-0.122222194,-0.143518519,1,0,0,5.802,0,65,65,165,1,feestdag,images/br_feestdag.png,images/cb_feestdag.png,0,,,,,,,,,,,,,,,,,,,,,,
,,,,,,00062,2023-10-11_18h25.10.834,vbt_B1_day2,2022.2.4,Win32,60.05645307,,,,,,,,,,,,,,,,,,,,,,,,,,,down,0,1.1679,,-0.122222194,-0.143518519,1,0,0,1.2339,0,66,66,194,1,driemaal,images/br_driemaal.png,images/cb_driemaal.png,0,,,,,,,,,,,,,,,,,,,,,,
,,,,,,00062,2023-10-11_18h25.10.834,vbt_B1_day2,2022.2.4,Win32,60.05645307,,,,,,,,,,,,,,,,,,,,,,,,,,,down,0,0.5013,,-0.122222194,-0.143518519,1,0,0,1.3006,0,67,67,62,1,knaap,images/br_knaap.png,images/cb_knaap.png,0,,,,,,,,,,,,,,,,,,,,,,
,,,,,,00062,2023-10-11_18h25.10.834,vbt_B1_day2,2022.2.4,Win32,60.05645307,,,,,,,,,,,,,,,,,,,,,,,,,,,down,0,2.4064,,-0.122222194,-0.143518519,1,0,0,2.3671,0,68,68,2,1,jaar,images/br_jaar.png,images/cb_jaar.png,0,,,,,,,,,,,,,,,,,,,,,,
,,,,,,00062,2023-10-11_18h25.10.834,vbt_B1_day2,2022.2.4,Win32,60.05645307,,,,,,,,,,,,,,,,,,,,,,,,,,,down,0,0.9365,,-0.122222194,-0.143518519,1,0,0,1.0673,0,69,69,134,1,geliefd,images/br_geliefd.png,images/cb_geliefd.png,0,,,,,,,,,,,,,,,,,,,,,,
,,,,,,00062,2023-10-11_18h25.10.834,vbt_B1_day2,2022.2.4,Win32,60.05645307,,,,,,,,,,,,,,,,,,,,,,,,,,,down,0,1.8705,,-0.122222194,-0.143518519,1,0,0,1.2168,0,70,70,167,1,eenhoorn,images/br_eenhoorn.png,images/cb_eenhoorn.png,0,,,,,,,,,,,,,,,,,,,,,,
,,,,,,00062,2023-10-11_18h25.10.834,vbt_B1_day2,2022.2.4,Win32,60.05645307,,,,,,,,,,,,,,,,,,,,,,,,,,,down,0,0.2008,,-0.122222194,-0.143518519,1,0,0,1.3002,0,71,71,193,1,weeshuis,images/br_weeshuis.png,images/cb_weeshuis.png,0,,,,,,,,,,,,,,,,,,,,,,
,,,,,,00062,2023-10-11_18h25.10.834,vbt_B1_day2,2022.2.4,Win32,60.05645307,,,,,,,,,,,,,,,,,,,,,,,,,,,down,0,0.5178,,-0.122222194,-0.143518519,1,0,0,0.7501,0,72,72,70,1,ijdel,images/br_ijdel.png,images/cb_ijdel.png,0,,,,,,,,,,,,,,,,,,,,,,
,,,,,,00062,2023-10-11_18h25.10.834,vbt_B1_day2,2022.2.4,Win32,60.05645307,,,,,,,,,,,,,,,,,,,,,,,,,,,down,0,1.1045,,-0.122222194,-0.143518519,1,0,0,0.7335,0,73,73,39,1,laag,images/br_laag.png,images/cb_laag.png,0,,,,,,,,,,,,,,,,,,,,,,
,,,,,,00062,2023-10-11_18h25.10.834,vbt_B1_day2,2022.2.4,Win32,60.05645307,,,,,,,,,,,,,,,,,,,,,,,,,,,down,0,4.2195,,-0.122222194,-0.143518519,1,0,0,0.6503,0,74,74,53,1,baron,images/br_baron.png,images/cb_baron.png,0,,,,,,,,,,,,,,,,,,,,,,
,,,,,,00062,2023-10-11_18h25.10.834,vbt_B1_day2,2022.2.4,Win32,60.05645307,,,,,,,,,,,,,,,,,,,,,,,,,,,down,0,2.0354,,-0.122222194,-0.143518519,1,0,0,0.7332,0,75,75,146,1,opkomen,images/br_opkomen.png,images/cb_opkomen.png,0,,,,,,,,,,,,,,,,,,,,,,
,,,,,,00062,2023-10-11_18h25.10.834,vbt_B1_day2,2022.2.4,Win32,60.05645307,,,,,,,,,,,,,,,,,,,,,,,,,,,down,0,2.3188,,-0.122222194,-0.143518519,1,0,0,0.8168,0,76,76,23,1,zout,images/br_zout.png,images/cb_zout.png,0,,,,,,,,,,,,,,,,,,,,,,
,,,,,,00062,2023-10-11_18h25.10.834,vbt_B1_day2,2022.2.4,Win32,60.05645307,,,,,,,,,,,,,,,,,,,,,,,,,,,down,0,0.1686,,-0.122222194,-0.143518519,1,0,0,0.8658,0,77,77,191,1,opheffen,images/br_opheffen.png,images/cb_opheffen.png,0,,,,,,,,,,,,,,,,,,,,,,
,,,,,,00062,2023-10-11_18h25.10.834,vbt_B1_day2,2022.2.4,Win32,60.05645307,,,,,,,,,,,,,,,,,,,,,,,,,,,down,0,0.4511,,-0.122222194,-0.143518519,1,0,0,0.8834,0,78,78,123,1,hiervan,images/br_hiervan.png,images/cb_hiervan.png,0,,,,,,,,,,,,,,,,,,,,,,
,,,,,,00062,2023-10-11_18h25.10.834,vbt_B1_day2,2022.2.4,Win32,60.05645307,,,,,,,,,,,,,,,,,,,,,,,,,,,down,0,1.8689,,-0.122222194,-0.143518519,1,0,0,0.6839,0,79,79,35,1,lust,images/br_lust.png,images/cb_lust.png,0,,,,,,,,,,,,,,,,,,,,,,
,,,,,,00062,2023-10-11_18h25.10.834,vbt_B1_day2,2022.2.4,Win32,60.05645307,,,,,,,,,,,,,,,,,,,,,,,,,,,down,0,9.2322,,-0.122222194,-0.143518519,1,0,0,0.8838,0,80,80,96,1,slagen,images/br_slagen.png,images/cb_slagen.png,1,slager,,,,,,,,,,,,,,,,,,,,,
,,,,,,00062,2023-10-11_18h25.10.834,vbt_B1_day2,2022.2.4,Win32,60.05645307,,,,,,,,,,,,,,,,,,,,,,,,,,,down,0,0.4368,,-0.122222194,-0.143518519,1,0,0,0.7168,0,81,81,173,1,apparaat,images/br_apparaat.png,images/cb_apparaat.png,0,,,,,,,,,,,,,,,,,,,,,,
,,,,,,00062,2023-10-11_18h25.10.834,vbt_B1_day2,2022.2.4,Win32,60.05645307,,,,,,,,,,,,,,,,,,,,,,,,,,,down,0,0.101,,-0.122222194,-0.143518519,1,0,0,2.3841,0,82,82,90,1,geluid,images/br_geluid.png,images/cb_geluid.png,0,,,,,,,,,,,,,,,,,,,,,,
,,,,,,00062,2023-10-11_18h25.10.834,vbt_B1_day2,2022.2.4,Win32,60.05645307,,,,,,,,,,,,,,,,,,,,,,,,,,,down,0,25.3628,,-0.122222194,-0.143518519,1,0,0,0.5178,0,83,83,24,1,jurk,images/br_jurk.png,images/cb_jurk.png,0,,,,,,,,,,,,,,,,,,,,,,
,,,,,,00062,2023-10-11_18h25.10.834,vbt_B1_day2,2022.2.4,Win32,60.05645307,,,,,,,,,,,,,,,,,,,,,,,,,,,down,0,17.8232,,-0.157407407,-0.143518519,1,0,0,1.0506,0,84,84,138,1,akkoord,images/br_akkoord.png,images/cb_akkoord.png,1,akkoord,,,,,,,,,,,,,,,,,,,,,
,,,,,,00062,2023-10-11_18h25.10.834,vbt_B1_day2,2022.2.4,Win32,60.05645307,,,,,,,,,,,,,,,,,,,,,,,,,,,down,0,12.5114,,-0.157407407,-0.143518519,1,0,0,0.6335,0,85,85,166,1,strikken,images/br_strikken.png,images/cb_strikken.png,0,,,,,,,,,,,,,,,,,,,,,,
,,,,,,00062,2023-10-11_18h25.10.834,vbt_B1_day2,2022.2.4,Win32,60.05645307,,,,,,,,,,,,,,,,,,,,,,,,,,,down,0,0.3677,,-0.157407407,-0.143518519,1,0,0,0.8339,0,86,86,7,1,geld,images/br_geld.png,images/cb_geld.png,0,,,,,,,,,,,,,,,,,,,,,,
,,,,,,00062,2023-10-11_18h25.10.834,vbt_B1_day2,2022.2.4,Win32,60.05645307,,,,,,,,,,,,,,,,,,,,,,,,,,,down,0,0.0174,,-0.157407407,-0.143518519,1,0,0,3.7515,0,87,87,120,1,klimmen,images/br_klimmen.png,images/cb_klimmen.png,0,,,,,,,,,,,,,,,,,,,,,,
,,,,,,00062,2023-10-11_18h25.10.834,vbt_B1_day2,2022.2.4,Win32,60.05645307,,,,,,,,,,,,,,,,,,,,,,,,,,,down,0,1.7927,,-0.157407407,-0.143518519,1,0,0,2.9188,0,88,88,152,1,afnemen,images/br_afnemen.png,images/cb_afnemen.png,0,,,,,,,,,,,,,,,,,,,,,,
,,,,,,00062,2023-10-11_18h25.10.834,vbt_B1_day2,2022.2.4,Win32,60.05645307,,,,,,,,,,,,,,,,,,,,,,,,,,,down,0,0.1041,,-0.157407407,-0.143518519,1,0,0,1.0003,0,89,89,5,1,blad,images/br_blad.png,images/cb_blad.png,0,,,,,,,,,,,,,,,,,,,,,,
,,,,,,00062,2023-10-11_18h25.10.834,vbt_B1_day2,2022.2.4,Win32,60.05645307,,,,,,,,,,,,,,,,,,,,,,,,,,,down,0,0.6012,,-0.157407407,-0.143518519,1,0,0,2.9243,0,90,90,93,1,waarop,images/br_waarop.png,images/cb_waarop.png,0,,,,,,,,,,,,,,,,,,,,,,
,,,,,,00062,2023-10-11_18h25.10.834,vbt_B1_day2,2022.2.4,Win32,60.05645307,,,,,,,,,,,,,,,,,,,,,,,,,,,down,0,0.0571,,-0.157407407,-0.143518519,1,0,0,1.1174,0,91,91,124,1,bloeien,images/br_bloeien.png,images/cb_bloeien.png,0,,,,,,,,,,,,,,,,,,,,,,
,,,,,,00062,2023-10-11_18h25.10.834,vbt_B1_day2,2022.2.4,Win32,60.05645307,,,,,,,,,,,,,,,,,,,,,,,,,,,down,0,0.3844,,-0.157407407,-0.143518519,1,0,0,2.6509,0,92,92,149,1,redding,images/br_redding.png,images/cb_redding.png,0,,,,,,,,,,,,,,,,,,,,,,
,,,,,,00062,2023-10-11_18h25.10.834,vbt_B1_day2,2022.2.4,Win32,60.05645307,,,,,,,,,,,,,,,,,,,,,,,,,,,down,0,1.9039,,-0.157407407,-0.143518519,1,0,0,0.6336,0,93,93,55,1,praat,images/br_praat.png,images/cb_praat.png,0,,,,,,,,,,,,,,,,,,,,,,
,,,,,,00062,2023-10-11_18h25.10.834,vbt_B1_day2,2022.2.4,Win32,60.05645307,,,,,,,,,,,,,,,,,,,,,,,,,,,down,0,1.1846,,-0.157407407,-0.143518519,1,0,0,1.6837,0,94,94,185,1,mijnheer,images/br_mijnheer.png,images/cb_mijnheer.png,0,,,,,,,,,,,,,,,,,,,,,,
,,,,,,00062,2023-10-11_18h25.10.834,vbt_B1_day2,2022.2.4,Win32,60.05645307,,,,,,,,,,,,,,,,,,,,,,,,,,,down,0,1.8673,,-0.157407407,-0.143518519,1,0,0,1.46,0,95,95,31,1,poes,images/br_poes.png,images/cb_poes.png,0,,,,,,,,,,,,,,,,,,,,,,
,,,,,,00062,2023-10-11_18h25.10.834,vbt_B1_day2,2022.2.4,Win32,60.05645307,,,,,,,,,,,,,,,,,,,,,,,,,,,down,0,0.6893,,-0.157407407,-0.143518519,1,0,0,2.1838,0,96,96,164,1,anarchie,images/br_anarchie.png,images/cb_anarchie.png,0,,,,,,,,,,,,,,,,,,,,,,
,,,,,,00062,2023-10-11_18h25.10.834,vbt_B1_day2,2022.2.4,Win32,60.05645307,,,,,,,,,,,,,,,,,,,,,,,,,,,down,0,1.6929,,-0.157407407,-0.143518519,1,0,0,1.0171,0,97,97,21,1,mist,images/br_mist.png,images/cb_mist.png,0,,,,,,,,,,,,,,,,,,,,,,
,,,,,,00062,2023-10-11_18h25.10.834,vbt_B1_day2,2022.2.4,Win32,60.05645307,,,,,,,,,,,,,,,,,,,,,,,,,,,down,0,4.924,,-0.157407407,-0.143518519,1,0,0,1.5381,0,98,98,121,1,twijfel,images/br_twijfel.png,images/cb_twijfel.png,0,,,,,,,,,,,,,,,,,,,,,,
,,,,,,00062,2023-10-11_18h25.10.834,vbt_B1_day2,2022.2.4,Win32,60.05645307,,,,,,,,,,,,,,,,,,,,,,,,,,,down,0,0.8592,,-0.157407407,-0.143518519,1,0,0,0.617,0,99,99,147,1,komisch,images/br_komisch.png,images/cb_komisch.png,0,,,,,,,,,,,,,,,,,,,,,,
,,,,,,00062,2023-10-11_18h25.10.834,vbt_B1_day2,2022.2.4,Win32,60.05645307,,,,,,,,,,,,,,,,,,,,,,,,,,,down,0,0.9994,,-0.157407407,-0.143518519,1,0,0,0.5506,0,100,100,85,1,heilig,images/br_heilig.png,images/cb_heilig.png,0,,,,,,,,,,,,,,,,,,,,,,
,,,,,,00062,2023-10-11_18h25.10.834,vbt_B1_day2,2022.2.4,Win32,60.05645307,,,,,,,,,,,,,,,,,,,,,,,,,,,down,0,0.4895,,-0.157407407,-0.143518519,1,0,0,1.1499,0,101,101,186,1,voorraad,images/br_voorraad.png,images/cb_voorraad.png,0,,,,,,,,,,,,,,,,,,,,,,
,,,,,,00062,2023-10-11_18h25.10.834,vbt_B1_day2,2022.2.4,Win32,60.05645307,,,,,,,,,,,,,,,,,,,,,,,,,,,down,0,0.1348,,-0.157407407,-0.143518519,1,0,0,0.8404,0,102,102,125,1,aanzien,images/br_aanzien.png,images/cb_aanzien.png,0,,,,,,,,,,,,,,,,,,,,,,
,,,,,,00062,2023-10-11_18h25.10.834,vbt_B1_day2,2022.2.4,Win32,60.05645307,,,,,,,,,,,,,,,,,,,,,,,,,,,down,0,0.4846,,-0.157407407,-0.143518519,1,0,0,2.0176,0,103,103,133,1,seizoen,images/br_seizoen.png,images/cb_seizoen.png,0,,,,,,,,,,,,,,,,,,,,,,
,,,,,,00062,2023-10-11_18h25.10.834,vbt_B1_day2,2022.2.4,Win32,60.05645307,,,,,,,,,,,,,,,,,,,,,,,,,,,down,0,0.0849,,-0.157407407,-0.143518519,1,0,0,2.3509,0,104,104,42,1,bleek,images/br_bleek.png,images/cb_bleek.png,0,,,,,,,,,,,,,,,,,,,,,,
,,,,,,00062,2023-10-11_18h25.10.834,vbt_B1_day2,2022.2.4,Win32,60.05645307,,,,,,,,,,,,,,,,,,,,,,,,,,,down,0,0.0011,,-0.157407407,-0.143518519,1,0,0,4.1512,0,105,105,54,1,gebit,images/br_gebit.png,images/cb_gebit.png,0,,,,,,,,,,,,,,,,,,,,,,
,,,,,,00062,2023-10-11_18h25.10.834,vbt_B1_day2,2022.2.4,Win32,60.05645307,,,,,,,,,,,,,,,,,,,,,,,,,,,down,0,0.285,,-0.157407407,-0.143518519,1,0,0,4.0854,0,106,106,60,1,jasje,images/br_jasje.png,images/cb_jasje.png,0,,,,,,,,,,,,,,,,,,,,,,
,,,,,,00062,2023-10-11_18h25.10.834,vbt_B1_day2,2022.2.4,Win32,60.05645307,,,,,,,,,,,,,,,,,,,,,,,,,,,down,0,1.3015,,-0.157407407,-0.143518519,1,0,0,3.4519,0,107,107,181,1,toegeven,images/br_toegeven.png,images/cb_toegeven.png,0,,,,,,,,,,,,,,,,,,,,,,
,,,,,,00062,2023-10-11_18h25.10.834,vbt_B1_day2,2022.2.4,Win32,60.05645307,,,,,,,,,,,,,,,,,,,,,,,,,,,down,0,1.0396,,-0.157407407,-0.143518519,1,0,0,1.9504,0,108,108,101,1,staren,images/br_staren.png,images/cb_staren.png,0,,,,,,,,,,,,,,,,,,,,,,
,,,,,,00062,2023-10-11_18h25.10.834,vbt_B1_day2,2022.2.4,Win32,60.05645307,,,,,,,,,,,,,,,,,,,,,,,,,,,down,0,0.4007,,-0.157407407,-0.143518519,1,0,0,2.2671,0,109,109,77,1,woede,images/br_woede.png,images/cb_woede.png,0,,,,,,,,,,,,,,,,,,,,,,
,,,,,,00062,2023-10-11_18h25.10.834,vbt_B1_day2,2022.2.4,Win32,60.05645307,,,,,,,,,,,,,,,,,,,,,,,,,,,down,0,0.5194,,-0.157407407,-0.143518519,1,0,0,1.7827,0,110,110,82,1,muziek,images/br_muziek.png,images/cb_muziek.png,0,,,,,,,,,,,,,,,,,,,,,,
,,,,,,00062,2023-10-11_18h25.10.834,vbt_B1_day2,2022.2.4,Win32,60.05645307,,,,,,,,,,,,,,,,,,,,,,,,,,,down,0,2.2864,,-0.157407407,-0.143518519,1,0,0,1.8001,0,111,111,47,1,kabel,images/br_kabel.png,images/cb_kabel.png,0,,,,,,,,,,,,,,,,,,,,,,
,,,,,,00062,2023-10-11_18h25.10.834,vbt_B1_day2,2022.2.4,Win32,60.05645307,,,,,,,,,,,,,,,,,,,,,,,,,,,down,0,14.1243,,-0.157407407,-0.143518519,1,0,0,0.7497,0,112,112,192,1,schaamte,images/br_schaamte.png,images/cb_schaamte.png,0,,,,,,,,,,,,,,,,,,,,,,
,,,,,,00062,2023-10-11_18h25.10.834,vbt_B1_day2,2022.2.4,Win32,60.05645307,,,,,,,,,,,,,,,,,,,,,,,,,,,down,0,1.6078,,-0.157407407,-0.143518519,1,0,0,2.4341,0,113,113,27,1,dans,images/br_dans.png,images/cb_dans.png,0,,,,,,,,,,,,,,,,,,,,,,
,,,,,,00062,2023-10-11_18h25.10.834,vbt_B1_day2,2022.2.4,Win32,60.05645307,,,,,,,,,,,,,,,,,,,,,,,,,,,down,0,10.3622,,-0.157407407,-0.143518519,1,0,0,0.7507,0,114,114,137,1,trekker,images/br_trekker.png,images/cb_trekker.png,1,trekken,,,,,,,,,,,,,,,,,,,,,
,,,,,,00062,2023-10-11_18h25.10.834,vbt_B1_day2,2022.2.4,Win32,60.05645307,,,,,,,,,,,,,,,,,,,,,,,,,,,down,0,0.8204,,-0.157407407,-0.143518519,1,0,0,0.7838,0,115,115,67,1,zwart,images/br_zwart.png,images/cb_zwart.png,0,,,,,,,,,,,,,,,,,,,,,,
,,,,,,00062,2023-10-11_18h25.10.834,vbt_B1_day2,2022.2.4,Win32,60.05645307,,,,,,,,,,,,,,,,,,,,,,,,,,,down,0,1.4538,,-0.157407407,-0.143518519,1,0,0,0.7504,0,116,116,143,1,hechten,images/br_hechten.png,images/cb_hechten.png,0,,,,,,,,,,,,,,,,,,,,,,
,,,,,,00062,2023-10-11_18h25.10.834,vbt_B1_day2,2022.2.4,Win32,60.05645307,,,,,,,,,,,,,,,,,,,,,,,,,,,down,0,1.5016,,-0.157407407,-0.143518519,1,0,0,3.8512,0,117,117,73,1,volop,images/br_volop.png,images/cb_volop.png,0,,,,,,,,,,,,,,,,,,,,,,
,,,,,,00062,2023-10-11_18h25.10.834,vbt_B1_day2,2022.2.4,Win32,60.05645307,,,,,,,,,,,,,,,,,,,,,,,,,,,down,0,4.873,,-0.157407407,-0.143518519,1,0,0,0.617,0,118,118,41,1,maken,images/br_maken.png,images/cb_maken.png,0,,,,,,,,,,,,,,,,,,,,,,
,,,,,,00062,2023-10-11_18h25.10.834,vbt_B1_day2,2022.2.4,Win32,60.05645307,,,,,,,,,,,,,,,,,,,,,,,,,,,down,0,0.4348,,-0.157407407,-0.143518519,1,0,0,0.8839,0,119,119,157,1,uitlaat,images/br_uitlaat.png,images/cb_uitlaat.png,0,,,,,,,,,,,,,,,,,,,,,,
,,,,,,00062,2023-10-11_18h25.10.834,vbt_B1_day2,2022.2.4,Win32,60.05645307,,,,,,,,,,,,,,,,,,,,,,,,,,,down,0,0.3345,,-0.157407407,-0.143518519,1,0,0,1.1832,0,120,120,197,1,spanning,images/br_spanning.png,images/cb_spanning.png,0,,,,,,,,,,,,,,,,,,,,,,
,,,,,,00062,2023-10-11_18h25.10.834,vbt_B1_day2,2022.2.4,Win32,60.05645307,,,,,,,,,,,,,,,,,,,,,,,,,,,down,0,0.6521,,-0.157407407,-0.143518519,1,0,0,1.5334,0,121,121,92,1,geheim,images/br_geheim.png,images/cb_geheim.png,0,,,,,,,,,,,,,,,,,,,,,,
,,,,,,00062,2023-10-11_18h25.10.834,vbt_B1_day2,2022.2.4,Win32,60.05645307,,,,,,,,,,,,,,,,,,,,,,,,,,,down,0,0.9175,,-0.157407407,-0.143518519,1,0,0,1.4001,0,122,122,49,1,laken,images/br_laken.png,images/cb_laken.png,0,,,,,,,,,,,,,,,,,,,,,,
,,,,,,00062,2023-10-11_18h25.10.834,vbt_B1_day2,2022.2.4,Win32,60.05645307,,,,,,,,,,,,,,,,,,,,,,,,,,,down,0,0.4526,,-0.157407407,-0.143518519,1,0,0,3.2339,0,123,123,86,1,woning,images/br_woning.png,images/cb_woning.png,0,,,,,,,,,,,,,,,,,,,,,,
,,,,,,00062,2023-10-11_18h25.10.834,vbt_B1_day2,2022.2.4,Win32,60.05645307,,,,,,,,,,,,,,,,,,,,,,,,,,,down,0,1.988,,-0.157407407,-0.143518519,1,0,0,3.2843,0,124,124,171,1,aarzelen,images/br_aarzelen.png,images/cb_aarzelen.png,0,,,,,,,,,,,,,,,,,,,,,,
,,,,,,00062,2023-10-11_18h25.10.834,vbt_B1_day2,2022.2.4,Win32,60.05645307,,,,,,,,,,,,,,,,,,,,,,,,,,,down,0,1.8711,,-0.157407407,-0.143518519,1,0,0,1.1008,0,125,125,189,1,aanraden,images/br_aanraden.png,images/cb_aanraden.png,0,,,,,,,,,,,,,,,,,,,,,,
,,,,,,00062,2023-10-11_18h25.10.834,vbt_B1_day2,2022.2.4,Win32,60.05645307,,,,,,,,,,,,,,,,,,,,,,,,,,,down,0,1.5257,,-0.157407407,-0.143518519,1,0,0,1.2002,0,126,126,140,1,blijven,images/br_blijven.png,images/cb_blijven.png,0,,,,,,,,,,,,,,,,,,,,,,
,,,,,,00062,2023-10-11_18h25.10.834,vbt_B1_day2,2022.2.4,Win32,60.05645307,,,,,,,,,,,,,,,,,,,,,,,,,,,down,0,0.8046,,-0.157407407,-0.143518519,1,0,0,0.7501,0,127,127,15,1,soda,images/br_soda.png,images/cb_soda.png,0,,,,,,,,,,,,,,,,,,,,,,
,,,,,,00062,2023-10-11_18h25.10.834,vbt_B1_day2,2022.2.4,Win32,60.05645307,,,,,,,,,,,,,,,,,,,,,,,,,,,down,0,3.6358,,-0.157407407,-0.143518519,1,0,0,1,0,128,128,115,1,kleren,images/br_kleren.png,images/cb_kleren.png,0,,,,,,,,,,,,,,,,,,,,,,
,,,,,,00062,2023-10-11_18h25.10.834,vbt_B1_day2,2022.2.4,Win32,60.05645307,,,,,,,,,,,,,,,,,,,,,,,,,,,down,0,1.6943,,-0.157407407,-0.143518519,1,0,0,1.0347,0,129,129,50,1,stoom,images/br_stoom.png,images/cb_stoom.png,0,,,,,,,,,,,,,,,,,,,,,,
,,,,,,00062,2023-10-11_18h25.10.834,vbt_B1_day2,2022.2.4,Win32,60.05645307,,,,,,,,,,,,,,,,,,,,,,,,,,,down,0,0.2687,,-0.157407407,-0.143518519,1,0,0,2.6515,0,130,130,119,1,liefje,images/br_liefje.png,images/cb_liefje.png,0,,,,,,,,,,,,,,,,,,,,,,
,,,,,,00062,2023-10-11_18h25.10.834,vbt_B1_day2,2022.2.4,Win32,60.05645307,,,,,,,,,,,,,,,,,,,,,,,,,,,down,0,6.3751,,-0.157407407,-0.143518519,1,0,0,0.7334,0,131,131,106,1,zingen,images/br_zingen.png,images/cb_zingen.png,0,,,,,,,,,,,,,,,,,,,,,,
,,,,,,00062,2023-10-11_18h25.10.834,vbt_B1_day2,2022.2.4,Win32,60.05645307,,,,,,,,,,,,,,,,,,,,,,,,,,,down,0,0.7379,,-0.157407407,-0.143518519,1,0,0,0.833,0,132,132,118,1,vinger,images/br_vinger.png,images/cb_vinger.png,0,,,,,,,,,,,,,,,,,,,,,,
,,,,,,00062,2023-10-11_18h25.10.834,vbt_B1_day2,2022.2.4,Win32,60.05645307,,,,,,,,,,,,,,,,,,,,,,,,,,,down,0,0.9232,,-0.157407407,-0.143518519,1,0,0,0.9325,0,133,133,160,1,daarheen,images/br_daarheen.png,images/cb_daarheen.png,0,,,,,,,,,,,,,,,,,,,,,,
,,,,,,00062,2023-10-11_18h25.10.834,vbt_B1_day2,2022.2.4,Win32,60.05645307,,,,,,,,,,,,,,,,,,,,,,,,,,,down,0,0.1753,,-0.157407407,-0.143518519,1,0,0,0.9991,0,134,134,135,1,gedicht,images/br_gedicht.png,images/cb_gedicht.png,0,,,,,,,,,,,,,,,,,,,,,,
,,,,,,00062,2023-10-11_18h25.10.834,vbt_B1_day2,2022.2.4,Win32,60.05645307,,,,,,,,,,,,,,,,,,,,,,,,,,,down,0,0.9714,,-0.157407407,-0.143518519,1,0,0,1.0171,0,135,135,144,1,eetlust,images/br_eetlust.png,images/cb_eetlust.png,0,,,,,,,,,,,,,,,,,,,,,,
,,,,,,00062,2023-10-11_18h25.10.834,vbt_B1_day2,2022.2.4,Win32,60.05645307,,,,,,,,,,,,,,,,,,,,,,,,,,,down,0,0.8412,,-0.157407407,-0.143518519,1,0,0,0.8514,0,136,136,100,1,geduld,images/br_geduld.png,images/cb_geduld.png,0,,,,,,,,,,,,,,,,,,,,,,
,,,,,,00062,2023-10-11_18h25.10.834,vbt_B1_day2,2022.2.4,Win32,60.05645307,,,,,,,,,,,,,,,,,,,,,,,,,,,down,0,0.5186,,-0.157407407,-0.143518519,1,0,0,0.9169,0,137,137,129,1,verhaal,images/br_verhaal.png,images/cb_verhaal.png,0,,,,,,,,,,,,,,,,,,,,,,
,,,,,,00062,2023-10-11_18h25.10.834,vbt_B1_day2,2022.2.4,Win32,60.05645307,,,,,,,,,,,,,,,,,,,,,,,,,,,down,0,0.7185,,-0.157407407,-0.143518519,1,0,0,0.7339,0,138,138,156,1,rechten,images/br_rechten.png,images/cb_rechten.png,0,,,,,,,,,,,,,,,,,,,,,,
,,,,,,00062,2023-10-11_18h25.10.834,vbt_B1_day2,2022.2.4,Win32,60.05645307,,,,,,,,,,,,,,,,,,,,,,,,,,,down,0,1.2091,,-0.157407407,-0.143518519,1,0,0,0.9341,0,139,139,116,1,besmet,images/br_besmet.png,images/cb_besmet.png,0,,,,,,,,,,,,,,,,,,,,,,
,,,,,,00062,2023-10-11_18h25.10.834,vbt_B1_day2,2022.2.4,Win32,60.05645307,,,,,,,,,,,,,,,,,,,,,,,,,,,down,0,1.0705,,-0.157407407,-0.143518519,1,0,0,6.0517,0,140,140,48,1,steel,images/br_steel.png,images/cb_steel.png,0,,,,,,,,,,,,,,,,,,,,,,
,,,,,,00062,2023-10-11_18h25.10.834,vbt_B1_day2,2022.2.4,Win32,60.05645307,,,,,,,,,,,,,,,,,,,,,,,,,,,down,0,0.4683,,-0.157407407,-0.143518519,1,0,0,0.8996,0,141,141,52,1,wagon,images/br_wagon.png,images/cb_wagon.png,0,,,,,,,,,,,,,,,,,,,,,,
,,,,,,00062,2023-10-11_18h25.10.834,vbt_B1_day2,2022.2.4,Win32,60.05645307,,,,,,,,,,,,,,,,,,,,,,,,,,,down,0,0.2046,,-0.157407407,-0.143518519,1,0,0,0.9003,0,142,142,162,1,uitdelen,images/br_uitdelen.png,images/cb_uitdelen.png,0,,,,,,,,,,,,,,,,,,,,,,
,,,,,,00062,2023-10-11_18h25.10.834,vbt_B1_day2,2022.2.4,Win32,60.05645307,,,,,,,,,,,,,,,,,,,,,,,,,,,down,0,1.221,,-0.157407407,-0.143518519,1,0,0,0.6501,0,143,143,89,1,slapen,images/br_slapen.png,images/cb_slapen.png,0,,,,,,,,,,,,,,,,,,,,,,
,,,,,,00062,2023-10-11_18h25.10.834,vbt_B1_day2,2022.2.4,Win32,60.05645307,,,,,,,,,,,,,,,,,,,,,,,,,,,down,0,0.3691,,-0.157407407,-0.143518519,1,0,0,1.0011,0,144,144,183,1,getuigen,images/br_getuigen.png,images/cb_getuigen.png,0,,,,,,,,,,,,,,,,,,,,,,
,,,,,,00062,2023-10-11_18h25.10.834,vbt_B1_day2,2022.2.4,Win32,60.05645307,,,,,,,,,,,,,,,,,,,,,,,,,,,down,0,7.0398,,-0.14907406,-0.151851866,1,0,0,1.2,0,145,145,58,1,tekst,images/br_tekst.png,images/cb_tekst.png,1,tikst,,,,,,,,,,,,,,,,,,,,,
,,,,,,00062,2023-10-11_18h25.10.834,vbt_B1_day2,2022.2.4,Win32,60.05645307,,,,,,,,,,,,,,,,,,,,,,,,,,,down,0,0.6064,,-0.14907406,-0.151851866,1,0,0,0.6328,0,146,146,11,1,mode,images/br_mode.png,images/cb_mode.png,0,,,,,,,,,,,,,,,,,,,,,,
,,,,,,00062,2023-10-11_18h25.10.834,vbt_B1_day2,2022.2.4,Win32,60.05645307,,,,,,,,,,,,,,,,,,,,,,,,,,,down,0,0.1679,,-0.14907406,-0.151851866,1,0,0,0.717,0,147,147,163,1,schuilen,images/br_schuilen.png,images/cb_schuilen.png,0,,,,,,,,,,,,,,,,,,,,,,
,,,,,,00062,2023-10-11_18h25.10.834,vbt_B1_day2,2022.2.4,Win32,60.05645307,,,,,,,,,,,,,,,,,,,,,,,,,,,down,0,0.0907,,-0.14907406,-0.151851866,1,0,0,1.0837,0,148,148,72,1,strak,images/br_strak.png,images/cb_strak.png,0,,,,,,,,,,,,,,,,,,,,,,
,,,,,,00062,2023-10-11_18h25.10.834,vbt_B1_day2,2022.2.4,Win32,60.05645307,,,,,,,,,,,,,,,,,,,,,,,,,,,down,0,2.9386,,-0.14907406,-0.151851866,1,0,0,0.6672,0,149,149,195,1,middelen,images/br_middelen.png,images/cb_middelen.png,0,,,,,,,,,,,,,,,,,,,,,,
,,,,,,00062,2023-10-11_18h25.10.834,vbt_B1_day2,2022.2.4,Win32,60.05645307,,,,,,,,,,,,,,,,,,,,,,,,,,,down,0,0.3602,,-0.14907406,-0.151851866,1,0,0,0.8335,0,150,150,172,1,weigeren,images/br_weigeren.png,images/cb_weigeren.png,0,,,,,,,,,,,,,,,,,,,,,,
,,,,,,00062,2023-10-11_18h25.10.834,vbt_B1_day2,2022.2.4,Win32,60.05645307,,,,,,,,,,,,,,,,,,,,,,,,,,,down,0,0.0399,,-0.14907406,-0.151851866,1,0,0,0.816,0,151,151,180,1,openbaar,images/br_openbaar.png,images/cb_openbaar.png,0,,,,,,,,,,,,,,,,,,,,,,
,,,,,,00062,2023-10-11_18h25.10.834,vbt_B1_day2,2022.2.4,Win32,60.05645307,,,,,,,,,,,,,,,,,,,,,,,,,,,down,0,0.0014,,-0.14907406,-0.151851866,1,0,0,0.8337,0,152,152,26,1,leuk,images/br_leuk.png,images/cb_leuk.png,0,,,,,,,,,,,,,,,,,,,,,,
,,,,,,00062,2023-10-11_18h25.10.834,vbt_B1_day2,2022.2.4,Win32,60.05645307,,,,,,,,,,,,,,,,,,,,,,,,,,,down,0,0.4188,,-0.14907406,-0.151851866,1,0,0,0.7497,0,153,153,114,1,vullen,images/br_vullen.png,images/cb_vullen.png,0,,,,,,,,,,,,,,,,,,,,,,
,,,,,,00062,2023-10-11_18h25.10.834,vbt_B1_day2,2022.2.4,Win32,60.05645307,,,,,,,,,,,,,,,,,,,,,,,,,,,down,0,0.4683,,-0.14907406,-0.151851866,1,0,0,0.9337,0,154,154,132,1,grappen,images/br_grappen.png,images/cb_grappen.png,0,,,,,,,,,,,,,,,,,,,,,,
,,,,,,00062,2023-10-11_18h25.10.834,vbt_B1_day2,2022.2.4,Win32,60.05645307,,,,,,,,,,,,,,,,,,,,,,,,,,,down,0,0.3601,,-0.14907406,-0.151851866,1,0,0,0.9497,0,155,155,6,1,diep,images/br_diep.png,images/cb_diep.png,0,,,,,,,,,,,,,,,,,,,,,,
,,,,,,00062,2023-10-11_18h25.10.834,vbt_B1_day2,2022.2.4,Win32,60.05645307,,,,,,,,,,,,,,,,,,,,,,,,,,,down,0,0.6858,,-0.14907406,-0.151851866,1,0,0,0.7668,0,156,156,187,1,opkijken,images/br_opkijken.png,images/cb_opkijken.png,0,,,,,,,,,,,,,,,,,,,,,,
,,,,,,00062,2023-10-11_18h25.10.834,vbt_B1_day2,2022.2.4,Win32,60.05645307,,,,,,,,,,,,,,,,,,,,,,,,,,,down,0,1.4688,,-0.14907406,-0.151851866,1,0,0,0.6662,0,157,157,13,1,kaal,images/br_kaal.png,images/cb_kaal.png,0,,,,,,,,,,,,,,,,,,,,,,
,,,,,,00062,2023-10-11_18h25.10.834,vbt_B1_day2,2022.2.4,Win32,60.05645307,,,,,,,,,,,,,,,,,,,,,,,,,,,down,0,1.819,,-0.14907406,-0.151851866,1,0,0,0.6833,0,158,158,199,1,beseffen,images/br_beseffen.png,images/cb_beseffen.png,0,,,,,,,,,,,,,,,,,,,,,,
,,,,,,00062,2023-10-11_18h25.10.834,vbt_B1_day2,2022.2.4,Win32,60.05645307,,,,,,,,,,,,,,,,,,,,,,,,,,,down,0,3.3557,,-0.14907406,-0.151851866,1,0,0,0.6671,0,159,159,56,1,traag,images/br_traag.png,images/cb_traag.png,1,traag,,,,,,,,,,,,,,,,,,,,,
,,,,,,00062,2023-10-11_18h25.10.834,vbt_B1_day2,2022.2.4,Win32,60.05645307,,,,,,,,,,,,,,,,,,,,,,,,,,,down,0,0.4578,,-0.14907406,-0.151851866,1,0,0,1.0505,0,160,160,30,1,uien,images/br_uien.png,images/cb_uien.png,0,,,,,,,,,,,,,,,,,,,,,,
,,,,,,00062,2023-10-11_18h25.10.834,vbt_B1_day2,2022.2.4,Win32,60.05645307,,,,,,,,,,,,,,,,,,,,,,,,,,,down,0,0.0183,,-0.14907406,-0.151851866,1,0,0,1.0836,0,161,161,148,1,smullen,images/br_smullen.png,images/cb_smullen.png,0,,,,,,,,,,,,,,,,,,,,,,
,,,,,,00062,2023-10-11_18h25.10.834,vbt_B1_day2,2022.2.4,Win32,60.05645307,,,,,,,,,,,,,,,,,,,,,,,,,,,down,0,1.6681,,-0.14907406,-0.151851866,1,0,0,0.8397,0,162,162,84,1,lokken,images/br_lokken.png,images/cb_lokken.png,0,,,,,,,,,,,,,,,,,,,,,,
,,,,,,00062,2023-10-11_18h25.10.834,vbt_B1_day2,2022.2.4,Win32,60.05645307,,,,,,,,,,,,,,,,,,,,,,,,,,,down,0,1.1698,,-0.14907406,-0.151851866,1,0,0,0.6839,0,163,163,122,1,waarvan,images/br_waarvan.png,images/cb_waarvan.png,0,,,,,,,,,,,,,,,,,,,,,,
,,,,,,00062,2023-10-11_18h25.10.834,vbt_B1_day2,2022.2.4,Win32,60.05645307,,,,,,,,,,,,,,,,,,,,,,,,,,,down,0,0.887,,-0.14907406,-0.151851866,1,0,0,0.6167,0,164,164,9,1,hier,images/br_hier.png,images/cb_hier.png,0,,,,,,,,,,,,,,,,,,,,,,
,,,,,,00062,2023-10-11_18h25.10.834,vbt_B1_day2,2022.2.4,Win32,60.05645307,,,,,,,,,,,,,,,,,,,,,,,,,,,down,0,0.1734,,-0.14907406,-0.151851866,1,0,0,0.6835,0,165,165,109,1,totaal,images/br_totaal.png,images/cb_totaal.png,0,,,,,,,,,,,,,,,,,,,,,,
,,,,,,00062,2023-10-11_18h25.10.834,vbt_B1_day2,2022.2.4,Win32,60.05645307,,,,,,,,,,,,,,,,,,,,,,,,,,,down,0,0.5547,,-0.14907406,-0.151851866,1,0,0,0.6168,0,166,166,184,1,aandelen,images/br_aandelen.png,images/cb_aandelen.png,0,,,,,,,,,,,,,,,,,,,,,,
,,,,,,00062,2023-10-11_18h25.10.834,vbt_B1_day2,2022.2.4,Win32,60.05645307,,,,,,,,,,,,,,,,,,,,,,,,,,,down,0,1.4856,,-0.14907406,-0.151851866,1,0,0,0.584,0,167,167,45,1,piste,images/br_piste.png,images/cb_piste.png,0,,,,,,,,,,,,,,,,,,,,,,
,,,,,,00062,2023-10-11_18h25.10.834,vbt_B1_day2,2022.2.4,Win32,60.05645307,,,,,,,,,,,,,,,,,,,,,,,,,,,down,0,1.8098,,-0.14907406,-0.151851866,1,0,0,0.7838,0,168,168,34,1,vorm,images/br_vorm.png,images/cb_vorm.png,0,,,,,,,,,,,,,,,,,,,,,,
,,,,,,00062,2023-10-11_18h25.10.834,vbt_B1_day2,2022.2.4,Win32,60.05645307,,,,,,,,,,,,,,,,,,,,,,,,,,,down,0,1.1203,,-0.14907406,-0.151851866,1,0,0,0.7497,0,169,169,95,1,vreten,images/br_vreten.png,images/cb_vreten.png,0,,,,,,,,,,,,,,,,,,,,,,
,,,,,,00062,2023-10-11_18h25.10.834,vbt_B1_day2,2022.2.4,Win32,60.05645307,,,,,,,,,,,,,,,,,,,,,,,,,,,down,0,2.9691,,-0.14907406,-0.151851866,1,0,0,3.3507,0,170,170,142,1,snuiven,images/br_snuiven.png,images/cb_snuiven.png,0,,,,,,,,,,,,,,,,,,,,,,
,,,,,,00062,2023-10-11_18h25.10.834,vbt_B1_day2,2022.2.4,Win32,60.05645307,,,,,,,,,,,,,,,,,,,,,,,,,,,down,0,0.144,,-0.14907406,-0.151851866,1,0,0,1.1512,0,171,171,108,1,excuus,images/br_excuus.png,images/cb_excuus.png,0,,,,,,,,,,,,,,,,,,,,,,
,,,,,,00062,2023-10-11_18h25.10.834,vbt_B1_day2,2022.2.4,Win32,60.05645307,,,,,,,,,,,,,,,,,,,,,,,,,,,down,0,0.9012,,-0.14907406,-0.151851866,1,0,0,0.9339,0,172,172,168,1,bisschop,images/br_bisschop.png,images/cb_bisschop.png,0,,,,,,,,,,,,,,,,,,,,,,
,,,,,,00062,2023-10-11_18h25.10.834,vbt_B1_day2,2022.2.4,Win32,60.05645307,,,,,,,,,,,,,,,,,,,,,,,,,,,down,0,1.5235,,-0.14907406,-0.151851866,1,0,0,1.0174,0,173,173,130,1,keihard,images/br_keihard.png,images/cb_keihard.png,0,,,,,,,,,,,,,,,,,,,,,,
,,,,,,00062,2023-10-11_18h25.10.834,vbt_B1_day2,2022.2.4,Win32,60.05645307,,,,,,,,,,,,,,,,,,,,,,,,,,,down,0,0.5587,,-0.14907406,-0.151851866,1,0,0,1.8006,0,174,174,170,1,schatten,images/br_schatten.png,images/cb_schatten.png,0,,,,,,,,,,,,,,,,,,,,,,
,,,,,,00062,2023-10-11_18h25.10.834,vbt_B1_day2,2022.2.4,Win32,60.05645307,,,,,,,,,,,,,,,,,,,,,,,,,,,down,0,1.0393,,-0.14907406,-0.151851866,1,0,0,0.9671,0,175,175,105,1,wijlen,images/br_wijlen.png,images/cb_wijlen.png,0,,,,,,,,,,,,,,,,,,,,,,
,,,,,,00062,2023-10-11_18h25.10.834,vbt_B1_day2,2022.2.4,Win32,60.05645307,,,,,,,,,,,,,,,,,,,,,,,,,,,down,0,1.0204,,-0.14907406,-0.151851866,1,0,0,0.8004,0,176,176,37,1,mijn,images/br_mijn.png,images/cb_mijn.png,0,,,,,,,,,,,,,,,,,,,,,,
,,,,,,00062,2023-10-11_18h25.10.834,vbt_B1_day2,2022.2.4,Win32,60.05645307,,,,,,,,,,,,,,,,,,,,,,,,,,,down,0,0.8271,,-0.14907406,-0.151851866,1,0,0,0.967,0,177,177,151,1,aanzoek,images/br_aanzoek.png,images/cb_aanzoek.png,0,,,,,,,,,,,,,,,,,,,,,,
,,,,,,00062,2023-10-11_18h25.10.834,vbt_B1_day2,2022.2.4,Win32,60.05645307,,,,,,,,,,,,,,,,,,,,,,,,,,,down,0,14.6076,,-0.14907406,-0.151851866,1,0,0,0.5327,0,178,178,98,1,kreeft,images/br_kreeft.png,images/cb_kreeft.png,1,kreeft,,,,,,,,,,,,,,,,,,,,,
,,,,,,00062,2023-10-11_18h25.10.834,vbt_B1_day2,2022.2.4,Win32,60.05645307,,,,,,,,,,,,,,,,,,,,,,,,,,,down,0,0.3752,,-0.14907406,-0.151851866,1,0,0,0.8168,0,179,179,29,1,baas,images/br_baas.png,images/cb_baas.png,0,,,,,,,,,,,,,,,,,,,,,,
,,,,,,00062,2023-10-11_18h25.10.834,vbt_B1_day2,2022.2.4,Win32,60.05645307,,,,,,,,,,,,,,,,,,,,,,,,,,,down,0,0.4351,,-0.14907406,-0.151851866,1,0,0,0.6015,0,180,180,158,1,innemen,images/br_innemen.png,images/cb_innemen.png,0,,,,,,,,,,,,,,,,,,,,,,
,,,,,,00062,2023-10-11_18h25.10.834,vbt_B1_day2,2022.2.4,Win32,60.05645307,,,,,,,,,,,,,,,,,,,,,,,,,,,down,0,0.2587,,-0.14907406,-0.151851866,1,0,0,0.8505,0,181,181,61,1,groen,images/br_groen.png,images/cb_groen.png,0,,,,,,,,,,,,,,,,,,,,,,
,,,,,,00062,2023-10-11_18h25.10.834,vbt_B1_day2,2022.2.4,Win32,60.05645307,,,,,,,,,,,,,,,,,,,,,,,,,,,down,0,0.6592,,-0.14907406,-0.151851866,1,0,0,0.5512,0,182,182,83,1,mening,images/br_mening.png,images/cb_mening.png,0,,,,,,,,,,,,,,,,,,,,,,
,,,,,,00062,2023-10-11_18h25.10.834,vbt_B1_day2,2022.2.4,Win32,60.05645307,,,,,,,,,,,,,,,,,,,,,,,,,,,down,0,26.079,,-0.14907406,-0.151851866,1,0,0,0.4669,0,183,183,59,1,kring,images/br_kring.png,images/cb_kring.png,1,kring,,,,,,,,,,,,,,,,,,,,,
,,,,,,00062,2023-10-11_18h25.10.834,vbt_B1_day2,2022.2.4,Win32,60.05645307,,,,,,,,,,,,,,,,,,,,,,,,,,,down,0,6.9194,,-0.14907406,-0.150925954,1,0,0,0.4994,0,184,184,57,1,steek,images/br_steek.png,images/cb_steek.png,1,steek,,,,,,,,,,,,,,,,,,,,,
,,,,,,00062,2023-10-11_18h25.10.834,vbt_B1_day2,2022.2.4,Win32,60.05645307,,,,,,,,,,,,,,,,,,,,,,,,,,,down,0,0.7347,,-0.14907406,-0.150925954,1,0,0,0.6665,0,185,185,64,1,wegen,images/br_wegen.png,images/cb_wegen.png,0,,,,,,,,,,,,,,,,,,,,,,
,,,,,,00062,2023-10-11_18h25.10.834,vbt_B1_day2,2022.2.4,Win32,60.05645307,,,,,,,,,,,,,,,,,,,,,,,,,,,down,0,1.6032,,-0.14907406,-0.150925954,1,0,0,0.8343,0,186,186,3,1,mand,images/br_mand.png,images/cb_mand.png,0,,,,,,,,,,,,,,,,,,,,,,
,,,,,,00062,2023-10-11_18h25.10.834,vbt_B1_day2,2022.2.4,Win32,60.05645307,,,,,,,,,,,,,,,,,,,,,,,,,,,down,0,0.8355,,-0.14907406,-0.150925954,1,0,0,2.5346,0,187,187,80,1,kanjer,images/br_kanjer.png,images/cb_kanjer.png,0,,,,,,,,,,,,,,,,,,,,,,
,,,,,,00062,2023-10-11_18h25.10.834,vbt_B1_day2,2022.2.4,Win32,60.05645307,,,,,,,,,,,,,,,,,,,,,,,,,,,down,0,2.3693,,-0.14907406,-0.150925954,1,0,0,0.8835,0,188,188,4,1,moes,images/br_moes.png,images/cb_moes.png,0,,,,,,,,,,,,,,,,,,,,,,
,,,,,,00062,2023-10-11_18h25.10.834,vbt_B1_day2,2022.2.4,Win32,60.05645307,,,,,,,,,,,,,,,,,,,,,,,,,,,down,0,2.5233,,-0.14907406,-0.150925954,1,0,0,1.7001,0,189,189,102,1,legaal,images/br_legaal.png,images/cb_legaal.png,0,,,,,,,,,,,,,,,,,,,,,,
,,,,,,00062,2023-10-11_18h25.10.834,vbt_B1_day2,2022.2.4,Win32,60.05645307,,,,,,,,,,,,,,,,,,,,,,,,,,,down,0,0.8525,,-0.14907406,-0.150925954,1,0,0,1.8008,0,190,190,190,1,goedkoop,images/br_goedkoop.png,images/cb_goedkoop.png,0,,,,,,,,,,,,,,,,,,,,,,
,,,,,,00062,2023-10-11_18h25.10.834,vbt_B1_day2,2022.2.4,Win32,60.05645307,,,,,,,,,,,,,,,,,,,,,,,,,,,down,0,2.9056,,-0.14907406,-0.150925954,1,0,0,0.6668,0,191,191,117,1,kennis,images/br_kennis.png,images/cb_kennis.png,0,,,,,,,,,,,,,,,,,,,,,,
,,,,,,00062,2023-10-11_18h25.10.834,vbt_B1_day2,2022.2.4,Win32,60.05645307,,,,,,,,,,,,,,,,,,,,,,,,,,,down,0,0.3179,,-0.14907406,-0.150925954,1,0,0,0.807,0,192,192,78,1,leren,images/br_leren.png,images/cb_leren.png,0,,,,,,,,,,,,,,,,,,,,,,
,,,,,,00062,2023-10-11_18h25.10.834,vbt_B1_day2,2022.2.4,Win32,60.05645307,,,,,,,,,,,,,,,,,,,,,,,,,,,down,0,23.9102,,-0.14907406,-0.150925954,1,0,0,0.6175,0,193,193,178,1,huisdier,images/br_huisdier.png,images/cb_huisdier.png,1,huisdier,,,,,,,,,,,,,,,,,,,,,
,,,,,,00062,2023-10-11_18h25.10.834,vbt_B1_day2,2022.2.4,Win32,60.05645307,,,,,,,,,,,,,,,,,,,,,,,,,,,down,0,2.7369,,-0.14907406,-0.150925954,1,0,0,0.7502,0,194,194,150,1,gegeven,images/br_gegeven.png,images/cb_gegeven.png,0,,,,,,,,,,,,,,,,,,,,,,
,,,,,,00062,2023-10-11_18h25.10.834,vbt_B1_day2,2022.2.4,Win32,60.05645307,,,,,,,,,,,,,,,,,,,,,,,,,,,down,0,0.2985,,-0.14907406,-0.150925954,1,0,0,0.6346,0,195,195,103,1,joggen,images/br_joggen.png,images/cb_joggen.png,0,,,,,,,,,,,,,,,,,,,,,,
,,,,,,00062,2023-10-11_18h25.10.834,vbt_B1_day2,2022.2.4,Win32,60.05645307,,,,,,,,,,,,,,,,,,,,,,,,,,,down,0,0.4376,,-0.14907406,-0.150925954,1,0,0,0.5666,0,196,196,68,1,schat,images/br_schat.png,images/cb_schat.png,0,,,,,,,,,,,,,,,,,,,,,,
,,,,,,00062,2023-10-11_18h25.10.834,vbt_B1_day2,2022.2.4,Win32,60.05645307,,,,,,,,,,,,,,,,,,,,,,,,,,,down,0,14.8925,,-0.14907406,-0.150925954,1,0,0,0.5333,0,197,197,176,1,techniek,images/br_techniek.png,images/cb_techniek.png,1,techniek,,,,,,,,,,,,,,,,,,,,,
,,,,,,00062,2023-10-11_18h25.10.834,vbt_B1_day2,2022.2.4,Win32,60.05645307,,,,,,,,,,,,,,,,,,,,,,,,,,,down,0,0.3088,,-0.14907406,-0.150925954,1,0,0,0.5835,0,198,198,32,1,palm,images/br_palm.png,images/cb_palm.png,0,,,,,,,,,,,,,,,,,,,,,,
,,,,,,00062,2023-10-11_18h25.10.834,vbt_B1_day2,2022.2.4,Win32,60.05645307,,,,,,,,,,,,,,,,,,,,,,,,,,,down,0,0.0752,,-0.14907406,-0.150925954,1,0,0,0.5333,0,199,199,51,1,samen,images/br_samen.png,images/cb_samen.png,0,,,,,,,,,,,,,,,,,,,,,,
,,,,,,00062,2023-10-11_18h25.10.834,vbt_B1_day2,2022.2.4,Win32,60.05645307,,,,,,,,,,,,,,,,,,,,,,,,,,,,,,,,,,,,,,,,,,,,,,,-0.14907406,-0.150925954,1,0,0,,,,,,,,,,,,,,,,
,,,,,,00062,2023-10-11_18h25.10.834,vbt_B1_day2,2022.2.4,Win32,60.05645307,,,,,,,,,,,,,,,,,,,,,,,,,,,,,,,,,,,,,,,,,,,,,,,,,,,,-0.14907406,-0.150925954,1,0,0,,,,,,,,,,,
,,,,,,00062,2023-10-11_18h25.10.834,vbt_B1_day2,2022.2.4,Win32,60.05645307,,,,,,,,,,,,,,,,,,,,,,,,,,,,,,,,,,,,,,,,,,doodmoe,images/br_doodmoe.png,images/cb_doodmoe.png,,doodfol,,,,,,,,,,,-0.14907406,-0.150925954,1,0,0,doodfol,0,0,0,15,1
,,,,,,00062,2023-10-11_18h25.10.834,vbt_B1_day2,2022.2.4,Win32,60.05645307,,,,,,,,,,,,,,,,,,,,,,,,,,,,,,,,,,,,,,,,,,aanvraag,images/br_aanvraag.png,images/cb_aanvraag.png,,aanvraag,,,,,,,,,,,-0.14907406,-0.150925954,1,0,0,aanvraag,0,1,1,57,1
,,,,,,00062,2023-10-11_18h25.10.834,vbt_B1_day2,2022.2.4,Win32,60.05645307,,,,,,,,,,,,,,,,,,,,,,,,,,,,,,,,,,,,,,,,,,negel,images/br_negel.png,images/cb_negel.png,,negel,,,,,,,,,,,-0.14907406,-0.150925954,1,0,0,negel,0,2,2,24,1
,,,,,,00062,2023-10-11_18h25.10.834,vbt_B1_day2,2022.2.4,Win32,60.05645307,,,,,,,,,,,,,,,,,,,,,,,,,,,,,,,,,,,,,,,,,,zwager,images/br_zwager.png,images/cb_zwager.png,,zwager,,,,,,,,,,,-0.14907406,-0.150925954,1,0,0,zwager,0,3,3,49,1
,,,,,,00062,2023-10-11_18h25.10.834,vbt_B1_day2,2022.2.4,Win32,60.05645307,,,,,,,,,,,,,,,,,,,,,,,,,,,,,,,,,,,,,,,,,,badon,images/br_badon.png,images/cb_badon.png,,irdon,,,,,,,,,,,-0.093518504,-0.154629672,1,0,0,irdon,0,4,4,26,1
,,,,,,00062,2023-10-11_18h25.10.834,vbt_B1_day2,2022.2.4,Win32,60.05645307,,,,,,,,,,,,,,,,,,,,,,,,,,,,,,,,,,,,,,,,,,kenzis,images/br_kenzis.png,images/cb_kenzis.png,,kenzis,,,,,,,,,,,-0.093518504,-0.154629672,1,0,0,kenzis,0,5,5,30,1
,,,,,,00062,2023-10-11_18h25.10.834,vbt_B1_day2,2022.2.4,Win32,60.05645307,,,,,,,,,,,,,,,,,,,,,,,,,,,,,,,,,,,,,,,,,,sifferd,images/br_sifferd.png,images/cb_sifferd.png,,sifferd,,,,,,,,,,,-0.041666667,-0.150925954,1,0,0,sifferd,0,6,6,32,1
,,,,,,00062,2023-10-11_18h25.10.834,vbt_B1_day2,2022.2.4,Win32,60.05645307,,,,,,,,,,,,,,,,,,,,,,,,,,,,,,,,,,,,,,,,,,plannen,images/br_plannen.png,images/cb_plannen.png,,plannen,,,,,,,,,,,-0.041666667,-0.150925954,1,0,0,plannen,0,7,7,55,1
,,,,,,00062,2023-10-11_18h25.10.834,vbt_B1_day2,2022.2.4,Win32,60.05645307,,,,,,,,,,,,,,,,,,,,,,,,,,,,,,,,,,,,,,,,,,thema,images/br_thema.png,images/cb_thema.png,,thema,,,,,,,,,,,-0.041666667,-0.150925954,1,0,0,thema,0,8,8,47,1
,,,,,,00062,2023-10-11_18h25.10.834,vbt_B1_day2,2022.2.4,Win32,60.05645307,,,,,,,,,,,,,,,,,,,,,,,,,,,,,,,,,,,,,,,,,,prekken,images/br_prekken.png,images/cb_prekken.png,,frekken,,,,,,,,,,,-0.041666667,-0.150925954,1,0,0,frekken,0,9,9,34,1
,,,,,,00062,2023-10-11_18h25.10.834,vbt_B1_day2,2022.2.4,Win32,60.05645307,,,,,,,,,,,,,,,,,,,,,,,,,,,,,,,,,,,,,,,,,,koorts,images/br_koorts.png,images/cb_koorts.png,,koorts,,,,,,,,,,,-0.041666667,-0.150925954,1,0,0,koorts,0,10,10,50,1
,,,,,,00062,2023-10-11_18h25.10.834,vbt_B1_day2,2022.2.4,Win32,60.05645307,,,,,,,,,,,,,,,,,,,,,,,,,,,,,,,,,,,,,,,,,,bloeien,images/br_bloeien.png,images/cb_bloeien.png,,bloeien,,,,,,,,,,,-0.041666667,-0.150925954,1,0,0,bloeien,0,11,11,12,1
,,,,,,00062,2023-10-11_18h25.10.834,vbt_B1_day2,2022.2.4,Win32,60.05645307,,,,,,,,,,,,,,,,,,,,,,,,,,,,,,,,,,,,,,,,,,ophuimen,images/br_ophuimen.png,images/cb_ophuimen.png,,ophuzen,,,,,,,,,,,-0.041666667,-0.150925954,1,0,0,ophuzen,0,12,12,36,1
,,,,,,00062,2023-10-11_18h25.10.834,vbt_B1_day2,2022.2.4,Win32,60.05645307,,,,,,,,,,,,,,,,,,,,,,,,,,,,,,,,,,,,,,,,,,lokken,images/br_lokken.png,images/cb_lokken.png,,lokken,,,,,,,,,,,-0.041666667,-0.150925954,1,0,0,lokken,0,13,13,8,1
,,,,,,00062,2023-10-11_18h25.10.834,vbt_B1_day2,2022.2.4,Win32,60.05645307,,,,,,,,,,,,,,,,,,,,,,,,,,,,,,,,,,,,,,,,,,joes,images/br_joes.png,images/cb_joes.png,,joes,,,,,,,,,,,-0.041666667,-0.150925954,1,0,0,joes,0,14,14,20,1
,,,,,,00062,2023-10-11_18h25.10.834,vbt_B1_day2,2022.2.4,Win32,60.05645307,,,,,,,,,,,,,,,,,,,,,,,,,,,,,,,,,,,,,,,,,,clan,images/br_clan.png,images/cb_clan.png,,clan,,,,,,,,,,,-0.041666667,-0.150925954,1,0,0,clan,0,15,15,40,1
,,,,,,00062,2023-10-11_18h25.10.834,vbt_B1_day2,2022.2.4,Win32,60.05645307,,,,,,,,,,,,,,,,,,,,,,,,,,,,,,,,,,,,,,,,,,opdatten,images/br_opdatten.png,images/cb_opdatten.png,,opdatten,,,,,,,,,,,-0.041666667,-0.150925954,1,0,0,opdatten,0,16,16,37,1
,,,,,,00062,2023-10-11_18h25.10.834,vbt_B1_day2,2022.2.4,Win32,60.05645307,,,,,,,,,,,,,,,,,,,,,,,,,,,,,,,,,,,,,,,,,,zomers,images/br_zomers.png,images/cb_zomers.png,,zomer,,,,,,,,,,,-0.041666667,-0.150925954,1,0,0,zomer,0,17,17,48,1
,,,,,,00062,2023-10-11_18h25.10.834,vbt_B1_day2,2022.2.4,Win32,60.05645307,,,,,,,,,,,,,,,,,,,,,,,,,,,,,,,,,,,,,,,,,,breuk,images/br_breuk.png,images/cb_breuk.png,,breuk,,,,,,,,,,,-0.041666667,-0.150925954,1,0,0,breuk,0,18,18,45,1
,,,,,,00062,2023-10-11_18h25.10.834,vbt_B1_day2,2022.2.4,Win32,60.05645307,,,,,,,,,,,,,,,,,,,,,,,,,,,,,,,,,,,,,,,,,,sjijfel,images/br_sjijfel.png,images/cb_sjijfel.png,,sjieken,,,,,,,,,,,-0.041666667,-0.150925954,1,0,0,sjieken,0,19,19,33,1
,,,,,,00062,2023-10-11_18h25.10.834,vbt_B1_day2,2022.2.4,Win32,60.05645307,,,,,,,,,,,,,,,,,,,,,,,,,,,,,,,,,,,,,,,,,,tweeling,images/br_tweeling.png,images/cb_tweeling.png,,tweeling,,,,,,,,,,,-0.041666667,-0.150925954,1,0,0,tweeling,0,20,20,58,1
,,,,,,00062,2023-10-11_18h25.10.834,vbt_B1_day2,2022.2.4,Win32,60.05645307,,,,,,,,,,,,,,,,,,,,,,,,,,,,,,,,,,,,,,,,,,tand,images/br_tand.png,images/cb_tand.png,,tang,,,,,,,,,,,-0.041666667,-0.150925954,1,0,0,tang,0,21,21,42,1
,,,,,,00062,2023-10-11_18h25.10.834,vbt_B1_day2,2022.2.4,Win32,60.05645307,,,,,,,,,,,,,,,,,,,,,,,,,,,,,,,,,,,,,,,,,,ningen,images/br_ningen.png,images/cb_ningen.png,,ningig,,,,,,,,,,,-0.041666667,-0.150925954,1,0,0,ningig,0,22,22,28,1
,,,,,,00062,2023-10-11_18h25.10.834,vbt_B1_day2,2022.2.4,Win32,60.05645307,,,,,,,,,,,,,,,,,,,,,,,,,,,,,,,,,,,,,,,,,,anarchie,images/br_anarchie.png,images/cb_anarchie.png,,anatchie,,,,,,,,,,,-0.041666667,-0.150925954,1,0,0,anatchie,0,23,23,16,1
,,,,,,00062,2023-10-11_18h25.10.834,vbt_B1_day2,2022.2.4,Win32,60.05645307,,,,,,,,,,,,,,,,,,,,,,,,,,,,,,,,,,,,,,,,,,eenhoorn,images/br_eenhoorn.png,images/cb_eenhoorn.png,,eenhoorn,,,,,,,,,,,-0.041666667,-0.150925954,1,0,0,eenhoorn,0,24,24,19,1
,,,,,,00062,2023-10-11_18h25.10.834,vbt_B1_day2,2022.2.4,Win32,60.05645307,,,,,,,,,,,,,,,,,,,,,,,,,,,,,,,,,,,,,,,,,,blad,images/br_blad.png,images/cb_blad.png,,blad,,,,,,,,,,,-0.041666667,-0.150925954,1,0,0,blad,0,25,25,1,1
,,,,,,00062,2023-10-11_18h25.10.834,vbt_B1_day2,2022.2.4,Win32,60.05645307,,,,,,,,,,,,,,,,,,,,,,,,,,,,,,,,,,,,,,,,,,heilig,images/br_heilig.png,images/cb_heilig.png,,deilig,,,,,,,,,,,-0.041666667,-0.150925954,1,0,0,deilig,0,26,26,9,1
,,,,,,00062,2023-10-11_18h25.10.834,vbt_B1_day2,2022.2.4,Win32,60.05645307,,,,,,,,,,,,,,,,,,,,,,,,,,,,,,,,,,,,,,,,,,zegel,images/br_zegel.png,images/cb_zegel.png,,zegel,,,,,,,,,,,-0.041666667,-0.150925954,1,0,0,zegel,0,27,27,46,1
,,,,,,00062,2023-10-11_18h25.10.834,vbt_B1_day2,2022.2.4,Win32,60.05645307,,,,,,,,,,,,,,,,,,,,,,,,,,,,,,,,,,,,,,,,,,toeval,images/br_toeval.png,images/cb_toeval.png,,tolval,,,,,,,,,,,-0.041666667,-0.150925954,1,0,0,tolval,0,28,28,11,1
,,,,,,00062,2023-10-11_18h25.10.834,vbt_B1_day2,2022.2.4,Win32,60.05645307,,,,,,,,,,,,,,,,,,,,,,,,,,,,,,,,,,,,,,,,,,kijlen,images/br_kijlen.png,images/cb_kijlen.png,,kijlen,,,,,,,,,,,-0.041666667,-0.150925954,1,0,0,kijlen,0,29,29,31,1
,,,,,,00062,2023-10-11_18h25.10.834,vbt_B1_day2,2022.2.4,Win32,60.05645307,,,,,,,,,,,,,,,,,,,,,,,,,,,,,,,,,,,,,,,,,,stes,images/br_stes.png,images/cb_stes.png,,,,,,,,,,,,,-0.041666667,-0.150925954,1,0,0,,0,30,30,21,1
,,,,,,00062,2023-10-11_18h25.10.834,vbt_B1_day2,2022.2.4,Win32,60.05645307,,,,,,,,,,,,,,,,,,,,,,,,,,,,,,,,,,,,,,,,,,trots,images/br_trots.png,images/cb_trots.png,,.,,,,,,,,,,,-0.045370384,-0.150000042,1,0,0,.,0,31,31,44,1
,,,,,,00062,2023-10-11_18h25.10.834,vbt_B1_day2,2022.2.4,Win32,60.05645307,,,,,,,,,,,,,,,,,,,,,,,,,,,,,,,,,,,,,,,,,,bereuwen,images/br_bereuwen.png,images/cb_bereuwen.png,,bereuwen,,,,,,,,,,,-0.045370384,-0.150000042,1,0,0,bereuwen,0,32,32,39,1
,,,,,,00062,2023-10-11_18h25.10.834,vbt_B1_day2,2022.2.4,Win32,60.05645307,,,,,,,,,,,,,,,,,,,,,,,,,,,,,,,,,,,,,,,,,,flits,images/br_flits.png,images/cb_flits.png,,flits,,,,,,,,,,,-0.045370384,-0.150000042,1,0,0,flits,0,33,33,4,1
,,,,,,00062,2023-10-11_18h25.10.834,vbt_B1_day2,2022.2.4,Win32,60.05645307,,,,,,,,,,,,,,,,,,,,,,,,,,,,,,,,,,,,,,,,,,remel,images/br_remel.png,images/cb_remel.png,,remel,,,,,,,,,,,-0.045370384,-0.150000042,1,0,0,remel,0,34,34,25,1
,,,,,,00062,2023-10-11_18h25.10.834,vbt_B1_day2,2022.2.4,Win32,60.05645307,,,,,,,,,,,,,,,,,,,,,,,,,,,,,,,,,,,,,,,,,,wijve,images/br_wijve.png,images/cb_wijve.png,,wijde,,,,,,,,,,,-0.045370384,-0.150000042,1,0,0,wijde,0,35,35,27,1
,,,,,,00062,2023-10-11_18h25.10.834,vbt_B1_day2,2022.2.4,Win32,60.05645307,,,,,,,,,,,,,,,,,,,,,,,,,,,,,,,,,,,,,,,,,,diep,images/br_diep.png,images/cb_diep.png,,diep,,,,,,,,,,,-0.045370384,-0.150000042,1,0,0,diep,0,36,36,2,1
,,,,,,00062,2023-10-11_18h25.10.834,vbt_B1_day2,2022.2.4,Win32,60.05645307,,,,,,,,,,,,,,,,,,,,,,,,,,,,,,,,,,,,,,,,,,systeem,images/br_systeem.png,images/cb_systeem.png,,systeem,,,,,,,,,,,-0.045370384,-0.150000042,1,0,0,systeem,0,37,37,54,1
,,,,,,00062,2023-10-11_18h25.10.834,vbt_B1_day2,2022.2.4,Win32,60.05645307,,,,,,,,,,,,,,,,,,,,,,,,,,,,,,,,,,,,,,,,,,heengeen,images/br_heengeen.png,images/cb_heengeen.png,,heengeen,,,,,,,,,,,-0.045370384,-0.150000042,1,0,0,heengeen,0,38,38,38,1
,,,,,,00062,2023-10-11_18h25.10.834,vbt_B1_day2,2022.2.4,Win32,60.05645307,,,,,,,,,,,,,,,,,,,,,,,,,,,,,,,,,,,,,,,,,,geld,images/br_geld.png,images/cb_geld.png,,geld,,,,,,,,,,,-0.045370384,-0.150000042,1,0,0,geld,0,39,39,3,1
,,,,,,00062,2023-10-11_18h25.10.834,vbt_B1_day2,2022.2.4,Win32,60.05645307,,,,,,,,,,,,,,,,,,,,,,,,,,,,,,,,,,,,,,,,,,krimmen,images/br_krimmen.png,images/cb_krimmen.png,,krinnen,,,,,,,,,,,-0.045370384,-0.150000042,1,0,0,krinnen,0,40,40,35,1
,,,,,,00062,2023-10-11_18h25.10.834,vbt_B1_day2,2022.2.4,Win32,60.05645307,,,,,,,,,,,,,,,,,,,,,,,,,,,,,,,,,,,,,,,,,,piste,images/br_piste.png,images/cb_piste.png,,piste,,,,,,,,,,,-0.045370384,-0.150000042,1,0,0,piste,0,41,41,5,1
,,,,,,00062,2023-10-11_18h25.10.834,vbt_B1_day2,2022.2.4,Win32,60.05645307,,,,,,,,,,,,,,,,,,,,,,,,,,,,,,,,,,,,,,,,,,sora,images/br_sora.png,images/cb_sora.png,,sora,,,,,,,,,,,-0.045370384,-0.150000042,1,0,0,sora,0,42,42,22,1
,,,,,,00062,2023-10-11_18h25.10.834,vbt_B1_day2,2022.2.4,Win32,60.05645307,,,,,,,,,,,,,,,,,,,,,,,,,,,,,,,,,,,,,,,,,,goon,images/br_goon.png,images/cb_goon.png,,goon,,,,,,,,,,,-0.045370384,-0.150000042,1,0,0,goon,0,43,43,23,1
,,,,,,00062,2023-10-11_18h25.10.834,vbt_B1_day2,2022.2.4,Win32,60.05645307,,,,,,,,,,,,,,,,,,,,,,,,,,,,,,,,,,,,,,,,,,feestdag,images/br_feestdag.png,images/cb_feestdag.png,,feestetg,,,,,,,,,,,-0.045370384,-0.150000042,1,0,0,feestetg,0,44,44,17,1
,,,,,,00062,2023-10-11_18h25.10.834,vbt_B1_day2,2022.2.4,Win32,60.05645307,,,,,,,,,,,,,,,,,,,,,,,,,,,,,,,,,,,,,,,,,,kasteel,images/br_kasteel.png,images/cb_kasteel.png,,kasteel,,,,,,,,,,,-0.045370384,-0.150000042,1,0,0,kasteel,0,45,45,14,1
,,,,,,00062,2023-10-11_18h25.10.834,vbt_B1_day2,2022.2.4,Win32,60.05645307,,,,,,,,,,,,,,,,,,,,,,,,,,,,,,,,,,,,,,,,,,woning,images/br_woning.png,images/cb_woning.png,,woning,,,,,,,,,,,-0.045370384,-0.150000042,1,0,0,woning,0,46,46,10,1
,,,,,,00062,2023-10-11_18h25.10.834,vbt_B1_day2,2022.2.4,Win32,60.05645307,,,,,,,,,,,,,,,,,,,,,,,,,,,,,,,,,,,,,,,,,,jagen,images/br_jagen.png,images/cb_jagen.png,,jagen,,,,,,,,,,,-0.045370384,-0.150000042,1,0,0,jagen,0,47,47,6,1
,,,,,,00062,2023-10-11_18h25.10.834,vbt_B1_day2,2022.2.4,Win32,60.05645307,,,,,,,,,,,,,,,,,,,,,,,,,,,,,,,,,,,,,,,,,,kabel,images/br_kabel.png,images/cb_kabel.png,,kabel,,,,,,,,,,,-0.045370384,-0.150000042,1,0,0,kabel,0,48,48,7,1
,,,,,,00062,2023-10-11_18h25.10.834,vbt_B1_day2,2022.2.4,Win32,60.05645307,,,,,,,,,,,,,,,,,,,,,,,,,,,,,,,,,,,,,,,,,,moes,images/br_moes.png,images/cb_moes.png,,mois,,,,,,,,,,,-0.045370384,-0.150000042,1,0,0,mois,0,49,49,0,1
,,,,,,00062,2023-10-11_18h25.10.834,vbt_B1_day2,2022.2.4,Win32,60.05645307,,,,,,,,,,,,,,,,,,,,,,,,,,,,,,,,,,,,,,,,,,dode,images/br_dode.png,images/cb_dode.png,,dode,,,,,,,,,,,-0.045370384,-0.150000042,1,0,0,dode,0,50,50,41,1
,,,,,,00062,2023-10-11_18h25.10.834,vbt_B1_day2,2022.2.4,Win32,60.05645307,,,,,,,,,,,,,,,,,,,,,,,,,,,,,,,,,,,,,,,,,,welzijn,images/br_welzijn.png,images/cb_welzijn.png,,welzejn,,,,,,,,,,,-0.045370384,-0.150000042,1,0,0,welzejn,0,51,51,52,1
,,,,,,00062,2023-10-11_18h25.10.834,vbt_B1_day2,2022.2.4,Win32,60.05645307,,,,,,,,,,,,,,,,,,,,,,,,,,,,,,,,,,,,,,,,,,manieren,images/br_manieren.png,images/cb_manieren.png,,,,,,,,,,,,,-0.045370384,-0.150000042,1,0,0,,0,52,52,56,1
,,,,,,00062,2023-10-11_18h25.10.834,vbt_B1_day2,2022.2.4,Win32,60.05645307,,,,,,,,,,,,,,,,,,,,,,,,,,,,,,,,,,,,,,,,,,aanzien,images/br_aanzien.png,images/cb_aanzien.png,,aanzietig,,,,,,,,,,,-0.045370384,-0.150000042,1,0,0,aanzietig,0,53,53,13,1
,,,,,,00062,2023-10-11_18h25.10.834,vbt_B1_day2,2022.2.4,Win32,60.05645307,,,,,,,,,,,,,,,,,,,,,,,,,,,,,,,,,,,,,,,,,,lurgen,images/br_lurgen.png,images/cb_lurgen.png,,,,,,,,,,,,,-0.045370384,-0.150000042,1,0,0,,0,54,54,29,1
,,,,,,00062,2023-10-11_18h25.10.834,vbt_B1_day2,2022.2.4,Win32,60.05645307,,,,,,,,,,,,,,,,,,,,,,,,,,,,,,,,,,,,,,,,,,lijnen,images/br_lijnen.png,images/cb_lijnen.png,,lovendig,,,,,,,,,,,-0.045370384,-0.150000042,1,0,0,lovendig,0,55,55,51,1
,,,,,,00062,2023-10-11_18h25.10.834,vbt_B1_day2,2022.2.4,Win32,60.05645307,,,,,,,,,,,,,,,,,,,,,,,,,,,,,,,,,,,,,,,,,,strikken,images/br_strikken.png,images/cb_strikken.png,,strikken,,,,,,,,,,,-0.045370384,-0.150000042,1,0,0,strikken,0,56,56,18,1
,,,,,,00062,2023-10-11_18h25.10.834,vbt_B1_day2,2022.2.4,Win32,60.05645307,,,,,,,,,,,,,,,,,,,,,,,,,,,,,,,,,,,,,,,,,,inzicht,images/br_inzicht.png,images/cb_inzicht.png,,ijstijd,,,,,,,,,,,-0.045370384,-0.150000042,1,0,0,ijstijd,0,57,57,53,1
,,,,,,00062,2023-10-11_18h25.10.834,vbt_B1_day2,2022.2.4,Win32,60.05645307,,,,,,,,,,,,,,,,,,,,,,,,,,,,,,,,,,,,,,,,,,jong,images/br_jong.png,images/cb_jong.png,,jong,,,,,,,,,,,-0.045370384,-0.150925954,1,0,0,jong,0,58,58,43,1
,,,,,,00062,2023-10-11_18h25.10.834,vbt_B1_day2,2022.2.4,Win32,60.05645307,,,,,,,,,,,,,,,,,,,,,,,,,,,,,,,,,,,,,,,,,,agressie,images/br_agressie.png,images/cb_agressie.png,,agressief,,,,,,,,,,,-0.045370384,-0.150925954,1,0,0,agressief,0,59,59,59,1
,,,,,,00062,2023-10-11_18h25.10.834,vbt_B1_day2,2022.2.4,Win32,60.05645307,,,,,,,,,,,,,,,,,,,,,,,,,,,,,,,,,,,,,,,,,,,,,,,,,,,,,,,,,,,,,,,,,,,
