welcome_mouse.x,welcome_mouse.y,welcome_mouse.leftButton,welcome_mouse.midButton,welcome_mouse.rightButton,welcome_mouse.time,"ID",date,expName,psychopyVersion,OS,frameRate,refresh_mouse.x,refresh_mouse.y,refresh_mouse.leftButton,refresh_mouse.midButton,refresh_mouse.rightButton,refresh_mouse.time,braille_mouse.x,braille_mouse.y,braille_mouse.leftButton,braille_mouse.midButton,braille_mouse.rightButton,braille_mouse.time,trials.thisRepN,trials.thisTrialN,trials.thisN,trials.thisIndex,trials.ran,nlLet,brLet,cbLet,trainInstr_mouse.x,trainInstr_mouse.y,trainInstr_mouse.leftButton,trainInstr_mouse.midButton,trainInstr_mouse.rightButton,trainInstr_mouse.time,translation_key.keys,translation_key.corr,translation_key.rt,word_rsp.text,word_mouse.x,word_mouse.y,word_mouse.leftButton,word_mouse.midButton,word_mouse.rightButton,word_mouse.time,train_loop.thisRepN,train_loop.thisTrialN,train_loop.thisN,train_loop.thisIndex,train_loop.ran,nlWrd,brWrd,cbWrd,test,testResp,mouse.x,mouse.y,mouse.leftButton,mouse.midButton,mouse.rightButton,testInstr_mouse.x,testInstr_mouse.y,testInstr_mouse.leftButton,testInstr_mouse.midButton,testInstr_mouse.rightButton,test_mouse.x,test_mouse.y,test_mouse.leftButton,test_mouse.midButton,test_mouse.rightButton,test_response.text,test_loop.thisRepN,test_loop.thisTrialN,test_loop.thisN,test_loop.thisIndex,test_loop.ran
-0.163888861,-0.25462963,1,0,0,7.5763,00045,2023-10-08_18h01.39.285,vbt_B1_day2,2022.2.4,Win32,60.09976561,,,,,,,,,,,,,,,,,,,,,,,,,,,,,,,,,,,,,,,,,,,,,,,,,,,,,,,,,,,,,,,,,,,
,,,,,,00045,2023-10-08_18h01.39.285,vbt_B1_day2,2022.2.4,Win32,60.09976561,-0.163888861,-0.25462963,1,0,0,7.1628,,,,,,,,,,,,,,,,,,,,,,,,,,,,,,,,,,,,,,,,,,,,,,,,,,,,,,,,,,,,,
,,,,,,00045,2023-10-08_18h01.39.285,vbt_B1_day2,2022.2.4,Win32,60.09976561,,,,,,,-0.163888861,-0.25462963,1,0,0,2.6464,0,0,0,25,1,z,images/br_z.png,images/cb_z.png,,,,,,,,,,,,,,,,,,,,,,,,,,,,,,,,,,,,,,,,,,,,,,,
,,,,,,00045,2023-10-08_18h01.39.285,vbt_B1_day2,2022.2.4,Win32,60.09976561,,,,,,,-0.163888861,-0.25462963,1,0,0,2.4292,0,1,1,11,1,l,images/br_l.png,images/cb_l.png,,,,,,,,,,,,,,,,,,,,,,,,,,,,,,,,,,,,,,,,,,,,,,,
,,,,,,00045,2023-10-08_18h01.39.285,vbt_B1_day2,2022.2.4,Win32,60.09976561,,,,,,,-0.163888861,-0.25462963,1,0,0,1.9135,0,2,2,9,1,j,images/br_j.png,images/cb_j.png,,,,,,,,,,,,,,,,,,,,,,,,,,,,,,,,,,,,,,,,,,,,,,,
,,,,,,00045,2023-10-08_18h01.39.285,vbt_B1_day2,2022.2.4,Win32,60.09976561,,,,,,,-0.163888861,-0.25462963,1,0,0,0.2825,0,3,3,17,1,r,images/br_r.png,images/cb_r.png,,,,,,,,,,,,,,,,,,,,,,,,,,,,,,,,,,,,,,,,,,,,,,,
,,,,,,00045,2023-10-08_18h01.39.285,vbt_B1_day2,2022.2.4,Win32,60.09976561,,,,,,,-0.163888861,-0.25462963,1,0,0,0.2997,0,4,4,4,1,e,images/br_e.png,images/cb_e.png,,,,,,,,,,,,,,,,,,,,,,,,,,,,,,,,,,,,,,,,,,,,,,,
,,,,,,00045,2023-10-08_18h01.39.285,vbt_B1_day2,2022.2.4,Win32,60.09976561,,,,,,,-0.163888861,-0.25462963,1,0,0,1.0317,0,5,5,1,1,b,images/br_b.png,images/cb_b.png,,,,,,,,,,,,,,,,,,,,,,,,,,,,,,,,,,,,,,,,,,,,,,,
,,,,,,00045,2023-10-08_18h01.39.285,vbt_B1_day2,2022.2.4,Win32,60.09976561,,,,,,,-0.163888861,-0.25462963,1,0,0,0.2496,0,6,6,10,1,k,images/br_k.png,images/cb_k.png,,,,,,,,,,,,,,,,,,,,,,,,,,,,,,,,,,,,,,,,,,,,,,,
,,,,,,00045,2023-10-08_18h01.39.285,vbt_B1_day2,2022.2.4,Win32,60.09976561,,,,,,,-0.163888861,-0.25462963,1,0,0,81.752,0,7,7,7,1,h,images/br_h.png,images/cb_h.png,,,,,,,,,,,,,,,,,,,,,,,,,,,,,,,,,,,,,,,,,,,,,,,
,,,,,,00045,2023-10-08_18h01.39.285,vbt_B1_day2,2022.2.4,Win32,60.09976561,,,,,,,-0.163888861,-0.25462963,1,0,0,0.4161,0,8,8,21,1,v,images/br_v.png,images/cb_v.png,,,,,,,,,,,,,,,,,,,,,,,,,,,,,,,,,,,,,,,,,,,,,,,
,,,,,,00045,2023-10-08_18h01.39.285,vbt_B1_day2,2022.2.4,Win32,60.09976561,,,,,,,-0.163888861,-0.25462963,1,0,0,9.8509,0,9,9,5,1,f,images/br_f.png,images/cb_f.png,,,,,,,,,,,,,,,,,,,,,,,,,,,,,,,,,,,,,,,,,,,,,,,
,,,,,,00045,2023-10-08_18h01.39.285,vbt_B1_day2,2022.2.4,Win32,60.09976561,,,,,,,-0.163888861,-0.25462963,1,0,0,0.1334,0,10,10,20,1,u,images/br_u.png,images/cb_u.png,,,,,,,,,,,,,,,,,,,,,,,,,,,,,,,,,,,,,,,,,,,,,,,
,,,,,,00045,2023-10-08_18h01.39.285,vbt_B1_day2,2022.2.4,Win32,60.09976561,,,,,,,-0.163888861,-0.25462963,1,0,0,0.1996,0,11,11,15,1,p,images/br_p.png,images/cb_p.png,,,,,,,,,,,,,,,,,,,,,,,,,,,,,,,,,,,,,,,,,,,,,,,
,,,,,,00045,2023-10-08_18h01.39.285,vbt_B1_day2,2022.2.4,Win32,60.09976561,,,,,,,-0.163888861,-0.25462963,1,0,0,0.3993,0,12,12,8,1,i,images/br_i.png,images/cb_i.png,,,,,,,,,,,,,,,,,,,,,,,,,,,,,,,,,,,,,,,,,,,,,,,
,,,,,,00045,2023-10-08_18h01.39.285,vbt_B1_day2,2022.2.4,Win32,60.09976561,,,,,,,-0.163888861,-0.25462963,1,0,0,0.3498,0,13,13,6,1,g,images/br_g.png,images/cb_g.png,,,,,,,,,,,,,,,,,,,,,,,,,,,,,,,,,,,,,,,,,,,,,,,
,,,,,,00045,2023-10-08_18h01.39.285,vbt_B1_day2,2022.2.4,Win32,60.09976561,,,,,,,-0.163888861,-0.25462963,1,0,0,0.4662,0,14,14,0,1,a,images/br_a.png,images/cb_a.png,,,,,,,,,,,,,,,,,,,,,,,,,,,,,,,,,,,,,,,,,,,,,,,
,,,,,,00045,2023-10-08_18h01.39.285,vbt_B1_day2,2022.2.4,Win32,60.09976561,,,,,,,-0.163888861,-0.25462963,1,0,0,2.0463,0,15,15,18,1,s,images/br_s.png,images/cb_s.png,,,,,,,,,,,,,,,,,,,,,,,,,,,,,,,,,,,,,,,,,,,,,,,
,,,,,,00045,2023-10-08_18h01.39.285,vbt_B1_day2,2022.2.4,Win32,60.09976561,,,,,,,-0.163888861,-0.25462963,1,0,0,0.5488,0,16,16,22,1,w,images/br_w.png,images/cb_w.png,,,,,,,,,,,,,,,,,,,,,,,,,,,,,,,,,,,,,,,,,,,,,,,
,,,,,,00045,2023-10-08_18h01.39.285,vbt_B1_day2,2022.2.4,Win32,60.09976561,,,,,,,-0.163888861,-0.25462963,1,0,0,1.4144,0,17,17,3,1,d,images/br_d.png,images/cb_d.png,,,,,,,,,,,,,,,,,,,,,,,,,,,,,,,,,,,,,,,,,,,,,,,
,,,,,,00045,2023-10-08_18h01.39.285,vbt_B1_day2,2022.2.4,Win32,60.09976561,,,,,,,-0.163888861,-0.25462963,1,0,0,1.0982,0,18,18,14,1,o,images/br_o.png,images/cb_o.png,,,,,,,,,,,,,,,,,,,,,,,,,,,,,,,,,,,,,,,,,,,,,,,
,,,,,,00045,2023-10-08_18h01.39.285,vbt_B1_day2,2022.2.4,Win32,60.09976561,,,,,,,-0.163888861,-0.25462963,1,0,0,0.8321,0,19,19,2,1,c,images/br_c.png,images/cb_c.png,,,,,,,,,,,,,,,,,,,,,,,,,,,,,,,,,,,,,,,,,,,,,,,
,,,,,,00045,2023-10-08_18h01.39.285,vbt_B1_day2,2022.2.4,Win32,60.09976561,,,,,,,-0.163888861,-0.25462963,1,0,0,0.7321,0,20,20,12,1,m,images/br_m.png,images/cb_m.png,,,,,,,,,,,,,,,,,,,,,,,,,,,,,,,,,,,,,,,,,,,,,,,
,,,,,,00045,2023-10-08_18h01.39.285,vbt_B1_day2,2022.2.4,Win32,60.09976561,,,,,,,-0.163888861,-0.25462963,1,0,0,13.1121,0,21,21,24,1,y,images/br_y.png,images/cb_y.png,,,,,,,,,,,,,,,,,,,,,,,,,,,,,,,,,,,,,,,,,,,,,,,
,,,,,,00045,2023-10-08_18h01.39.285,vbt_B1_day2,2022.2.4,Win32,60.09976561,,,,,,,-0.163888861,-0.25462963,1,0,0,0.8656,0,22,22,19,1,t,images/br_t.png,images/cb_t.png,,,,,,,,,,,,,,,,,,,,,,,,,,,,,,,,,,,,,,,,,,,,,,,
,,,,,,00045,2023-10-08_18h01.39.285,vbt_B1_day2,2022.2.4,Win32,60.09976561,,,,,,,-0.163888861,-0.25462963,1,0,0,0.6322,0,23,23,13,1,n,images/br_n.png,images/cb_n.png,,,,,,,,,,,,,,,,,,,,,,,,,,,,,,,,,,,,,,,,,,,,,,,
,,,,,,00045,2023-10-08_18h01.39.285,vbt_B1_day2,2022.2.4,Win32,60.09976561,,,,,,,-0.163888861,-0.25462963,1,0,0,1.8635,0,24,24,16,1,q,images/br_q.png,images/cb_q.png,,,,,,,,,,,,,,,,,,,,,,,,,,,,,,,,,,,,,,,,,,,,,,,
,,,,,,00045,2023-10-08_18h01.39.285,vbt_B1_day2,2022.2.4,Win32,60.09976561,,,,,,,-0.163888861,-0.25462963,1,0,0,1.0815,0,25,25,23,1,x,images/br_x.png,images/cb_x.png,,,,,,,,,,,,,,,,,,,,,,,,,,,,,,,,,,,,,,,,,,,,,,,
,,,,,,00045,2023-10-08_18h01.39.285,vbt_B1_day2,2022.2.4,Win32,60.09976561,,,,,,,,,,,,,,,,,,,,,-0.738888882,-0.090740734,1,0,0,21.0744,,,,,,,,,,,,,,,,,,,,,,,,,,,,,,,,,,,,,,,,,
,,,,,,00045,2023-10-08_18h01.39.285,vbt_B1_day2,2022.2.4,Win32,60.09976561,,,,,,,,,,,,,,,,,,,,,,,,,,,down,0,13.9616,,-0.738888882,-0.090740734,1,0,0,2.4745,0,0,0,167,1,eenhoorn,images/br_eenhoorn.png,images/cb_eenhoorn.png,0,,,,,,,,,,,,,,,,,,,,,,
,,,,,,00045,2023-10-08_18h01.39.285,vbt_B1_day2,2022.2.4,Win32,60.09976561,,,,,,,,,,,,,,,,,,,,,,,,,,,down,0,3.4045,,-0.738888882,-0.090740734,1,0,0,2.6462,0,1,1,62,1,knaap,images/br_knaap.png,images/cb_knaap.png,0,,,,,,,,,,,,,,,,,,,,,,
,,,,,,00045,2023-10-08_18h01.39.285,vbt_B1_day2,2022.2.4,Win32,60.09976561,,,,,,,,,,,,,,,,,,,,,,,,,,,down,0,14.2182,,-0.738888882,-0.090740734,1,0,0,0.6321,0,2,2,121,1,twijfel,images/br_twijfel.png,images/cb_twijfel.png,0,,,,,,,,,,,,,,,,,,,,,,
,,,,,,00045,2023-10-08_18h01.39.285,vbt_B1_day2,2022.2.4,Win32,60.09976561,,,,,,,,,,,,,,,,,,,,,,,,,,,down,0,26.3929,,-0.738888882,-0.090740734,1,0,0,1.0817,0,3,3,32,1,palm,images/br_palm.png,images/cb_palm.png,0,,,,,,,,,,,,,,,,,,,,,,
,,,,,,00045,2023-10-08_18h01.39.285,vbt_B1_day2,2022.2.4,Win32,60.09976561,,,,,,,,,,,,,,,,,,,,,,,,,,,down,0,8.8696,,-0.738888882,-0.090740734,1,0,0,2.6457,0,4,4,187,1,opkijken,images/br_opkijken.png,images/cb_opkijken.png,0,,,,,,,,,,,,,,,,,,,,,,
,,,,,,00045,2023-10-08_18h01.39.285,vbt_B1_day2,2022.2.4,Win32,60.09976561,,,,,,,,,,,,,,,,,,,,,,,,,,,down,0,6.4639,,-0.738888882,-0.090740734,1,0,0,1.6472,0,5,5,47,1,kabel,images/br_kabel.png,images/cb_kabel.png,0,,,,,,,,,,,,,,,,,,,,,,
,,,,,,00045,2023-10-08_18h01.39.285,vbt_B1_day2,2022.2.4,Win32,60.09976561,,,,,,,,,,,,,,,,,,,,,,,,,,,down,0,18.2549,,-0.738888882,-0.090740734,1,0,0,0.948,0,6,6,34,1,vorm,images/br_vorm.png,images/cb_vorm.png,0,,,,,,,,,,,,,,,,,,,,,,
,,,,,,00045,2023-10-08_18h01.39.285,vbt_B1_day2,2022.2.4,Win32,60.09976561,,,,,,,,,,,,,,,,,,,,,,,,,,,down,0,13.5476,,-0.738888882,-0.090740734,1,0,0,1.7223,0,7,7,96,1,slagen,images/br_slagen.png,images/cb_slagen.png,1,slagen,,,,,,,,,,,,,,,,,,,,,
,,,,,,00045,2023-10-08_18h01.39.285,vbt_B1_day2,2022.2.4,Win32,60.09976561,,,,,,,,,,,,,,,,,,,,,,,,,,,down,0,6.03,,-0.738888882,-0.090740734,1,0,0,6.9884,0,8,8,4,1,moes,images/br_moes.png,images/cb_moes.png,0,,,,,,,,,,,,,,,,,,,,,,
,,,,,,00045,2023-10-08_18h01.39.285,vbt_B1_day2,2022.2.4,Win32,60.09976561,,,,,,,,,,,,,,,,,,,,,,,,,,,down,0,11.8482,,-0.738888882,-0.090740734,1,0,0,1.7638,0,9,9,22,1,stof,images/br_stof.png,images/cb_stof.png,0,,,,,,,,,,,,,,,,,,,,,,
,,,,,,00045,2023-10-08_18h01.39.285,vbt_B1_day2,2022.2.4,Win32,60.09976561,,,,,,,,,,,,,,,,,,,,,,,,,,,down,0,3.1867,,-0.738888882,-0.090740734,1,0,0,0.7492,0,10,10,113,1,koppen,images/br_koppen.png,images/cb_koppen.png,0,,,,,,,,,,,,,,,,,,,,,,
,,,,,,00045,2023-10-08_18h01.39.285,vbt_B1_day2,2022.2.4,Win32,60.09976561,,,,,,,,,,,,,,,,,,,,,,,,,,,down,0,3.3651,,-0.738888882,-0.090740734,1,0,0,0.7655,0,11,11,7,1,geld,images/br_geld.png,images/cb_geld.png,0,,,,,,,,,,,,,,,,,,,,,,
,,,,,,00045,2023-10-08_18h01.39.285,vbt_B1_day2,2022.2.4,Win32,60.09976561,,,,,,,,,,,,,,,,,,,,,,,,,,,down,0,4.8958,,-0.738888882,-0.090740734,1,0,0,0.9982,0,12,12,106,1,zingen,images/br_zingen.png,images/cb_zingen.png,0,,,,,,,,,,,,,,,,,,,,,,
,,,,,,00045,2023-10-08_18h01.39.285,vbt_B1_day2,2022.2.4,Win32,60.09976561,,,,,,,,,,,,,,,,,,,,,,,,,,,down,0,16.4406,,-0.738888882,-0.090740734,1,0,0,1.298,0,13,13,150,1,gegeven,images/br_gegeven.png,images/cb_gegeven.png,0,,,,,,,,,,,,,,,,,,,,,,
,,,,,,00045,2023-10-08_18h01.39.285,vbt_B1_day2,2022.2.4,Win32,60.09976561,,,,,,,,,,,,,,,,,,,,,,,,,,,down,0,13.1127,,-0.738888882,-0.090740734,1,0,0,0.9313,0,14,14,87,1,toeval,images/br_toeval.png,images/cb_toeval.png,0,,,,,,,,,,,,,,,,,,,,,,
,,,,,,00045,2023-10-08_18h01.39.285,vbt_B1_day2,2022.2.4,Win32,60.09976561,,,,,,,,,,,,,,,,,,,,,,,,,,,down,0,22.8347,,-0.738888882,-0.090740734,1,0,0,0.8321,0,15,15,169,1,oprotten,images/br_oprotten.png,images/cb_oprotten.png,0,,,,,,,,,,,,,,,,,,,,,,
,,,,,,00045,2023-10-08_18h01.39.285,vbt_B1_day2,2022.2.4,Win32,60.09976561,,,,,,,,,,,,,,,,,,,,,,,,,,,down,0,18.4158,,-0.738888882,-0.090740734,1,0,0,1.1813,0,16,16,152,1,afnemen,images/br_afnemen.png,images/cb_afnemen.png,0,,,,,,,,,,,,,,,,,,,,,,
,,,,,,00045,2023-10-08_18h01.39.285,vbt_B1_day2,2022.2.4,Win32,60.09976561,,,,,,,,,,,,,,,,,,,,,,,,,,,down,0,3.9182,,-0.738888882,-0.090740734,1,0,0,1.065,0,17,17,196,1,nakijken,images/br_nakijken.png,images/cb_nakijken.png,0,,,,,,,,,,,,,,,,,,,,,,
,,,,,,00045,2023-10-08_18h01.39.285,vbt_B1_day2,2022.2.4,Win32,60.09976561,,,,,,,,,,,,,,,,,,,,,,,,,,,down,0,10.1695,,-0.738888882,-0.090740734,1,0,0,0.8985,0,18,18,191,1,opheffen,images/br_opheffen.png,images/cb_opheffen.png,0,,,,,,,,,,,,,,,,,,,,,,
,,,,,,00045,2023-10-08_18h01.39.285,vbt_B1_day2,2022.2.4,Win32,60.09976561,,,,,,,,,,,,,,,,,,,,,,,,,,,down,0,8.8428,,-0.738888882,-0.090740734,1,0,0,3.9602,0,19,19,168,1,bisschop,images/br_bisschop.png,images/cb_bisschop.png,0,,,,,,,,,,,,,,,,,,,,,,
,,,,,,00045,2023-10-08_18h01.39.285,vbt_B1_day2,2022.2.4,Win32,60.09976561,,,,,,,,,,,,,,,,,,,,,,,,,,,down,0,3.7321,,-0.738888882,-0.090740734,1,0,0,0.7658,0,20,20,173,1,apparaat,images/br_apparaat.png,images/cb_apparaat.png,0,,,,,,,,,,,,,,,,,,,,,,
,,,,,,00045,2023-10-08_18h01.39.285,vbt_B1_day2,2022.2.4,Win32,60.09976561,,,,,,,,,,,,,,,,,,,,,,,,,,,down,0,4.095,,-0.738888882,-0.090740734,1,0,0,0.449,0,21,21,28,1,stal,images/br_stal.png,images/cb_stal.png,0,,,,,,,,,,,,,,,,,,,,,,
,,,,,,00045,2023-10-08_18h01.39.285,vbt_B1_day2,2022.2.4,Win32,60.09976561,,,,,,,,,,,,,,,,,,,,,,,,,,,down,0,3.368,,-0.738888882,-0.090740734,1,0,0,0.5329,0,22,22,48,1,steel,images/br_steel.png,images/cb_steel.png,0,,,,,,,,,,,,,,,,,,,,,,
,,,,,,00045,2023-10-08_18h01.39.285,vbt_B1_day2,2022.2.4,Win32,60.09976561,,,,,,,,,,,,,,,,,,,,,,,,,,,down,0,12.6061,,-0.738888882,-0.090740734,1,0,0,0.6157,0,23,23,198,1,bedoelen,images/br_bedoelen.png,images/cb_bedoelen.png,0,,,,,,,,,,,,,,,,,,,,,,
,,,,,,00045,2023-10-08_18h01.39.285,vbt_B1_day2,2022.2.4,Win32,60.09976561,,,,,,,,,,,,,,,,,,,,,,,,,,,down,0,6.2468,,-0.738888882,-0.090740734,1,0,0,0.5494,0,24,24,158,1,innemen,images/br_innemen.png,images/cb_innemen.png,0,,,,,,,,,,,,,,,,,,,,,,
,,,,,,00045,2023-10-08_18h01.39.285,vbt_B1_day2,2022.2.4,Win32,60.09976561,,,,,,,,,,,,,,,,,,,,,,,,,,,down,0,5.6503,,-0.738888882,-0.090740734,1,0,0,0.5654,0,25,25,122,1,waarvan,images/br_waarvan.png,images/cb_waarvan.png,0,,,,,,,,,,,,,,,,,,,,,,
,,,,,,00045,2023-10-08_18h01.39.285,vbt_B1_day2,2022.2.4,Win32,60.09976561,,,,,,,,,,,,,,,,,,,,,,,,,,,down,0,5.2919,,-0.738888882,-0.090740734,1,0,0,1.9635,0,26,26,137,1,trekker,images/br_trekker.png,images/cb_trekker.png,1,trekken,,,,,,,,,,,,,,,,,,,,,
,,,,,,00045,2023-10-08_18h01.39.285,vbt_B1_day2,2022.2.4,Win32,60.09976561,,,,,,,,,,,,,,,,,,,,,,,,,,,down,0,16.9412,,-0.738888882,-0.090740734,1,0,0,0.8653,0,27,27,61,1,groen,images/br_groen.png,images/cb_groen.png,0,,,,,,,,,,,,,,,,,,,,,,
,,,,,,00045,2023-10-08_18h01.39.285,vbt_B1_day2,2022.2.4,Win32,60.09976561,,,,,,,,,,,,,,,,,,,,,,,,,,,down,0,3.3932,,-0.738888882,-0.090740734,1,0,0,0.8153,0,28,28,38,1,baai,images/br_baai.png,images/cb_baai.png,0,,,,,,,,,,,,,,,,,,,,,,
,,,,,,00045,2023-10-08_18h01.39.285,vbt_B1_day2,2022.2.4,Win32,60.09976561,,,,,,,,,,,,,,,,,,,,,,,,,,,down,0,6.606,,-0.738888882,-0.090740734,1,0,0,0.9319,0,29,29,133,1,seizoen,images/br_seizoen.png,images/cb_seizoen.png,0,,,,,,,,,,,,,,,,,,,,,,
,,,,,,00045,2023-10-08_18h01.39.285,vbt_B1_day2,2022.2.4,Win32,60.09976561,,,,,,,,,,,,,,,,,,,,,,,,,,,down,0,3.7948,,-0.738888882,-0.090740734,1,0,0,0.7655,0,30,30,2,1,jaar,images/br_jaar.png,images/cb_jaar.png,0,,,,,,,,,,,,,,,,,,,,,,
,,,,,,00045,2023-10-08_18h01.39.285,vbt_B1_day2,2022.2.4,Win32,60.09976561,,,,,,,,,,,,,,,,,,,,,,,,,,,down,0,9.3736,,-0.738888882,-0.090740734,1,0,0,0.6492,0,31,31,192,1,schaamte,images/br_schaamte.png,images/cb_schaamte.png,0,,,,,,,,,,,,,,,,,,,,,,
,,,,,,00045,2023-10-08_18h01.39.285,vbt_B1_day2,2022.2.4,Win32,60.09976561,,,,,,,,,,,,,,,,,,,,,,,,,,,down,0,3.9658,,-0.738888882,-0.090740734,1,0,0,0.8149,0,32,32,72,1,strak,images/br_strak.png,images/cb_strak.png,0,,,,,,,,,,,,,,,,,,,,,,
,,,,,,00045,2023-10-08_18h01.39.285,vbt_B1_day2,2022.2.4,Win32,60.09976561,,,,,,,,,,,,,,,,,,,,,,,,,,,down,0,8.5417,,-0.738888882,-0.090740734,1,0,0,0.4826,0,33,33,12,1,kust,images/br_kust.png,images/cb_kust.png,0,,,,,,,,,,,,,,,,,,,,,,
,,,,,,00045,2023-10-08_18h01.39.285,vbt_B1_day2,2022.2.4,Win32,60.09976561,,,,,,,,,,,,,,,,,,,,,,,,,,,down,0,3.3126,,-0.738888882,-0.090740734,1,0,0,1.148,0,34,34,69,1,waken,images/br_waken.png,images/cb_waken.png,0,,,,,,,,,,,,,,,,,,,,,,
,,,,,,00045,2023-10-08_18h01.39.285,vbt_B1_day2,2022.2.4,Win32,60.09976561,,,,,,,,,,,,,,,,,,,,,,,,,,,down,0,17.4059,,-0.738888882,-0.090740734,1,0,0,0.9653,0,35,35,135,1,gedicht,images/br_gedicht.png,images/cb_gedicht.png,0,,,,,,,,,,,,,,,,,,,,,,
,,,,,,00045,2023-10-08_18h01.39.285,vbt_B1_day2,2022.2.4,Win32,60.09976561,,,,,,,,,,,,,,,,,,,,,,,,,,,down,0,3.0225,,-0.738888882,-0.090740734,1,0,0,1.0652,0,36,36,73,1,volop,images/br_volop.png,images/cb_volop.png,0,,,,,,,,,,,,,,,,,,,,,,
,,,,,,00045,2023-10-08_18h01.39.285,vbt_B1_day2,2022.2.4,Win32,60.09976561,,,,,,,,,,,,,,,,,,,,,,,,,,,down,0,7.2903,,-0.738888882,-0.090740734,1,0,0,0.499,0,37,37,54,1,gebit,images/br_gebit.png,images/cb_gebit.png,0,,,,,,,,,,,,,,,,,,,,,,
,,,,,,00045,2023-10-08_18h01.39.285,vbt_B1_day2,2022.2.4,Win32,60.09976561,,,,,,,,,,,,,,,,,,,,,,,,,,,down,0,5.3124,,-0.738888882,-0.090740734,1,0,0,0.5823,0,38,38,132,1,grappen,images/br_grappen.png,images/cb_grappen.png,0,,,,,,,,,,,,,,,,,,,,,,
,,,,,,00045,2023-10-08_18h01.39.285,vbt_B1_day2,2022.2.4,Win32,60.09976561,,,,,,,,,,,,,,,,,,,,,,,,,,,down,0,14.5368,,-0.738888882,-0.090740734,1,0,0,5.2747,0,39,39,94,1,oceaan,images/br_oceaan.png,images/cb_oceaan.png,0,,,,,,,,,,,,,,,,,,,,,,
,,,,,,00045,2023-10-08_18h01.39.285,vbt_B1_day2,2022.2.4,Win32,60.09976561,,,,,,,,,,,,,,,,,,,,,,,,,,,down,0,12.481,,-0.738888882,-0.090740734,1,0,0,3.278,0,40,40,44,1,flits,images/br_flits.png,images/cb_flits.png,0,,,,,,,,,,,,,,,,,,,,,,
,,,,,,00045,2023-10-08_18h01.39.285,vbt_B1_day2,2022.2.4,Win32,60.09976561,,,,,,,,,,,,,,,,,,,,,,,,,,,down,0,8.0803,,-0.738888882,-0.090740734,1,0,0,0.649,0,41,41,125,1,aanzien,images/br_aanzien.png,images/cb_aanzien.png,0,,,,,,,,,,,,,,,,,,,,,,
,,,,,,00045,2023-10-08_18h01.39.285,vbt_B1_day2,2022.2.4,Win32,60.09976561,,,,,,,,,,,,,,,,,,,,,,,,,,,down,0,6.8895,,-0.738888882,-0.090740734,1,0,0,1.6803,0,42,42,183,1,getuigen,images/br_getuigen.png,images/cb_getuigen.png,0,,,,,,,,,,,,,,,,,,,,,,
,,,,,,00045,2023-10-08_18h01.39.285,vbt_B1_day2,2022.2.4,Win32,60.09976561,,,,,,,,,,,,,,,,,,,,,,,,,,,down,0,14.4572,,-0.738888882,-0.090740734,1,0,0,3.4943,0,43,43,182,1,bijkomen,images/br_bijkomen.png,images/cb_bijkomen.png,0,,,,,,,,,,,,,,,,,,,,,,
,,,,,,00045,2023-10-08_18h01.39.285,vbt_B1_day2,2022.2.4,Win32,60.09976561,,,,,,,,,,,,,,,,,,,,,,,,,,,down,0,5.0202,,-0.738888882,-0.090740734,1,0,0,0.5908,0,44,44,16,1,ziek,images/br_ziek.png,images/cb_ziek.png,1,ziek,,,,,,,,,,,,,,,,,,,,,
,,,,,,00045,2023-10-08_18h01.39.285,vbt_B1_day2,2022.2.4,Win32,60.09976561,,,,,,,,,,,,,,,,,,,,,,,,,,,down,0,3.5044,,-0.738888882,-0.090740734,1,0,0,0.9151,0,45,45,71,1,bever,images/br_bever.png,images/cb_bever.png,0,,,,,,,,,,,,,,,,,,,,,,
,,,,,,00045,2023-10-08_18h01.39.285,vbt_B1_day2,2022.2.4,Win32,60.09976561,,,,,,,,,,,,,,,,,,,,,,,,,,,down,0,5.4967,,-0.738888882,-0.090740734,1,0,0,1.1983,0,46,46,23,1,zout,images/br_zout.png,images/cb_zout.png,0,,,,,,,,,,,,,,,,,,,,,,
,,,,,,00045,2023-10-08_18h01.39.285,vbt_B1_day2,2022.2.4,Win32,60.09976561,,,,,,,,,,,,,,,,,,,,,,,,,,,down,0,9.1093,,-0.738888882,-0.090740734,1,0,0,0.383,0,47,47,98,1,kreeft,images/br_kreeft.png,images/cb_kreeft.png,1,kreeft,,,,,,,,,,,,,,,,,,,,,
,,,,,,00045,2023-10-08_18h01.39.285,vbt_B1_day2,2022.2.4,Win32,60.09976561,,,,,,,,,,,,,,,,,,,,,,,,,,,down,0,10.0075,,-0.738888882,-0.090740734,1,0,0,0.8069,0,48,48,91,1,gezond,images/br_gezond.png,images/cb_gezond.png,0,,,,,,,,,,,,,,,,,,,,,,
,,,,,,00045,2023-10-08_18h01.39.285,vbt_B1_day2,2022.2.4,Win32,60.09976561,,,,,,,,,,,,,,,,,,,,,,,,,,,down,0,9.5352,,-0.738888882,-0.090740734,1,0,0,0.8237,0,49,49,70,1,ijdel,images/br_ijdel.png,images/cb_ijdel.png,0,,,,,,,,,,,,,,,,,,,,,,
,,,,,,00045,2023-10-08_18h01.39.285,vbt_B1_day2,2022.2.4,Win32,60.09976561,,,,,,,,,,,,,,,,,,,,,,,,,,,down,0,9.4695,,-0.738888882,-0.090740734,1,0,0,0.4659,0,50,50,11,1,mode,images/br_mode.png,images/cb_mode.png,0,,,,,,,,,,,,,,,,,,,,,,
,,,,,,00045,2023-10-08_18h01.39.285,vbt_B1_day2,2022.2.4,Win32,60.09976561,,,,,,,,,,,,,,,,,,,,,,,,,,,down,0,12.7532,,-0.738888882,-0.090740734,1,0,0,0.4659,0,51,51,178,1,huisdier,images/br_huisdier.png,images/cb_huisdier.png,1,huisdier,,,,,,,,,,,,,,,,,,,,,
,,,,,,00045,2023-10-08_18h01.39.285,vbt_B1_day2,2022.2.4,Win32,60.09976561,,,,,,,,,,,,,,,,,,,,,,,,,,,down,0,11.5533,,-0.738888882,-0.090740734,1,0,0,0.7316,0,52,52,140,1,blijven,images/br_blijven.png,images/cb_blijven.png,0,,,,,,,,,,,,,,,,,,,,,,
,,,,,,00045,2023-10-08_18h01.39.285,vbt_B1_day2,2022.2.4,Win32,60.09976561,,,,,,,,,,,,,,,,,,,,,,,,,,,down,0,46.062,,-0.738888882,-0.090740734,1,0,0,3.9769,0,53,53,149,1,redding,images/br_redding.png,images/cb_redding.png,0,,,,,,,,,,,,,,,,,,,,,,
,,,,,,00045,2023-10-08_18h01.39.285,vbt_B1_day2,2022.2.4,Win32,60.09976561,,,,,,,,,,,,,,,,,,,,,,,,,,,down,0,2.0307,,-0.738888882,-0.090740734,1,0,0,0.3657,0,54,54,5,1,blad,images/br_blad.png,images/cb_blad.png,0,,,,,,,,,,,,,,,,,,,,,,
,,,,,,00045,2023-10-08_18h01.39.285,vbt_B1_day2,2022.2.4,Win32,60.09976561,,,,,,,,,,,,,,,,,,,,,,,,,,,down,0,9.7013,,-0.738888882,-0.090740734,1,0,0,0.7152,0,55,55,154,1,aflopen,images/br_aflopen.png,images/cb_aflopen.png,0,,,,,,,,,,,,,,,,,,,,,,
,,,,,,00045,2023-10-08_18h01.39.285,vbt_B1_day2,2022.2.4,Win32,60.09976561,,,,,,,,,,,,,,,,,,,,,,,,,,,down,0,5.0986,,-0.738888882,-0.090740734,1,0,0,0.6657,0,56,56,18,1,blik,images/br_blik.png,images/cb_blik.png,1,blik,,,,,,,,,,,,,,,,,,,,,
,,,,,,00045,2023-10-08_18h01.39.285,vbt_B1_day2,2022.2.4,Win32,60.09976561,,,,,,,,,,,,,,,,,,,,,,,,,,,down,0,10.1342,,-0.738888882,-0.090740734,1,0,0,1.8141,0,57,57,138,1,akkoord,images/br_akkoord.png,images/cb_akkoord.png,1,akkoordakkoord,,,,,,,,,,,,,,,,,,,,,
,,,,,,00045,2023-10-08_18h01.39.285,vbt_B1_day2,2022.2.4,Win32,60.09976561,,,,,,,,,,,,,,,,,,,,,,,,,,,down,0,3.3832,,-0.738888882,-0.090740734,1,0,0,0.3489,0,58,58,148,1,smullen,images/br_smullen.png,images/cb_smullen.png,0,,,,,,,,,,,,,,,,,,,,,,
,,,,,,00045,2023-10-08_18h01.39.285,vbt_B1_day2,2022.2.4,Win32,60.09976561,,,,,,,,,,,,,,,,,,,,,,,,,,,down,0,2.0472,,-0.738888882,-0.090740734,1,0,0,0.3823,0,59,59,36,1,vuur,images/br_vuur.png,images/cb_vuur.png,0,,,,,,,,,,,,,,,,,,,,,,
,,,,,,00045,2023-10-08_18h01.39.285,vbt_B1_day2,2022.2.4,Win32,60.09976561,,,,,,,,,,,,,,,,,,,,,,,,,,,down,0,36.5268,,-0.738888882,-0.090740734,1,0,0,0.4658,0,60,60,76,1,afval,images/br_afval.png,images/cb_afval.png,0,,,,,,,,,,,,,,,,,,,,,,
,,,,,,00045,2023-10-08_18h01.39.285,vbt_B1_day2,2022.2.4,Win32,60.09976561,,,,,,,,,,,,,,,,,,,,,,,,,,,down,0,6.0125,,-0.738888882,-0.090740734,1,0,0,0.7155,0,61,61,83,1,mening,images/br_mening.png,images/cb_mening.png,0,,,,,,,,,,,,,,,,,,,,,,
,,,,,,00045,2023-10-08_18h01.39.285,vbt_B1_day2,2022.2.4,Win32,60.09976561,,,,,,,,,,,,,,,,,,,,,,,,,,,down,0,0.0427,,-0.738888882,-0.090740734,1,0,0,1.5307,0,62,62,185,1,mijnheer,images/br_mijnheer.png,images/cb_mijnheer.png,0,,,,,,,,,,,,,,,,,,,,,,
,,,,,,00045,2023-10-08_18h01.39.285,vbt_B1_day2,2022.2.4,Win32,60.09976561,,,,,,,,,,,,,,,,,,,,,,,,,,,down,0,2.2045,,-0.738888882,-0.090740734,1,0,0,0.4827,0,63,63,21,1,mist,images/br_mist.png,images/cb_mist.png,0,,,,,,,,,,,,,,,,,,,,,,
,,,,,,00045,2023-10-08_18h01.39.285,vbt_B1_day2,2022.2.4,Win32,60.09976561,,,,,,,,,,,,,,,,,,,,,,,,,,,down,0,0.6843,,-0.738888882,-0.090740734,1,0,0,0.399,0,64,64,39,1,laag,images/br_laag.png,images/cb_laag.png,0,,,,,,,,,,,,,,,,,,,,,,
,,,,,,00045,2023-10-08_18h01.39.285,vbt_B1_day2,2022.2.4,Win32,60.09976561,,,,,,,,,,,,,,,,,,,,,,,,,,,down,0,11.6364,,-0.738888882,-0.090740734,1,0,0,0.5655,0,65,65,199,1,beseffen,images/br_beseffen.png,images/cb_beseffen.png,0,,,,,,,,,,,,,,,,,,,,,,
,,,,,,00045,2023-10-08_18h01.39.285,vbt_B1_day2,2022.2.4,Win32,60.09976561,,,,,,,,,,,,,,,,,,,,,,,,,,,down,0,33.1661,,-0.675925926,-0.018518519,1,0,0,1.0645,0,66,66,156,1,rechten,images/br_rechten.png,images/cb_rechten.png,0,,,,,,,,,,,,,,,,,,,,,,
,,,,,,00045,2023-10-08_18h01.39.285,vbt_B1_day2,2022.2.4,Win32,60.09976561,,,,,,,,,,,,,,,,,,,,,,,,,,,down,0,3.6948,,-0.675925926,-0.018518519,1,0,0,0.4495,0,67,67,57,1,steek,images/br_steek.png,images/cb_steek.png,1,steek,,,,,,,,,,,,,,,,,,,,,
,,,,,,00045,2023-10-08_18h01.39.285,vbt_B1_day2,2022.2.4,Win32,60.09976561,,,,,,,,,,,,,,,,,,,,,,,,,,,down,0,1.6333,,-0.675925926,-0.018518519,1,0,0,0.3658,0,68,68,53,1,baron,images/br_baron.png,images/cb_baron.png,0,,,,,,,,,,,,,,,,,,,,,,
,,,,,,00045,2023-10-08_18h01.39.285,vbt_B1_day2,2022.2.4,Win32,60.09976561,,,,,,,,,,,,,,,,,,,,,,,,,,,down,0,0.2008,,-0.675925926,-0.018518519,1,0,0,0.2994,0,69,69,42,1,bleek,images/br_bleek.png,images/cb_bleek.png,0,,,,,,,,,,,,,,,,,,,,,,
,,,,,,00045,2023-10-08_18h01.39.285,vbt_B1_day2,2022.2.4,Win32,60.09976561,,,,,,,,,,,,,,,,,,,,,,,,,,,down,0,0.3172,,-0.675925926,-0.018518519,1,0,0,0.3661,0,70,70,1,1,zaal,images/br_zaal.png,images/cb_zaal.png,0,,,,,,,,,,,,,,,,,,,,,,
,,,,,,00045,2023-10-08_18h01.39.285,vbt_B1_day2,2022.2.4,Win32,60.09976561,,,,,,,,,,,,,,,,,,,,,,,,,,,down,0,10.5501,,-0.675925926,-0.018518519,1,0,0,0.7153,0,71,71,179,1,woestijn,images/br_woestijn.png,images/cb_woestijn.png,1,woestijn,,,,,,,,,,,,,,,,,,,,,
,,,,,,00045,2023-10-08_18h01.39.285,vbt_B1_day2,2022.2.4,Win32,60.09976561,,,,,,,,,,,,,,,,,,,,,,,,,,,down,0,6.5348,,-0.675925926,-0.018518519,1,0,0,0.4156,0,72,72,58,1,tekst,images/br_tekst.png,images/cb_tekst.png,1,tekst,,,,,,,,,,,,,,,,,,,,,
,,,,,,00045,2023-10-08_18h01.39.285,vbt_B1_day2,2022.2.4,Win32,60.09976561,,,,,,,,,,,,,,,,,,,,,,,,,,,down,0,20.6913,,-0.675925926,-0.018518519,1,0,0,1.1481,0,73,73,24,1,jurk,images/br_jurk.png,images/cb_jurk.png,0,,,,,,,,,,,,,,,,,,,,,,
,,,,,,00045,2023-10-08_18h01.39.285,vbt_B1_day2,2022.2.4,Win32,60.09976561,,,,,,,,,,,,,,,,,,,,,,,,,,,down,0,1.2152,,-0.675925926,-0.018518519,1,0,0,0.499,0,74,74,82,1,muziek,images/br_muziek.png,images/cb_muziek.png,0,,,,,,,,,,,,,,,,,,,,,,
,,,,,,00045,2023-10-08_18h01.39.285,vbt_B1_day2,2022.2.4,Win32,60.09976561,,,,,,,,,,,,,,,,,,,,,,,,,,,down,0,2.1639,,-0.675925926,-0.017592607,1,0,0,0.3657,0,75,75,56,1,traag,images/br_traag.png,images/cb_traag.png,1,traag,,,,,,,,,,,,,,,,,,,,,
,,,,,,00045,2023-10-08_18h01.39.285,vbt_B1_day2,2022.2.4,Win32,60.09976561,,,,,,,,,,,,,,,,,,,,,,,,,,,down,0,2.5889,,-0.675925926,-0.017592607,1,0,0,0.3163,0,76,76,171,1,aarzelen,images/br_aarzelen.png,images/cb_aarzelen.png,0,,,,,,,,,,,,,,,,,,,,,,
,,,,,,00045,2023-10-08_18h01.39.285,vbt_B1_day2,2022.2.4,Win32,60.09976561,,,,,,,,,,,,,,,,,,,,,,,,,,,down,0,3.8,,-0.675925926,-0.017592607,1,0,0,0.3494,0,77,77,9,1,hier,images/br_hier.png,images/cb_hier.png,0,,,,,,,,,,,,,,,,,,,,,,
,,,,,,00045,2023-10-08_18h01.39.285,vbt_B1_day2,2022.2.4,Win32,60.09976561,,,,,,,,,,,,,,,,,,,,,,,,,,,down,0,10.1011,,-0.675925926,-0.017592607,1,0,0,0.3993,0,78,78,6,1,diep,images/br_diep.png,images/cb_diep.png,0,,,,,,,,,,,,,,,,,,,,,,
,,,,,,00045,2023-10-08_18h01.39.285,vbt_B1_day2,2022.2.4,Win32,60.09976561,,,,,,,,,,,,,,,,,,,,,,,,,,,down,0,0.0509,,-0.675925926,-0.017592607,1,0,0,0.9644,0,79,79,89,1,slapen,images/br_slapen.png,images/cb_slapen.png,0,,,,,,,,,,,,,,,,,,,,,,
,,,,,,00045,2023-10-08_18h01.39.285,vbt_B1_day2,2022.2.4,Win32,60.09976561,,,,,,,,,,,,,,,,,,,,,,,,,,,down,0,0.4877,,-0.675925926,-0.017592607,1,0,0,0.3327,0,80,80,29,1,baas,images/br_baas.png,images/cb_baas.png,0,,,,,,,,,,,,,,,,,,,,,,
,,,,,,00045,2023-10-08_18h01.39.285,vbt_B1_day2,2022.2.4,Win32,60.09976561,,,,,,,,,,,,,,,,,,,,,,,,,,,down,0,3.5499,,-0.675925926,-0.017592607,1,0,0,0.4324,0,81,81,99,1,koffie,images/br_koffie.png,images/cb_koffie.png,1,koffie,,,,,,,,,,,,,,,,,,,,,
,,,,,,00045,2023-10-08_18h01.39.285,vbt_B1_day2,2022.2.4,Win32,60.09976561,,,,,,,,,,,,,,,,,,,,,,,,,,,down,0,3.3628,,-0.675925926,-0.017592607,1,0,0,0.4162,0,82,82,136,1,waarbij,images/br_waarbij.png,images/cb_waarbij.png,1,waarbij,,,,,,,,,,,,,,,,,,,,,
,,,,,,00045,2023-10-08_18h01.39.285,vbt_B1_day2,2022.2.4,Win32,60.09976561,,,,,,,,,,,,,,,,,,,,,,,,,,,down,0,3.2809,,-0.675925926,-0.017592607,1,0,0,0.3991,0,83,83,31,1,poes,images/br_poes.png,images/cb_poes.png,0,,,,,,,,,,,,,,,,,,,,,,
,,,,,,00045,2023-10-08_18h01.39.285,vbt_B1_day2,2022.2.4,Win32,60.09976561,,,,,,,,,,,,,,,,,,,,,,,,,,,down,0,14.4616,,-0.675925926,-0.017592607,1,0,0,0.3495,0,84,84,66,1,lever,images/br_lever.png,images/cb_lever.png,0,,,,,,,,,,,,,,,,,,,,,,
,,,,,,00045,2023-10-08_18h01.39.285,vbt_B1_day2,2022.2.4,Win32,60.09976561,,,,,,,,,,,,,,,,,,,,,,,,,,,down,0,6.3586,,-0.675925926,-0.017592607,1,0,0,0.4239,0,85,85,80,1,kanjer,images/br_kanjer.png,images/cb_kanjer.png,0,,,,,,,,,,,,,,,,,,,,,,
,,,,,,00045,2023-10-08_18h01.39.285,vbt_B1_day2,2022.2.4,Win32,60.09976561,,,,,,,,,,,,,,,,,,,,,,,,,,,down,0,0.2337,,-0.675925926,-0.017592607,1,0,0,0.6149,0,86,86,68,1,schat,images/br_schat.png,images/cb_schat.png,0,,,,,,,,,,,,,,,,,,,,,,
,,,,,,00045,2023-10-08_18h01.39.285,vbt_B1_day2,2022.2.4,Win32,60.09976561,,,,,,,,,,,,,,,,,,,,,,,,,,,down,0,0.0009,,-0.675925926,-0.017592607,1,0,0,0.9651,0,87,87,13,1,kaal,images/br_kaal.png,images/cb_kaal.png,0,,,,,,,,,,,,,,,,,,,,,,
,,,,,,00045,2023-10-08_18h01.39.285,vbt_B1_day2,2022.2.4,Win32,60.09976561,,,,,,,,,,,,,,,,,,,,,,,,,,,down,0,4.9582,,-0.675925926,-0.017592607,1,0,0,0.6324,0,88,88,184,1,aandelen,images/br_aandelen.png,images/cb_aandelen.png,0,,,,,,,,,,,,,,,,,,,,,,
,,,,,,00045,2023-10-08_18h01.39.285,vbt_B1_day2,2022.2.4,Win32,60.09976561,,,,,,,,,,,,,,,,,,,,,,,,,,,down,0,3.5286,,-0.675925926,-0.017592607,1,0,0,0.3329,0,89,89,90,1,geluid,images/br_geluid.png,images/cb_geluid.png,0,,,,,,,,,,,,,,,,,,,,,,
,,,,,,00045,2023-10-08_18h01.39.285,vbt_B1_day2,2022.2.4,Win32,60.09976561,,,,,,,,,,,,,,,,,,,,,,,,,,,down,0,6.5459,,-0.675925926,-0.017592607,1,0,0,0.3659,0,90,90,50,1,stoom,images/br_stoom.png,images/cb_stoom.png,0,,,,,,,,,,,,,,,,,,,,,,
,,,,,,00045,2023-10-08_18h01.39.285,vbt_B1_day2,2022.2.4,Win32,60.09976561,,,,,,,,,,,,,,,,,,,,,,,,,,,down,0,3.2144,,-0.675925926,-0.017592607,1,0,0,0.3664,0,91,91,14,1,rijp,images/br_rijp.png,images/cb_rijp.png,0,,,,,,,,,,,,,,,,,,,,,,
,,,,,,00045,2023-10-08_18h01.39.285,vbt_B1_day2,2022.2.4,Win32,60.09976561,,,,,,,,,,,,,,,,,,,,,,,,,,,down,0,6.4571,,-0.675925926,-0.017592607,1,0,0,0.3493,0,92,92,81,1,dubbel,images/br_dubbel.png,images/cb_dubbel.png,0,,,,,,,,,,,,,,,,,,,,,,
,,,,,,00045,2023-10-08_18h01.39.285,vbt_B1_day2,2022.2.4,Win32,60.09976561,,,,,,,,,,,,,,,,,,,,,,,,,,,down,0,0.5845,,-0.675925926,-0.017592607,1,0,0,0.7986,0,93,93,193,1,weeshuis,images/br_weeshuis.png,images/cb_weeshuis.png,0,,,,,,,,,,,,,,,,,,,,,,
,,,,,,00045,2023-10-08_18h01.39.285,vbt_B1_day2,2022.2.4,Win32,60.09976561,,,,,,,,,,,,,,,,,,,,,,,,,,,down,0,2.2971,,-0.675925926,-0.017592607,1,0,0,0.4491,0,94,94,26,1,leuk,images/br_leuk.png,images/cb_leuk.png,0,,,,,,,,,,,,,,,,,,,,,,
,,,,,,00045,2023-10-08_18h01.39.285,vbt_B1_day2,2022.2.4,Win32,60.09976561,,,,,,,,,,,,,,,,,,,,,,,,,,,down,0,1.784,,-0.675925926,-0.017592607,1,0,0,1.6639,0,95,95,55,1,praat,images/br_praat.png,images/cb_praat.png,0,,,,,,,,,,,,,,,,,,,,,,
,,,,,,00045,2023-10-08_18h01.39.285,vbt_B1_day2,2022.2.4,Win32,60.09976561,,,,,,,,,,,,,,,,,,,,,,,,,,,down,0,0.1527,,-0.675925926,-0.017592607,1,0,0,0.6986,0,96,96,124,1,bloeien,images/br_bloeien.png,images/cb_bloeien.png,0,,,,,,,,,,,,,,,,,,,,,,
,,,,,,00045,2023-10-08_18h01.39.285,vbt_B1_day2,2022.2.4,Win32,60.09976561,,,,,,,,,,,,,,,,,,,,,,,,,,,down,0,0.4664,,-0.675925926,-0.017592607,1,0,0,0.6655,0,97,97,111,1,ticket,images/br_ticket.png,images/cb_ticket.png,0,,,,,,,,,,,,,,,,,,,,,,
,,,,,,00045,2023-10-08_18h01.39.285,vbt_B1_day2,2022.2.4,Win32,60.09976561,,,,,,,,,,,,,,,,,,,,,,,,,,,down,0,4.3636,,-0.675925926,-0.017592607,1,0,0,0.3165,0,98,98,160,1,daarheen,images/br_daarheen.png,images/cb_daarheen.png,0,,,,,,,,,,,,,,,,,,,,,,
,,,,,,00045,2023-10-08_18h01.39.285,vbt_B1_day2,2022.2.4,Win32,60.09976561,,,,,,,,,,,,,,,,,,,,,,,,,,,down,0,2.7466,,-0.675925926,-0.017592607,1,0,0,0.3328,0,99,99,119,1,liefje,images/br_liefje.png,images/cb_liefje.png,0,,,,,,,,,,,,,,,,,,,,,,
,,,,,,00045,2023-10-08_18h01.39.285,vbt_B1_day2,2022.2.4,Win32,60.09976561,,,,,,,,,,,,,,,,,,,,,,,,,,,down,0,0.4921,,-0.675925926,-0.017592607,1,0,0,0.6983,0,100,100,190,1,goedkoop,images/br_goedkoop.png,images/cb_goedkoop.png,0,,,,,,,,,,,,,,,,,,,,,,
,,,,,,00045,2023-10-08_18h01.39.285,vbt_B1_day2,2022.2.4,Win32,60.09976561,,,,,,,,,,,,,,,,,,,,,,,,,,,down,0,1.7981,,-0.675925926,-0.017592607,1,0,0,0.6155,0,101,101,88,1,boeien,images/br_boeien.png,images/cb_boeien.png,0,,,,,,,,,,,,,,,,,,,,,,
,,,,,,00045,2023-10-08_18h01.39.285,vbt_B1_day2,2022.2.4,Win32,60.09976561,,,,,,,,,,,,,,,,,,,,,,,,,,,down,0,6.8295,,-0.675925926,-0.017592607,1,0,0,0.4375,0,102,102,176,1,techniek,images/br_techniek.png,images/cb_techniek.png,1,techniek,,,,,,,,,,,,,,,,,,,,,
,,,,,,00045,2023-10-08_18h01.39.285,vbt_B1_day2,2022.2.4,Win32,60.09976561,,,,,,,,,,,,,,,,,,,,,,,,,,,down,0,0.29,,-0.675925926,-0.017592607,1,0,0,0.4158,0,103,103,166,1,strikken,images/br_strikken.png,images/cb_strikken.png,0,,,,,,,,,,,,,,,,,,,,,,
,,,,,,00045,2023-10-08_18h01.39.285,vbt_B1_day2,2022.2.4,Win32,60.09976561,,,,,,,,,,,,,,,,,,,,,,,,,,,down,0,1.7551,,-0.675925926,-0.017592607,1,0,0,0.5323,0,104,104,77,1,woede,images/br_woede.png,images/cb_woede.png,0,,,,,,,,,,,,,,,,,,,,,,
,,,,,,00045,2023-10-08_18h01.39.285,vbt_B1_day2,2022.2.4,Win32,60.09976561,,,,,,,,,,,,,,,,,,,,,,,,,,,down,0,2.9047,,-0.675925926,-0.017592607,1,0,0,0.4324,0,105,105,97,1,loyaal,images/br_loyaal.png,images/cb_loyaal.png,1,loyaal,,,,,,,,,,,,,,,,,,,,,
,,,,,,00045,2023-10-08_18h01.39.285,vbt_B1_day2,2022.2.4,Win32,60.09976561,,,,,,,,,,,,,,,,,,,,,,,,,,,down,0,0.3999,,-0.675925926,-0.017592607,1,0,0,0.7485,0,106,106,110,1,zuster,images/br_zuster.png,images/cb_zuster.png,0,,,,,,,,,,,,,,,,,,,,,,
,,,,,,00045,2023-10-08_18h01.39.285,vbt_B1_day2,2022.2.4,Win32,60.09976561,,,,,,,,,,,,,,,,,,,,,,,,,,,down,0,0.1088,,-0.675925926,-0.017592607,1,0,0,0.5656,0,107,107,65,1,parel,images/br_parel.png,images/cb_parel.png,0,,,,,,,,,,,,,,,,,,,,,,
,,,,,,00045,2023-10-08_18h01.39.285,vbt_B1_day2,2022.2.4,Win32,60.09976561,,,,,,,,,,,,,,,,,,,,,,,,,,,down,0,2.1141,,-0.675925926,-0.017592607,1,0,0,0.2993,0,108,108,67,1,zwart,images/br_zwart.png,images/cb_zwart.png,0,,,,,,,,,,,,,,,,,,,,,,
,,,,,,00045,2023-10-08_18h01.39.285,vbt_B1_day2,2022.2.4,Win32,60.09976561,,,,,,,,,,,,,,,,,,,,,,,,,,,down,0,12.8135,,-0.675925926,-0.017592607,1,0,0,1.7137,0,109,109,164,1,anarchie,images/br_anarchie.png,images/cb_anarchie.png,0,,,,,,,,,,,,,,,,,,,,,,
,,,,,,00045,2023-10-08_18h01.39.285,vbt_B1_day2,2022.2.4,Win32,60.09976561,,,,,,,,,,,,,,,,,,,,,,,,,,,down,0,8.2964,,-0.675925926,-0.017592607,1,0,0,0.4158,0,110,110,46,1,jagen,images/br_jagen.png,images/cb_jagen.png,0,,,,,,,,,,,,,,,,,,,,,,
,,,,,,00045,2023-10-08_18h01.39.285,vbt_B1_day2,2022.2.4,Win32,60.09976561,,,,,,,,,,,,,,,,,,,,,,,,,,,down,0,4.7266,,-0.675925926,-0.017592607,1,0,0,0.5823,0,111,111,101,1,staren,images/br_staren.png,images/cb_staren.png,0,,,,,,,,,,,,,,,,,,,,,,
,,,,,,00045,2023-10-08_18h01.39.285,vbt_B1_day2,2022.2.4,Win32,60.09976561,,,,,,,,,,,,,,,,,,,,,,,,,,,down,0,3.9313,,-0.675925926,-0.017592607,1,0,0,0.2993,0,112,112,103,1,joggen,images/br_joggen.png,images/cb_joggen.png,0,,,,,,,,,,,,,,,,,,,,,,
,,,,,,00045,2023-10-08_18h01.39.285,vbt_B1_day2,2022.2.4,Win32,60.09976561,,,,,,,,,,,,,,,,,,,,,,,,,,,down,0,6.5579,,-0.675925926,-0.017592607,1,0,0,0.9483,0,113,113,37,1,mijn,images/br_mijn.png,images/cb_mijn.png,0,,,,,,,,,,,,,,,,,,,,,,
,,,,,,00045,2023-10-08_18h01.39.285,vbt_B1_day2,2022.2.4,Win32,60.09976561,,,,,,,,,,,,,,,,,,,,,,,,,,,down,0,0.1568,,-0.675925926,-0.017592607,1,0,0,0.582,0,114,114,45,1,piste,images/br_piste.png,images/cb_piste.png,0,,,,,,,,,,,,,,,,,,,,,,
,,,,,,00045,2023-10-08_18h01.39.285,vbt_B1_day2,2022.2.4,Win32,60.09976561,,,,,,,,,,,,,,,,,,,,,,,,,,,down,0,2.5633,,-0.675925926,-0.017592607,1,0,0,0.7822,0,115,115,181,1,toegeven,images/br_toegeven.png,images/cb_toegeven.png,0,,,,,,,,,,,,,,,,,,,,,,
,,,,,,00045,2023-10-08_18h01.39.285,vbt_B1_day2,2022.2.4,Win32,60.09976561,,,,,,,,,,,,,,,,,,,,,,,,,,,down,0,6.0079,,-0.675925926,-0.017592607,1,0,0,0.5324,0,116,116,147,1,komisch,images/br_komisch.png,images/cb_komisch.png,0,,,,,,,,,,,,,,,,,,,,,,
,,,,,,00045,2023-10-08_18h01.39.285,vbt_B1_day2,2022.2.4,Win32,60.09976561,,,,,,,,,,,,,,,,,,,,,,,,,,,down,0,0.8834,,-0.675925926,-0.017592607,1,0,0,0.3166,0,117,117,112,1,lukken,images/br_lukken.png,images/cb_lukken.png,0,,,,,,,,,,,,,,,,,,,,,,
,,,,,,00045,2023-10-08_18h01.39.285,vbt_B1_day2,2022.2.4,Win32,60.09976561,,,,,,,,,,,,,,,,,,,,,,,,,,,down,0,1.6817,,-0.675925926,-0.017592607,1,0,0,0.4825,0,118,118,19,1,geit,images/br_geit.png,images/cb_geit.png,1,geit,,,,,,,,,,,,,,,,,,,,,
,,,,,,00045,2023-10-08_18h01.39.285,vbt_B1_day2,2022.2.4,Win32,60.09976561,,,,,,,,,,,,,,,,,,,,,,,,,,,down,0,2.2811,,-0.675925926,-0.017592607,1,0,0,0.4491,0,119,119,162,1,uitdelen,images/br_uitdelen.png,images/cb_uitdelen.png,0,,,,,,,,,,,,,,,,,,,,,,
,,,,,,00045,2023-10-08_18h01.39.285,vbt_B1_day2,2022.2.4,Win32,60.09976561,,,,,,,,,,,,,,,,,,,,,,,,,,,down,0,8.5268,,-0.675925926,-0.017592607,1,0,0,2.812,0,120,120,153,1,vervoer,images/br_vervoer.png,images/cb_vervoer.png,0,,,,,,,,,,,,,,,,,,,,,,
,,,,,,00045,2023-10-08_18h01.39.285,vbt_B1_day2,2022.2.4,Win32,60.09976561,,,,,,,,,,,,,,,,,,,,,,,,,,,down,0,0.9494,,-0.675925926,-0.017592607,1,0,0,0.7486,0,121,121,151,1,aanzoek,images/br_aanzoek.png,images/cb_aanzoek.png,0,,,,,,,,,,,,,,,,,,,,,,
,,,,,,00045,2023-10-08_18h01.39.285,vbt_B1_day2,2022.2.4,Win32,60.09976561,,,,,,,,,,,,,,,,,,,,,,,,,,,down,0,2.5129,,-0.675925926,-0.017592607,1,0,0,0.5322,0,122,122,35,1,lust,images/br_lust.png,images/cb_lust.png,0,,,,,,,,,,,,,,,,,,,,,,
,,,,,,00045,2023-10-08_18h01.39.285,vbt_B1_day2,2022.2.4,Win32,60.09976561,,,,,,,,,,,,,,,,,,,,,,,,,,,down,0,5.259,,-0.675925926,-0.017592607,1,0,0,1.0815,0,123,123,85,1,heilig,images/br_heilig.png,images/cb_heilig.png,0,,,,,,,,,,,,,,,,,,,,,,
,,,,,,00045,2023-10-08_18h01.39.285,vbt_B1_day2,2022.2.4,Win32,60.09976561,,,,,,,,,,,,,,,,,,,,,,,,,,,down,0,4.5981,,-0.675925926,-0.017592607,1,0,0,0.9481,0,124,124,27,1,dans,images/br_dans.png,images/cb_dans.png,0,,,,,,,,,,,,,,,,,,,,,,
,,,,,,00045,2023-10-08_18h01.39.285,vbt_B1_day2,2022.2.4,Win32,60.09976561,,,,,,,,,,,,,,,,,,,,,,,,,,,down,0,4.86,,-0.675925926,-0.017592607,1,0,0,3.2112,0,125,125,123,1,hiervan,images/br_hiervan.png,images/cb_hiervan.png,0,,,,,,,,,,,,,,,,,,,,,,
,,,,,,00045,2023-10-08_18h01.39.285,vbt_B1_day2,2022.2.4,Win32,60.09976561,,,,,,,,,,,,,,,,,,,,,,,,,,,down,0,4.5599,,-0.675925926,-0.017592607,1,0,0,0.549,0,126,126,188,1,strekken,images/br_strekken.png,images/cb_strekken.png,0,,,,,,,,,,,,,,,,,,,,,,
,,,,,,00045,2023-10-08_18h01.39.285,vbt_B1_day2,2022.2.4,Win32,60.09976561,,,,,,,,,,,,,,,,,,,,,,,,,,,down,0,6.2261,,-0.675925926,-0.017592607,1,0,0,0.7488,0,127,127,157,1,uitlaat,images/br_uitlaat.png,images/cb_uitlaat.png,0,,,,,,,,,,,,,,,,,,,,,,
,,,,,,00045,2023-10-08_18h01.39.285,vbt_B1_day2,2022.2.4,Win32,60.09976561,,,,,,,,,,,,,,,,,,,,,,,,,,,down,0,2.5635,,-0.675925926,-0.017592607,1,0,0,0.9479,0,128,128,189,1,aanraden,images/br_aanraden.png,images/cb_aanraden.png,0,,,,,,,,,,,,,,,,,,,,,,
,,,,,,00045,2023-10-08_18h01.39.285,vbt_B1_day2,2022.2.4,Win32,60.09976561,,,,,,,,,,,,,,,,,,,,,,,,,,,down,0,8.8539,,-0.675925926,-0.017592607,1,0,0,0.8814,0,129,129,131,1,opzicht,images/br_opzicht.png,images/cb_opzicht.png,0,,,,,,,,,,,,,,,,,,,,,,
,,,,,,00045,2023-10-08_18h01.39.285,vbt_B1_day2,2022.2.4,Win32,60.09976561,,,,,,,,,,,,,,,,,,,,,,,,,,,down,0,1.0913,,-0.675925926,-0.017592607,1,0,0,0.3497,0,130,130,114,1,vullen,images/br_vullen.png,images/cb_vullen.png,0,,,,,,,,,,,,,,,,,,,,,,
,,,,,,00045,2023-10-08_18h01.39.285,vbt_B1_day2,2022.2.4,Win32,60.09976561,,,,,,,,,,,,,,,,,,,,,,,,,,,down,0,4.6464,,-0.675925926,-0.017592607,1,0,0,0.2996,0,131,131,144,1,eetlust,images/br_eetlust.png,images/cb_eetlust.png,0,,,,,,,,,,,,,,,,,,,,,,
,,,,,,00045,2023-10-08_18h01.39.285,vbt_B1_day2,2022.2.4,Win32,60.09976561,,,,,,,,,,,,,,,,,,,,,,,,,,,down,0,0.4843,,-0.675925926,-0.017592607,1,0,0,0.6156,0,132,132,43,1,klauw,images/br_klauw.png,images/cb_klauw.png,0,,,,,,,,,,,,,,,,,,,,,,
,,,,,,00045,2023-10-08_18h01.39.285,vbt_B1_day2,2022.2.4,Win32,60.09976561,,,,,,,,,,,,,,,,,,,,,,,,,,,down,0,0.8547,,-0.675925926,-0.017592607,1,0,0,0.6156,0,133,133,155,1,gerucht,images/br_gerucht.png,images/cb_gerucht.png,0,,,,,,,,,,,,,,,,,,,,,,
,,,,,,00045,2023-10-08_18h01.39.285,vbt_B1_day2,2022.2.4,Win32,60.09976561,,,,,,,,,,,,,,,,,,,,,,,,,,,down,0,3.0126,,-0.675925926,-0.017592607,1,0,0,0.5654,0,134,134,74,1,graaf,images/br_graaf.png,images/cb_graaf.png,0,,,,,,,,,,,,,,,,,,,,,,
,,,,,,00045,2023-10-08_18h01.39.285,vbt_B1_day2,2022.2.4,Win32,60.09976561,,,,,,,,,,,,,,,,,,,,,,,,,,,down,0,0.2688,,-0.675925926,-0.017592607,1,0,0,0.8151,0,135,135,75,1,snoep,images/br_snoep.png,images/cb_snoep.png,0,,,,,,,,,,,,,,,,,,,,,,
,,,,,,00045,2023-10-08_18h01.39.285,vbt_B1_day2,2022.2.4,Win32,60.09976561,,,,,,,,,,,,,,,,,,,,,,,,,,,down,0,0.284,,-0.675925926,-0.017592607,1,0,0,0.3651,0,136,136,163,1,schuilen,images/br_schuilen.png,images/cb_schuilen.png,0,,,,,,,,,,,,,,,,,,,,,,
,,,,,,00045,2023-10-08_18h01.39.285,vbt_B1_day2,2022.2.4,Win32,60.09976561,,,,,,,,,,,,,,,,,,,,,,,,,,,down,0,7.4624,,-0.675925926,-0.017592607,1,0,0,0.3495,0,137,137,118,1,vinger,images/br_vinger.png,images/cb_vinger.png,0,,,,,,,,,,,,,,,,,,,,,,
,,,,,,00045,2023-10-08_18h01.39.285,vbt_B1_day2,2022.2.4,Win32,60.09976561,,,,,,,,,,,,,,,,,,,,,,,,,,,down,0,1.1001,,-0.675925926,-0.017592607,1,0,0,0.6322,0,138,138,102,1,legaal,images/br_legaal.png,images/cb_legaal.png,0,,,,,,,,,,,,,,,,,,,,,,
,,,,,,00045,2023-10-08_18h01.39.285,vbt_B1_day2,2022.2.4,Win32,60.09976561,,,,,,,,,,,,,,,,,,,,,,,,,,,down,0,0.5758,,-0.675925926,-0.017592607,1,0,0,0.5493,0,139,139,172,1,weigeren,images/br_weigeren.png,images/cb_weigeren.png,0,,,,,,,,,,,,,,,,,,,,,,
,,,,,,00045,2023-10-08_18h01.39.285,vbt_B1_day2,2022.2.4,Win32,60.09976561,,,,,,,,,,,,,,,,,,,,,,,,,,,down,0,3.1482,,-0.675925926,-0.017592607,1,0,0,1.847,0,140,140,165,1,feestdag,images/br_feestdag.png,images/cb_feestdag.png,0,,,,,,,,,,,,,,,,,,,,,,
,,,,,,00045,2023-10-08_18h01.39.285,vbt_B1_day2,2022.2.4,Win32,60.09976561,,,,,,,,,,,,,,,,,,,,,,,,,,,down,0,9.7439,,-0.675925926,-0.017592607,1,0,0,0.316,0,141,141,30,1,uien,images/br_uien.png,images/cb_uien.png,0,,,,,,,,,,,,,,,,,,,,,,
,,,,,,00045,2023-10-08_18h01.39.285,vbt_B1_day2,2022.2.4,Win32,60.09976561,,,,,,,,,,,,,,,,,,,,,,,,,,,down,0,3.1628,,-0.675925926,-0.017592607,1,0,0,0.4658,0,142,142,63,1,flirt,images/br_flirt.png,images/cb_flirt.png,0,,,,,,,,,,,,,,,,,,,,,,
,,,,,,00045,2023-10-08_18h01.39.285,vbt_B1_day2,2022.2.4,Win32,60.09976561,,,,,,,,,,,,,,,,,,,,,,,,,,,down,0,0.321,,-0.675925926,-0.017592607,1,0,0,0.7656,0,143,143,145,1,invloed,images/br_invloed.png,images/cb_invloed.png,0,,,,,,,,,,,,,,,,,,,,,,
,,,,,,00045,2023-10-08_18h01.39.285,vbt_B1_day2,2022.2.4,Win32,60.09976561,,,,,,,,,,,,,,,,,,,,,,,,,,,down,0,0.8906,,-0.675925926,-0.017592607,1,0,0,0.433,0,144,144,17,1,taal,images/br_taal.png,images/cb_taal.png,1,taal,,,,,,,,,,,,,,,,,,,,,
,,,,,,00045,2023-10-08_18h01.39.285,vbt_B1_day2,2022.2.4,Win32,60.09976561,,,,,,,,,,,,,,,,,,,,,,,,,,,down,0,0.9672,,-0.675925926,-0.017592607,1,0,0,0.6823,0,145,145,197,1,spanning,images/br_spanning.png,images/cb_spanning.png,0,,,,,,,,,,,,,,,,,,,,,,
,,,,,,00045,2023-10-08_18h01.39.285,vbt_B1_day2,2022.2.4,Win32,60.09976561,,,,,,,,,,,,,,,,,,,,,,,,,,,down,0,0.0172,,-0.675925926,-0.017592607,1,0,0,0.5492,0,146,146,116,1,besmet,images/br_besmet.png,images/cb_besmet.png,0,,,,,,,,,,,,,,,,,,,,,,
,,,,,,00045,2023-10-08_18h01.39.285,vbt_B1_day2,2022.2.4,Win32,60.09976561,,,,,,,,,,,,,,,,,,,,,,,,,,,down,0,4.2703,,-0.675925926,-0.017592607,1,0,0,0.3325,0,147,147,177,1,maaltijd,images/br_maaltijd.png,images/cb_maaltijd.png,1,maaltijd,,,,,,,,,,,,,,,,,,,,,
,,,,,,00045,2023-10-08_18h01.39.285,vbt_B1_day2,2022.2.4,Win32,60.09976561,,,,,,,,,,,,,,,,,,,,,,,,,,,down,0,1.8152,,-0.675925926,-0.017592607,1,0,0,1.914,0,148,148,49,1,laken,images/br_laken.png,images/cb_laken.png,0,,,,,,,,,,,,,,,,,,,,,,
,,,,,,00045,2023-10-08_18h01.39.285,vbt_B1_day2,2022.2.4,Win32,60.09976561,,,,,,,,,,,,,,,,,,,,,,,,,,,down,0,2.3545,,-0.675925926,-0.017592607,1,0,0,1.2811,0,149,149,141,1,knielen,images/br_knielen.png,images/cb_knielen.png,0,,,,,,,,,,,,,,,,,,,,,,
,,,,,,00045,2023-10-08_18h01.39.285,vbt_B1_day2,2022.2.4,Win32,60.09976561,,,,,,,,,,,,,,,,,,,,,,,,,,,down,0,0.5504,,-0.675925926,-0.017592607,1,0,0,0.5155,0,150,150,142,1,snuiven,images/br_snuiven.png,images/cb_snuiven.png,0,,,,,,,,,,,,,,,,,,,,,,
,,,,,,00045,2023-10-08_18h01.39.285,vbt_B1_day2,2022.2.4,Win32,60.09976561,,,,,,,,,,,,,,,,,,,,,,,,,,,down,0,0.001,,-0.675925926,-0.017592607,1,0,0,1.7971,0,151,151,92,1,geheim,images/br_geheim.png,images/cb_geheim.png,0,,,,,,,,,,,,,,,,,,,,,,
,,,,,,00045,2023-10-08_18h01.39.285,vbt_B1_day2,2022.2.4,Win32,60.09976561,,,,,,,,,,,,,,,,,,,,,,,,,,,down,0,5.9575,,-0.675925926,-0.017592607,1,0,0,0.3326,0,152,152,170,1,schatten,images/br_schatten.png,images/cb_schatten.png,0,,,,,,,,,,,,,,,,,,,,,,
,,,,,,00045,2023-10-08_18h01.39.285,vbt_B1_day2,2022.2.4,Win32,60.09976561,,,,,,,,,,,,,,,,,,,,,,,,,,,down,0,0.1186,,-0.675925926,-0.017592607,1,0,0,0.6488,0,153,153,86,1,woning,images/br_woning.png,images/cb_woning.png,0,,,,,,,,,,,,,,,,,,,,,,
,,,,,,00045,2023-10-08_18h01.39.285,vbt_B1_day2,2022.2.4,Win32,60.09976561,,,,,,,,,,,,,,,,,,,,,,,,,,,down,0,6.0744,,-0.675925926,-0.017592607,1,0,0,1.0315,0,154,154,20,1,site,images/br_site.png,images/cb_site.png,0,,,,,,,,,,,,,,,,,,,,,,
,,,,,,00045,2023-10-08_18h01.39.285,vbt_B1_day2,2022.2.4,Win32,60.09976561,,,,,,,,,,,,,,,,,,,,,,,,,,,down,0,6.729,,-0.676851855,-0.01666666,1,0,0,0.4991,0,155,155,59,1,kring,images/br_kring.png,images/cb_kring.png,1,kring,,,,,,,,,,,,,,,,,,,,,
,,,,,,00045,2023-10-08_18h01.39.285,vbt_B1_day2,2022.2.4,Win32,60.09976561,,,,,,,,,,,,,,,,,,,,,,,,,,,down,0,5.3589,,-0.676851855,-0.01666666,1,0,0,0.3657,0,156,156,139,1,stiekem,images/br_stiekem.png,images/cb_stiekem.png,1,stiekem,,,,,,,,,,,,,,,,,,,,,
,,,,,,00045,2023-10-08_18h01.39.285,vbt_B1_day2,2022.2.4,Win32,60.09976561,,,,,,,,,,,,,,,,,,,,,,,,,,,down,0,0.3381,,-0.676851855,-0.01666666,1,0,0,0.4491,0,157,157,104,1,zweven,images/br_zweven.png,images/cb_zweven.png,0,,,,,,,,,,,,,,,,,,,,,,
,,,,,,00045,2023-10-08_18h01.39.285,vbt_B1_day2,2022.2.4,Win32,60.09976561,,,,,,,,,,,,,,,,,,,,,,,,,,,down,0,4.0235,,-0.676851855,-0.01666666,1,0,0,0.6819,0,158,158,128,1,prikken,images/br_prikken.png,images/cb_prikken.png,0,,,,,,,,,,,,,,,,,,,,,,
,,,,,,00045,2023-10-08_18h01.39.285,vbt_B1_day2,2022.2.4,Win32,60.09976561,,,,,,,,,,,,,,,,,,,,,,,,,,,down,0,0.3561,,-0.676851855,-0.01666666,1,0,0,0.865,0,159,159,175,1,heengaan,images/br_heengaan.png,images/cb_heengaan.png,0,,,,,,,,,,,,,,,,,,,,,,
,,,,,,00045,2023-10-08_18h01.39.285,vbt_B1_day2,2022.2.4,Win32,60.09976561,,,,,,,,,,,,,,,,,,,,,,,,,,,down,0,3.5845,,-0.676851855,-0.01666666,1,0,0,0.3658,0,160,160,134,1,geliefd,images/br_geliefd.png,images/cb_geliefd.png,0,,,,,,,,,,,,,,,,,,,,,,
,,,,,,00045,2023-10-08_18h01.39.285,vbt_B1_day2,2022.2.4,Win32,60.09976561,,,,,,,,,,,,,,,,,,,,,,,,,,,down,0,1.1822,,-0.676851855,-0.01666666,1,0,0,0.6489,0,161,161,126,1,kasteel,images/br_kasteel.png,images/cb_kasteel.png,0,,,,,,,,,,,,,,,,,,,,,,
,,,,,,00045,2023-10-08_18h01.39.285,vbt_B1_day2,2022.2.4,Win32,60.09976561,,,,,,,,,,,,,,,,,,,,,,,,,,,down,0,4.3604,,-0.676851855,-0.01666666,1,0,0,0.4825,0,162,162,60,1,jasje,images/br_jasje.png,images/cb_jasje.png,0,,,,,,,,,,,,,,,,,,,,,,
,,,,,,00045,2023-10-08_18h01.39.285,vbt_B1_day2,2022.2.4,Win32,60.09976561,,,,,,,,,,,,,,,,,,,,,,,,,,,down,0,1.6317,,-0.676851855,-0.01666666,1,0,0,0.3823,0,163,163,84,1,lokken,images/br_lokken.png,images/cb_lokken.png,0,,,,,,,,,,,,,,,,,,,,,,
,,,,,,00045,2023-10-08_18h01.39.285,vbt_B1_day2,2022.2.4,Win32,60.09976561,,,,,,,,,,,,,,,,,,,,,,,,,,,down,0,0.1979,,-0.676851855,-0.01666666,1,0,0,0.698,0,164,164,51,1,samen,images/br_samen.png,images/cb_samen.png,0,,,,,,,,,,,,,,,,,,,,,,
,,,,,,00045,2023-10-08_18h01.39.285,vbt_B1_day2,2022.2.4,Win32,60.09976561,,,,,,,,,,,,,,,,,,,,,,,,,,,down,0,0.1175,,-0.676851855,-0.01666666,1,0,0,0.4656,0,165,165,33,1,vlek,images/br_vlek.png,images/cb_vlek.png,0,,,,,,,,,,,,,,,,,,,,,,
,,,,,,00045,2023-10-08_18h01.39.285,vbt_B1_day2,2022.2.4,Win32,60.09976561,,,,,,,,,,,,,,,,,,,,,,,,,,,down,0,6.0607,,-0.676851855,-0.01666666,1,0,0,0.3657,0,166,166,127,1,doodmoe,images/br_doodmoe.png,images/cb_doodmoe.png,0,,,,,,,,,,,,,,,,,,,,,,
,,,,,,00045,2023-10-08_18h01.39.285,vbt_B1_day2,2022.2.4,Win32,60.09976561,,,,,,,,,,,,,,,,,,,,,,,,,,,down,0,1.0991,,-0.676851855,-0.01666666,1,0,0,0.4991,0,167,167,146,1,opkomen,images/br_opkomen.png,images/cb_opkomen.png,0,,,,,,,,,,,,,,,,,,,,,,
,,,,,,00045,2023-10-08_18h01.39.285,vbt_B1_day2,2022.2.4,Win32,60.09976561,,,,,,,,,,,,,,,,,,,,,,,,,,,down,0,1.483,,-0.676851855,-0.01666666,1,0,0,0.2496,0,168,168,120,1,klimmen,images/br_klimmen.png,images/cb_klimmen.png,0,,,,,,,,,,,,,,,,,,,,,,
,,,,,,00045,2023-10-08_18h01.39.285,vbt_B1_day2,2022.2.4,Win32,60.09976561,,,,,,,,,,,,,,,,,,,,,,,,,,,down,0,2.2983,,-0.676851855,-0.01666666,1,0,0,0.3324,0,169,169,186,1,voorraad,images/br_voorraad.png,images/cb_voorraad.png,0,,,,,,,,,,,,,,,,,,,,,,
,,,,,,00045,2023-10-08_18h01.39.285,vbt_B1_day2,2022.2.4,Win32,60.09976561,,,,,,,,,,,,,,,,,,,,,,,,,,,down,0,2.8129,,-0.676851855,-0.01666666,1,0,0,0.3325,0,170,170,95,1,vreten,images/br_vreten.png,images/cb_vreten.png,0,,,,,,,,,,,,,,,,,,,,,,
,,,,,,00045,2023-10-08_18h01.39.285,vbt_B1_day2,2022.2.4,Win32,60.09976561,,,,,,,,,,,,,,,,,,,,,,,,,,,down,0,5.0441,,-0.676851855,-0.01666666,1,0,0,0.2827,0,171,171,15,1,soda,images/br_soda.png,images/cb_soda.png,0,,,,,,,,,,,,,,,,,,,,,,
,,,,,,00045,2023-10-08_18h01.39.285,vbt_B1_day2,2022.2.4,Win32,60.09976561,,,,,,,,,,,,,,,,,,,,,,,,,,,down,0,1.5158,,-0.676851855,-0.01666666,1,0,0,0.832,0,172,172,3,1,mand,images/br_mand.png,images/cb_mand.png,0,,,,,,,,,,,,,,,,,,,,,,
,,,,,,00045,2023-10-08_18h01.39.285,vbt_B1_day2,2022.2.4,Win32,60.09976561,,,,,,,,,,,,,,,,,,,,,,,,,,,down,0,0.6408,,-0.676851855,-0.01666666,1,0,0,0.4152,0,173,173,25,1,plek,images/br_plek.png,images/cb_plek.png,0,,,,,,,,,,,,,,,,,,,,,,
,,,,,,00045,2023-10-08_18h01.39.285,vbt_B1_day2,2022.2.4,Win32,60.09976561,,,,,,,,,,,,,,,,,,,,,,,,,,,down,0,0.1086,,-0.676851855,-0.01666666,1,0,0,0.5156,0,174,174,8,1,knie,images/br_knie.png,images/cb_knie.png,0,,,,,,,,,,,,,,,,,,,,,,
,,,,,,00045,2023-10-08_18h01.39.285,vbt_B1_day2,2022.2.4,Win32,60.09976561,,,,,,,,,,,,,,,,,,,,,,,,,,,down,0,0.3376,,-0.676851855,-0.01666666,1,0,0,0.6322,0,175,175,52,1,wagon,images/br_wagon.png,images/cb_wagon.png,0,,,,,,,,,,,,,,,,,,,,,,
,,,,,,00045,2023-10-08_18h01.39.285,vbt_B1_day2,2022.2.4,Win32,60.09976561,,,,,,,,,,,,,,,,,,,,,,,,,,,down,0,6.7166,,-0.676851855,-0.01666666,1,0,0,1.8307,0,176,176,129,1,verhaal,images/br_verhaal.png,images/cb_verhaal.png,0,,,,,,,,,,,,,,,,,,,,,,
,,,,,,00045,2023-10-08_18h01.39.285,vbt_B1_day2,2022.2.4,Win32,60.09976561,,,,,,,,,,,,,,,,,,,,,,,,,,,down,0,0.7377,,-0.676851855,-0.01666666,1,0,0,0.6816,0,177,177,108,1,excuus,images/br_excuus.png,images/cb_excuus.png,0,,,,,,,,,,,,,,,,,,,,,,
,,,,,,00045,2023-10-08_18h01.39.285,vbt_B1_day2,2022.2.4,Win32,60.09976561,,,,,,,,,,,,,,,,,,,,,,,,,,,down,0,3.5782,,-0.676851855,-0.01666666,1,0,0,0.9818,0,178,178,107,1,maling,images/br_maling.png,images/cb_maling.png,0,,,,,,,,,,,,,,,,,,,,,,
,,,,,,00045,2023-10-08_18h01.39.285,vbt_B1_day2,2022.2.4,Win32,60.09976561,,,,,,,,,,,,,,,,,,,,,,,,,,,down,0,9.2886,,-0.676851855,-0.01666666,1,0,0,0.3659,0,179,179,143,1,hechten,images/br_hechten.png,images/cb_hechten.png,0,,,,,,,,,,,,,,,,,,,,,,
,,,,,,00045,2023-10-08_18h01.39.285,vbt_B1_day2,2022.2.4,Win32,60.09976561,,,,,,,,,,,,,,,,,,,,,,,,,,,down,0,0.2668,,-0.676851855,-0.01666666,1,0,0,0.3824,0,180,180,41,1,maken,images/br_maken.png,images/cb_maken.png,0,,,,,,,,,,,,,,,,,,,,,,
,,,,,,00045,2023-10-08_18h01.39.285,vbt_B1_day2,2022.2.4,Win32,60.09976561,,,,,,,,,,,,,,,,,,,,,,,,,,,down,0,1.2495,,-0.676851855,-0.01666666,1,0,0,0.7986,0,181,181,105,1,wijlen,images/br_wijlen.png,images/cb_wijlen.png,0,,,,,,,,,,,,,,,,,,,,,,
,,,,,,00045,2023-10-08_18h01.39.285,vbt_B1_day2,2022.2.4,Win32,60.09976561,,,,,,,,,,,,,,,,,,,,,,,,,,,down,0,3.8028,,-0.676851855,-0.01666666,1,0,0,0.9317,0,182,182,159,1,sufferd,images/br_sufferd.png,images/cb_sufferd.png,0,,,,,,,,,,,,,,,,,,,,,,
,,,,,,00045,2023-10-08_18h01.39.285,vbt_B1_day2,2022.2.4,Win32,60.09976561,,,,,,,,,,,,,,,,,,,,,,,,,,,down,0,6.008,,-0.676851855,-0.01666666,1,0,0,5.2915,0,183,183,100,1,geduld,images/br_geduld.png,images/cb_geduld.png,0,,,,,,,,,,,,,,,,,,,,,,
,,,,,,00045,2023-10-08_18h01.39.285,vbt_B1_day2,2022.2.4,Win32,60.09976561,,,,,,,,,,,,,,,,,,,,,,,,,,,down,0,4.3847,,-0.676851855,-0.01666666,1,0,0,0.5822,0,184,184,115,1,kleren,images/br_kleren.png,images/cb_kleren.png,0,,,,,,,,,,,,,,,,,,,,,,
,,,,,,00045,2023-10-08_18h01.39.285,vbt_B1_day2,2022.2.4,Win32,60.09976561,,,,,,,,,,,,,,,,,,,,,,,,,,,down,0,24.2948,,-0.676851855,-0.01666666,1,0,0,6.5061,0,185,185,180,1,openbaar,images/br_openbaar.png,images/cb_openbaar.png,0,,,,,,,,,,,,,,,,,,,,,,
,,,,,,00045,2023-10-08_18h01.39.285,vbt_B1_day2,2022.2.4,Win32,60.09976561,,,,,,,,,,,,,,,,,,,,,,,,,,,down,0,5.0837,,-0.676851855,-0.01666666,1,0,0,0.8321,0,186,186,161,1,attentie,images/br_attentie.png,images/cb_attentie.png,0,,,,,,,,,,,,,,,,,,,,,,
,,,,,,00045,2023-10-08_18h01.39.285,vbt_B1_day2,2022.2.4,Win32,60.09976561,,,,,,,,,,,,,,,,,,,,,,,,,,,down,0,0.2371,,-0.676851855,-0.01666666,1,0,0,0.9814,0,187,187,194,1,driemaal,images/br_driemaal.png,images/cb_driemaal.png,0,,,,,,,,,,,,,,,,,,,,,,
,,,,,,00045,2023-10-08_18h01.39.285,vbt_B1_day2,2022.2.4,Win32,60.09976561,,,,,,,,,,,,,,,,,,,,,,,,,,,down,0,0.1054,,-0.676851855,-0.01666666,1,0,0,0.9977,0,188,188,93,1,waarop,images/br_waarop.png,images/cb_waarop.png,0,,,,,,,,,,,,,,,,,,,,,,
,,,,,,00045,2023-10-08_18h01.39.285,vbt_B1_day2,2022.2.4,Win32,60.09976561,,,,,,,,,,,,,,,,,,,,,,,,,,,down,0,4.2196,,-0.676851855,-0.01666666,1,0,0,0.2494,0,189,189,109,1,totaal,images/br_totaal.png,images/cb_totaal.png,0,,,,,,,,,,,,,,,,,,,,,,
,,,,,,00045,2023-10-08_18h01.39.285,vbt_B1_day2,2022.2.4,Win32,60.09976561,,,,,,,,,,,,,,,,,,,,,,,,,,,down,0,5.2422,,-0.676851855,-0.01666666,1,0,0,0.3827,0,190,190,195,1,middelen,images/br_middelen.png,images/cb_middelen.png,0,,,,,,,,,,,,,,,,,,,,,,
,,,,,,00045,2023-10-08_18h01.39.285,vbt_B1_day2,2022.2.4,Win32,60.09976561,,,,,,,,,,,,,,,,,,,,,,,,,,,down,0,1.9739,,-0.676851855,-0.01666666,1,0,0,0.8654,0,191,191,117,1,kennis,images/br_kennis.png,images/cb_kennis.png,0,,,,,,,,,,,,,,,,,,,,,,
,,,,,,00045,2023-10-08_18h01.39.285,vbt_B1_day2,2022.2.4,Win32,60.09976561,,,,,,,,,,,,,,,,,,,,,,,,,,,down,0,0.4834,,-0.676851855,-0.01666666,1,0,0,0.9649,0,192,192,78,1,leren,images/br_leren.png,images/cb_leren.png,0,,,,,,,,,,,,,,,,,,,,,,
,,,,,,00045,2023-10-08_18h01.39.285,vbt_B1_day2,2022.2.4,Win32,60.09976561,,,,,,,,,,,,,,,,,,,,,,,,,,,down,0,0.3005,,-0.676851855,-0.01666666,1,0,0,0.7155,0,193,193,79,1,nodig,images/br_nodig.png,images/cb_nodig.png,0,,,,,,,,,,,,,,,,,,,,,,
,,,,,,00045,2023-10-08_18h01.39.285,vbt_B1_day2,2022.2.4,Win32,60.09976561,,,,,,,,,,,,,,,,,,,,,,,,,,,down,0,3.7281,,-0.676851855,-0.01666666,1,0,0,0.6655,0,194,194,130,1,keihard,images/br_keihard.png,images/cb_keihard.png,0,,,,,,,,,,,,,,,,,,,,,,
,,,,,,00045,2023-10-08_18h01.39.285,vbt_B1_day2,2022.2.4,Win32,60.09976561,,,,,,,,,,,,,,,,,,,,,,,,,,,down,0,3.2452,,-0.676851855,-0.01666666,1,0,0,1.1149,0,195,195,40,1,schep,images/br_schep.png,images/cb_schep.png,0,,,,,,,,,,,,,,,,,,,,,,
,,,,,,00045,2023-10-08_18h01.39.285,vbt_B1_day2,2022.2.4,Win32,60.09976561,,,,,,,,,,,,,,,,,,,,,,,,,,,down,0,0.2671,,-0.676851855,-0.01666666,1,0,0,0.5157,0,196,196,10,1,leek,images/br_leek.png,images/cb_leek.png,0,,,,,,,,,,,,,,,,,,,,,,
,,,,,,00045,2023-10-08_18h01.39.285,vbt_B1_day2,2022.2.4,Win32,60.09976561,,,,,,,,,,,,,,,,,,,,,,,,,,,down,0,6.0942,,-0.676851855,-0.01666666,1,0,0,0.3991,0,197,197,174,1,stemming,images/br_stemming.png,images/cb_stemming.png,0,,,,,,,,,,,,,,,,,,,,,,
,,,,,,00045,2023-10-08_18h01.39.285,vbt_B1_day2,2022.2.4,Win32,60.09976561,,,,,,,,,,,,,,,,,,,,,,,,,,,down,0,0.3838,,-0.676851855,-0.01666666,1,0,0,0.8325,0,198,198,64,1,wegen,images/br_wegen.png,images/cb_wegen.png,0,,,,,,,,,,,,,,,,,,,,,,
,,,,,,00045,2023-10-08_18h01.39.285,vbt_B1_day2,2022.2.4,Win32,60.09976561,,,,,,,,,,,,,,,,,,,,,,,,,,,down,0,0.5862,,-0.676851855,-0.01666666,1,0,0,0.8319,0,199,199,0,1,slak,images/br_slak.png,images/cb_slak.png,0,,,,,,,,,,,,,,,,,,,,,,
,,,,,,00045,2023-10-08_18h01.39.285,vbt_B1_day2,2022.2.4,Win32,60.09976561,,,,,,,,,,,,,,,,,,,,,,,,,,,,,,,,,,,,,,,,,,,,,,,-0.676851855,-0.01666666,1,0,0,,,,,,,,,,,,,,,,
,,,,,,00045,2023-10-08_18h01.39.285,vbt_B1_day2,2022.2.4,Win32,60.09976561,,,,,,,,,,,,,,,,,,,,,,,,,,,,,,,,,,,,,,,,,,,,,,,,,,,,-0.676851855,-0.01666666,1,0,0,,,,,,,,,,,
,,,,,,00045,2023-10-08_18h01.39.285,vbt_B1_day2,2022.2.4,Win32,60.09976561,,,,,,,,,,,,,,,,,,,,,,,,,,,,,,,,,,,,,,,,,,opdatten,images/br_opdatten.png,images/cb_opdatten.png,,opjutten,,,,,,,,,,,-0.676851855,-0.01666666,1,0,0,opjutten,0,0,0,37,1
,,,,,,00045,2023-10-08_18h01.39.285,vbt_B1_day2,2022.2.4,Win32,60.09976561,,,,,,,,,,,,,,,,,,,,,,,,,,,,,,,,,,,,,,,,,,agressie,images/br_agressie.png,images/cb_agressie.png,,agressief,,,,,,,,,,,-0.676851855,-0.01666666,1,0,0,agressief,0,1,1,59,1
,,,,,,00045,2023-10-08_18h01.39.285,vbt_B1_day2,2022.2.4,Win32,60.09976561,,,,,,,,,,,,,,,,,,,,,,,,,,,,,,,,,,,,,,,,,,joes,images/br_joes.png,images/cb_joes.png,,joes,,,,,,,,,,,-0.676851855,-0.01666666,1,0,0,joes,0,2,2,20,1
,,,,,,00045,2023-10-08_18h01.39.285,vbt_B1_day2,2022.2.4,Win32,60.09976561,,,,,,,,,,,,,,,,,,,,,,,,,,,,,,,,,,,,,,,,,,sora,images/br_sora.png,images/cb_sora.png,,sora,,,,,,,,,,,-0.676851855,-0.01666666,1,0,0,sora,0,3,3,22,1
,,,,,,00045,2023-10-08_18h01.39.285,vbt_B1_day2,2022.2.4,Win32,60.09976561,,,,,,,,,,,,,,,,,,,,,,,,,,,,,,,,,,,,,,,,,,remel,images/br_remel.png,images/cb_remel.png,,remel,,,,,,,,,,,-0.676851855,-0.01666666,1,0,0,remel,0,4,4,25,1
,,,,,,00045,2023-10-08_18h01.39.285,vbt_B1_day2,2022.2.4,Win32,60.09976561,,,,,,,,,,,,,,,,,,,,,,,,,,,,,,,,,,,,,,,,,,geld,images/br_geld.png,images/cb_geld.png,,geld,,,,,,,,,,,-0.676851855,-0.01666666,1,0,0,geld,0,5,5,3,1
,,,,,,00045,2023-10-08_18h01.39.285,vbt_B1_day2,2022.2.4,Win32,60.09976561,,,,,,,,,,,,,,,,,,,,,,,,,,,,,,,,,,,,,,,,,,woning,images/br_woning.png,images/cb_woning.png,,woning,,,,,,,,,,,-0.676851855,-0.01666666,1,0,0,woning,0,6,6,10,1
,,,,,,00045,2023-10-08_18h01.39.285,vbt_B1_day2,2022.2.4,Win32,60.09976561,,,,,,,,,,,,,,,,,,,,,,,,,,,,,,,,,,,,,,,,,,goon,images/br_goon.png,images/cb_goon.png,,goon,,,,,,,,,,,-0.676851855,-0.01666666,1,0,0,goon,0,7,7,23,1
,,,,,,00045,2023-10-08_18h01.39.285,vbt_B1_day2,2022.2.4,Win32,60.09976561,,,,,,,,,,,,,,,,,,,,,,,,,,,,,,,,,,,,,,,,,,anarchie,images/br_anarchie.png,images/cb_anarchie.png,,anarchie,,,,,,,,,,,-0.676851855,-0.01666666,1,0,0,anarchie,0,8,8,16,1
,,,,,,00045,2023-10-08_18h01.39.285,vbt_B1_day2,2022.2.4,Win32,60.09976561,,,,,,,,,,,,,,,,,,,,,,,,,,,,,,,,,,,,,,,,,,bloeien,images/br_bloeien.png,images/cb_bloeien.png,,bloeien,,,,,,,,,,,-0.676851855,-0.01666666,1,0,0,bloeien,0,9,9,12,1
,,,,,,00045,2023-10-08_18h01.39.285,vbt_B1_day2,2022.2.4,Win32,60.09976561,,,,,,,,,,,,,,,,,,,,,,,,,,,,,,,,,,,,,,,,,,kenzis,images/br_kenzis.png,images/cb_kenzis.png,,kenzis,,,,,,,,,,,-0.676851855,-0.01666666,1,0,0,kenzis,0,10,10,30,1
,,,,,,00045,2023-10-08_18h01.39.285,vbt_B1_day2,2022.2.4,Win32,60.09976561,,,,,,,,,,,,,,,,,,,,,,,,,,,,,,,,,,,,,,,,,,lurgen,images/br_lurgen.png,images/cb_lurgen.png,,lurging,,,,,,,,,,,-0.676851855,-0.01666666,1,0,0,lurging,0,11,11,29,1
,,,,,,00045,2023-10-08_18h01.39.285,vbt_B1_day2,2022.2.4,Win32,60.09976561,,,,,,,,,,,,,,,,,,,,,,,,,,,,,,,,,,,,,,,,,,lokken,images/br_lokken.png,images/cb_lokken.png,,lokken,,,,,,,,,,,-0.676851855,-0.01666666,1,0,0,lokken,0,12,12,8,1
,,,,,,00045,2023-10-08_18h01.39.285,vbt_B1_day2,2022.2.4,Win32,60.09976561,,,,,,,,,,,,,,,,,,,,,,,,,,,,,,,,,,,,,,,,,,blad,images/br_blad.png,images/cb_blad.png,,blad,,,,,,,,,,,-0.676851855,-0.01666666,1,0,0,blad,0,13,13,1,1
,,,,,,00045,2023-10-08_18h01.39.285,vbt_B1_day2,2022.2.4,Win32,60.09976561,,,,,,,,,,,,,,,,,,,,,,,,,,,,,,,,,,,,,,,,,,dode,images/br_dode.png,images/cb_dode.png,,dode,,,,,,,,,,,-0.676851855,-0.01666666,1,0,0,dode,0,14,14,41,1
,,,,,,00045,2023-10-08_18h01.39.285,vbt_B1_day2,2022.2.4,Win32,60.09976561,,,,,,,,,,,,,,,,,,,,,,,,,,,,,,,,,,,,,,,,,,feestdag,images/br_feestdag.png,images/cb_feestdag.png,,feest...,,,,,,,,,,,-0.676851855,-0.01666666,1,0,0,feest...,0,15,15,17,1
,,,,,,00045,2023-10-08_18h01.39.285,vbt_B1_day2,2022.2.4,Win32,60.09976561,,,,,,,,,,,,,,,,,,,,,,,,,,,,,,,,,,,,,,,,,,krimmen,images/br_krimmen.png,images/cb_krimmen.png,,krimmen,,,,,,,,,,,-0.676851855,-0.01666666,1,0,0,krimmen,0,16,16,35,1
,,,,,,00045,2023-10-08_18h01.39.285,vbt_B1_day2,2022.2.4,Win32,60.09976561,,,,,,,,,,,,,,,,,,,,,,,,,,,,,,,,,,,,,,,,,,diep,images/br_diep.png,images/cb_diep.png,,diep,,,,,,,,,,,-0.676851855,-0.01666666,1,0,0,diep,0,17,17,2,1
,,,,,,00045,2023-10-08_18h01.39.285,vbt_B1_day2,2022.2.4,Win32,60.09976561,,,,,,,,,,,,,,,,,,,,,,,,,,,,,,,,,,,,,,,,,,doodmoe,images/br_doodmoe.png,images/cb_doodmoe.png,,doodmoe,,,,,,,,,,,-0.676851855,-0.01666666,1,0,0,doodmoe,0,18,18,15,1
,,,,,,00045,2023-10-08_18h01.39.285,vbt_B1_day2,2022.2.4,Win32,60.09976561,,,,,,,,,,,,,,,,,,,,,,,,,,,,,,,,,,,,,,,,,,badon,images/br_badon.png,images/cb_badon.png,,badon,,,,,,,,,,,-0.676851855,-0.01666666,1,0,0,badon,0,19,19,26,1
,,,,,,00045,2023-10-08_18h01.39.285,vbt_B1_day2,2022.2.4,Win32,60.09976561,,,,,,,,,,,,,,,,,,,,,,,,,,,,,,,,,,,,,,,,,,sjijfel,images/br_sjijfel.png,images/cb_sjijfel.png,,sjij...,,,,,,,,,,,-0.676851855,-0.01666666,1,0,0,sjij...,0,20,20,33,1
,,,,,,00045,2023-10-08_18h01.39.285,vbt_B1_day2,2022.2.4,Win32,60.09976561,,,,,,,,,,,,,,,,,,,,,,,,,,,,,,,,,,,,,,,,,,kasteel,images/br_kasteel.png,images/cb_kasteel.png,,kasteel,,,,,,,,,,,-0.676851855,-0.01666666,1,0,0,kasteel,0,21,21,14,1
,,,,,,00045,2023-10-08_18h01.39.285,vbt_B1_day2,2022.2.4,Win32,60.09976561,,,,,,,,,,,,,,,,,,,,,,,,,,,,,,,,,,,,,,,,,,wijve,images/br_wijve.png,images/cb_wijve.png,,wijve,,,,,,,,,,,-0.676851855,-0.01666666,1,0,0,wijve,0,22,22,27,1
,,,,,,00045,2023-10-08_18h01.39.285,vbt_B1_day2,2022.2.4,Win32,60.09976561,,,,,,,,,,,,,,,,,,,,,,,,,,,,,,,,,,,,,,,,,,zomers,images/br_zomers.png,images/cb_zomers.png,,zoue..,,,,,,,,,,,-0.676851855,-0.01666666,1,0,0,zoue..,0,23,23,48,1
,,,,,,00045,2023-10-08_18h01.39.285,vbt_B1_day2,2022.2.4,Win32,60.09976561,,,,,,,,,,,,,,,,,,,,,,,,,,,,,,,,,,,,,,,,,,toeval,images/br_toeval.png,images/cb_toeval.png,,toeval,,,,,,,,,,,-0.676851855,-0.01666666,1,0,0,toeval,0,24,24,11,1
,,,,,,00045,2023-10-08_18h01.39.285,vbt_B1_day2,2022.2.4,Win32,60.09976561,,,,,,,,,,,,,,,,,,,,,,,,,,,,,,,,,,,,,,,,,,plannen,images/br_plannen.png,images/cb_plannen.png,,plannen,,,,,,,,,,,-0.676851855,-0.01666666,1,0,0,plannen,0,25,25,55,1
,,,,,,00045,2023-10-08_18h01.39.285,vbt_B1_day2,2022.2.4,Win32,60.09976561,,,,,,,,,,,,,,,,,,,,,,,,,,,,,,,,,,,,,,,,,,zegel,images/br_zegel.png,images/cb_zegel.png,,zegel,,,,,,,,,,,-0.676851855,-0.01666666,1,0,0,zegel,0,26,26,46,1
,,,,,,00045,2023-10-08_18h01.39.285,vbt_B1_day2,2022.2.4,Win32,60.09976561,,,,,,,,,,,,,,,,,,,,,,,,,,,,,,,,,,,,,,,,,,piste,images/br_piste.png,images/cb_piste.png,,piste,,,,,,,,,,,-0.676851855,-0.01666666,1,0,0,piste,0,27,27,5,1
,,,,,,00045,2023-10-08_18h01.39.285,vbt_B1_day2,2022.2.4,Win32,60.09976561,,,,,,,,,,,,,,,,,,,,,,,,,,,,,,,,,,,,,,,,,,thema,images/br_thema.png,images/cb_thema.png,,th...,,,,,,,,,,,-0.676851855,-0.01666666,1,0,0,th...,0,28,28,47,1
,,,,,,00045,2023-10-08_18h01.39.285,vbt_B1_day2,2022.2.4,Win32,60.09976561,,,,,,,,,,,,,,,,,,,,,,,,,,,,,,,,,,,,,,,,,,kijlen,images/br_kijlen.png,images/cb_kijlen.png,,kijlen,,,,,,,,,,,-0.676851855,-0.01666666,1,0,0,kijlen,0,29,29,31,1
,,,,,,00045,2023-10-08_18h01.39.285,vbt_B1_day2,2022.2.4,Win32,60.09976561,,,,,,,,,,,,,,,,,,,,,,,,,,,,,,,,,,,,,,,,,,welzijn,images/br_welzijn.png,images/cb_welzijn.png,,welzijn,,,,,,,,,,,-0.676851855,-0.01666666,1,0,0,welzijn,0,30,30,52,1
,,,,,,00045,2023-10-08_18h01.39.285,vbt_B1_day2,2022.2.4,Win32,60.09976561,,,,,,,,,,,,,,,,,,,,,,,,,,,,,,,,,,,,,,,,,,negel,images/br_negel.png,images/cb_negel.png,,negel,,,,,,,,,,,-0.677777767,-0.01666666,1,0,0,negel,0,31,31,24,1
,,,,,,00045,2023-10-08_18h01.39.285,vbt_B1_day2,2022.2.4,Win32,60.09976561,,,,,,,,,,,,,,,,,,,,,,,,,,,,,,,,,,,,,,,,,,inzicht,images/br_inzicht.png,images/cb_inzicht.png,,inzi....,,,,,,,,,,,-0.677777767,-0.01666666,1,0,0,inzi....,0,32,32,53,1
,,,,,,00045,2023-10-08_18h01.39.285,vbt_B1_day2,2022.2.4,Win32,60.09976561,,,,,,,,,,,,,,,,,,,,,,,,,,,,,,,,,,,,,,,,,,trots,images/br_trots.png,images/cb_trots.png,,trots,,,,,,,,,,,-0.677777767,-0.01666666,1,0,0,trots,0,33,33,44,1
,,,,,,00045,2023-10-08_18h01.39.285,vbt_B1_day2,2022.2.4,Win32,60.09976561,,,,,,,,,,,,,,,,,,,,,,,,,,,,,,,,,,,,,,,,,,flits,images/br_flits.png,images/cb_flits.png,,flits,,,,,,,,,,,-0.677777767,-0.01666666,1,0,0,flits,0,34,34,4,1
,,,,,,00045,2023-10-08_18h01.39.285,vbt_B1_day2,2022.2.4,Win32,60.09976561,,,,,,,,,,,,,,,,,,,,,,,,,,,,,,,,,,,,,,,,,,sifferd,images/br_sifferd.png,images/cb_sifferd.png,,siff...,,,,,,,,,,,-0.677777767,-0.01666666,1,0,0,siff...,0,35,35,32,1
,,,,,,00045,2023-10-08_18h01.39.285,vbt_B1_day2,2022.2.4,Win32,60.09976561,,,,,,,,,,,,,,,,,,,,,,,,,,,,,,,,,,,,,,,,,,aanzien,images/br_aanzien.png,images/cb_aanzien.png,,aanzien,,,,,,,,,,,-0.677777767,-0.01666666,1,0,0,aanzien,0,36,36,13,1
,,,,,,00045,2023-10-08_18h01.39.285,vbt_B1_day2,2022.2.4,Win32,60.09976561,,,,,,,,,,,,,,,,,,,,,,,,,,,,,,,,,,,,,,,,,,strikken,images/br_strikken.png,images/cb_strikken.png,,stai...,,,,,,,,,,,-0.677777767,-0.01666666,1,0,0,stai...,0,37,37,18,1
,,,,,,00045,2023-10-08_18h01.39.285,vbt_B1_day2,2022.2.4,Win32,60.09976561,,,,,,,,,,,,,,,,,,,,,,,,,,,,,,,,,,,,,,,,,,kabel,images/br_kabel.png,images/cb_kabel.png,,kabel,,,,,,,,,,,-0.677777767,-0.01666666,1,0,0,kabel,0,38,38,7,1
,,,,,,00045,2023-10-08_18h01.39.285,vbt_B1_day2,2022.2.4,Win32,60.09976561,,,,,,,,,,,,,,,,,,,,,,,,,,,,,,,,,,,,,,,,,,moes,images/br_moes.png,images/cb_moes.png,,moes,,,,,,,,,,,-0.677777767,-0.01666666,1,0,0,moes,0,39,39,0,1
,,,,,,00045,2023-10-08_18h01.39.285,vbt_B1_day2,2022.2.4,Win32,60.09976561,,,,,,,,,,,,,,,,,,,,,,,,,,,,,,,,,,,,,,,,,,breuk,images/br_breuk.png,images/cb_breuk.png,,brouk,,,,,,,,,,,-0.677777767,-0.01666666,1,0,0,brouk,0,40,40,45,1
,,,,,,00045,2023-10-08_18h01.39.285,vbt_B1_day2,2022.2.4,Win32,60.09976561,,,,,,,,,,,,,,,,,,,,,,,,,,,,,,,,,,,,,,,,,,ningen,images/br_ningen.png,images/cb_ningen.png,,ningen,,,,,,,,,,,-0.677777767,-0.01666666,1,0,0,ningen,0,41,41,28,1
,,,,,,00045,2023-10-08_18h01.39.285,vbt_B1_day2,2022.2.4,Win32,60.09976561,,,,,,,,,,,,,,,,,,,,,,,,,,,,,,,,,,,,,,,,,,eenhoorn,images/br_eenhoorn.png,images/cb_eenhoorn.png,,eenhoorn,,,,,,,,,,,-0.677777767,-0.01666666,1,0,0,eenhoorn,0,42,42,19,1
,,,,,,00045,2023-10-08_18h01.39.285,vbt_B1_day2,2022.2.4,Win32,60.09976561,,,,,,,,,,,,,,,,,,,,,,,,,,,,,,,,,,,,,,,,,,prekken,images/br_prekken.png,images/cb_prekken.png,,prekken,,,,,,,,,,,-0.677777767,-0.01666666,1,0,0,prekken,0,43,43,34,1
,,,,,,00045,2023-10-08_18h01.39.285,vbt_B1_day2,2022.2.4,Win32,60.09976561,,,,,,,,,,,,,,,,,,,,,,,,,,,,,,,,,,,,,,,,,,tweeling,images/br_tweeling.png,images/cb_tweeling.png,,sweel,,,,,,,,,,,-0.677777767,-0.01666666,1,0,0,sweel,0,44,44,58,1
,,,,,,00045,2023-10-08_18h01.39.285,vbt_B1_day2,2022.2.4,Win32,60.09976561,,,,,,,,,,,,,,,,,,,,,,,,,,,,,,,,,,,,,,,,,,stes,images/br_stes.png,images/cb_stes.png,,stres,,,,,,,,,,,-0.677777767,-0.01666666,1,0,0,stres,0,45,45,21,1
,,,,,,00045,2023-10-08_18h01.39.285,vbt_B1_day2,2022.2.4,Win32,60.09976561,,,,,,,,,,,,,,,,,,,,,,,,,,,,,,,,,,,,,,,,,,jong,images/br_jong.png,images/cb_jong.png,,jong,,,,,,,,,,,-0.677777767,-0.01666666,1,0,0,jong,0,46,46,43,1
,,,,,,00045,2023-10-08_18h01.39.285,vbt_B1_day2,2022.2.4,Win32,60.09976561,,,,,,,,,,,,,,,,,,,,,,,,,,,,,,,,,,,,,,,,,,koorts,images/br_koorts.png,images/cb_koorts.png,,koorts,,,,,,,,,,,-0.677777767,-0.01666666,1,0,0,koorts,0,47,47,50,1
,,,,,,00045,2023-10-08_18h01.39.285,vbt_B1_day2,2022.2.4,Win32,60.09976561,,,,,,,,,,,,,,,,,,,,,,,,,,,,,,,,,,,,,,,,,,jagen,images/br_jagen.png,images/cb_jagen.png,,jagen,,,,,,,,,,,-0.677777767,-0.01666666,1,0,0,jagen,0,48,48,6,1
,,,,,,00045,2023-10-08_18h01.39.285,vbt_B1_day2,2022.2.4,Win32,60.09976561,,,,,,,,,,,,,,,,,,,,,,,,,,,,,,,,,,,,,,,,,,heilig,images/br_heilig.png,images/cb_heilig.png,,h,,,,,,,,,,,-0.677777767,-0.01666666,1,0,0,h,0,49,49,9,1
,,,,,,00045,2023-10-08_18h01.39.285,vbt_B1_day2,2022.2.4,Win32,60.09976561,,,,,,,,,,,,,,,,,,,,,,,,,,,,,,,,,,,,,,,,,,bereuwen,images/br_bereuwen.png,images/cb_bereuwen.png,,bereu,,,,,,,,,,,-0.677777767,-0.01666666,1,0,0,bereu,0,50,50,39,1
,,,,,,00045,2023-10-08_18h01.39.285,vbt_B1_day2,2022.2.4,Win32,60.09976561,,,,,,,,,,,,,,,,,,,,,,,,,,,,,,,,,,,,,,,,,,tand,images/br_tand.png,images/cb_tand.png,,tand,,,,,,,,,,,-0.677777767,-0.01666666,1,0,0,tand,0,51,51,42,1
,,,,,,00045,2023-10-08_18h01.39.285,vbt_B1_day2,2022.2.4,Win32,60.09976561,,,,,,,,,,,,,,,,,,,,,,,,,,,,,,,,,,,,,,,,,,aanvraag,images/br_aanvraag.png,images/cb_aanvraag.png,,aanvraa,,,,,,,,,,,-0.677777767,-0.01666666,1,0,0,aanvraa,0,52,52,57,1
,,,,,,00045,2023-10-08_18h01.39.285,vbt_B1_day2,2022.2.4,Win32,60.09976561,,,,,,,,,,,,,,,,,,,,,,,,,,,,,,,,,,,,,,,,,,manieren,images/br_manieren.png,images/cb_manieren.png,,manieren,,,,,,,,,,,-0.677777767,-0.01666666,1,0,0,manieren,0,53,53,56,1
,,,,,,00045,2023-10-08_18h01.39.285,vbt_B1_day2,2022.2.4,Win32,60.09976561,,,,,,,,,,,,,,,,,,,,,,,,,,,,,,,,,,,,,,,,,,lijnen,images/br_lijnen.png,images/cb_lijnen.png,,lijnen,,,,,,,,,,,-0.677777767,-0.01666666,1,0,0,lijnen,0,54,54,51,1
,,,,,,00045,2023-10-08_18h01.39.285,vbt_B1_day2,2022.2.4,Win32,60.09976561,,,,,,,,,,,,,,,,,,,,,,,,,,,,,,,,,,,,,,,,,,systeem,images/br_systeem.png,images/cb_systeem.png,,sy,,,,,,,,,,,-0.677777767,-0.01666666,1,0,0,sy,0,55,55,54,1
,,,,,,00045,2023-10-08_18h01.39.285,vbt_B1_day2,2022.2.4,Win32,60.09976561,,,,,,,,,,,,,,,,,,,,,,,,,,,,,,,,,,,,,,,,,,clan,images/br_clan.png,images/cb_clan.png,,clan,,,,,,,,,,,-0.677777767,-0.01666666,1,0,0,clan,0,56,56,40,1
,,,,,,00045,2023-10-08_18h01.39.285,vbt_B1_day2,2022.2.4,Win32,60.09976561,,,,,,,,,,,,,,,,,,,,,,,,,,,,,,,,,,,,,,,,,,zwager,images/br_zwager.png,images/cb_zwager.png,,zwagen,,,,,,,,,,,-0.677777767,-0.01666666,1,0,0,zwagen,0,57,57,49,1
,,,,,,00045,2023-10-08_18h01.39.285,vbt_B1_day2,2022.2.4,Win32,60.09976561,,,,,,,,,,,,,,,,,,,,,,,,,,,,,,,,,,,,,,,,,,heengeen,images/br_heengeen.png,images/cb_heengeen.png,,.eengee,,,,,,,,,,,-0.677777767,-0.01666666,1,0,0,.eengee,0,58,58,38,1
,,,,,,00045,2023-10-08_18h01.39.285,vbt_B1_day2,2022.2.4,Win32,60.09976561,,,,,,,,,,,,,,,,,,,,,,,,,,,,,,,,,,,,,,,,,,ophuimen,images/br_ophuimen.png,images/cb_ophuimen.png,,opruimen,,,,,,,,,,,-0.677777767,-0.01666666,1,0,0,opruimen,0,59,59,36,1
,,,,,,00045,2023-10-08_18h01.39.285,vbt_B1_day2,2022.2.4,Win32,60.09976561,,,,,,,,,,,,,,,,,,,,,,,,,,,,,,,,,,,,,,,,,,,,,,,,,,,,,,,,,,,,,,,,,,,
