welcome_mouse.x,welcome_mouse.y,welcome_mouse.leftButton,welcome_mouse.midButton,welcome_mouse.rightButton,welcome_mouse.time,"ID",date,expName,psychopyVersion,OS,frameRate,participant,refresh_mouse.x,refresh_mouse.y,refresh_mouse.leftButton,refresh_mouse.midButton,refresh_mouse.rightButton,refresh_mouse.time,braille_mouse.x,braille_mouse.y,braille_mouse.leftButton,braille_mouse.midButton,braille_mouse.rightButton,braille_mouse.time,trials.thisRepN,trials.thisTrialN,trials.thisN,trials.thisIndex,trials.ran,nlLet,brLet,cbLet,trainInstr_mouse.x,trainInstr_mouse.y,trainInstr_mouse.leftButton,trainInstr_mouse.midButton,trainInstr_mouse.rightButton,trainInstr_mouse.time,translation_key.keys,translation_key.corr,translation_key.rt,word_rsp.text,word_mouse.x,word_mouse.y,word_mouse.leftButton,word_mouse.midButton,word_mouse.rightButton,word_mouse.time,train_loop.thisRepN,train_loop.thisTrialN,train_loop.thisN,train_loop.thisIndex,train_loop.ran,nlWrd,brWrd,cbWrd,test,testResp,mouse.x,mouse.y,mouse.leftButton,mouse.midButton,mouse.rightButton,testInstr_mouse.x,testInstr_mouse.y,testInstr_mouse.leftButton,testInstr_mouse.midButton,testInstr_mouse.rightButton,test_mouse.x,test_mouse.y,test_mouse.leftButton,test_mouse.midButton,test_mouse.rightButton,test_response.text,test_loop.thisRepN,test_loop.thisTrialN,test_loop.thisN,test_loop.thisIndex,test_loop.ran
0.47962963,-0.106481481,1,0,0,10.0265,55009,2023-07-29_12h33.13.533,vbt_B1_day2,2022.2.4,Win32,60.01680471,55009,,,,,,,,,,,,,,,,,,,,,,,,,,,,,,,,,,,,,,,,,,,,,,,,,,,,,,,,,,,,,,,,,,,
,,,,,,55009,2023-07-29_12h33.13.533,vbt_B1_day2,2022.2.4,Win32,60.01680471,55009,0.42037037,-0.011111111,1,0,0,13.5015,,,,,,,,,,,,,,,,,,,,,,,,,,,,,,,,,,,,,,,,,,,,,,,,,,,,,,,,,,,,,
,,,,,,55009,2023-07-29_12h33.13.533,vbt_B1_day2,2022.2.4,Win32,60.01680471,55009,,,,,,,0.293518519,0.013888889,1,0,0,0.8335,0,0,0,8,1,i,images/br_i.png,images/cb_i.png,,,,,,,,,,,,,,,,,,,,,,,,,,,,,,,,,,,,,,,,,,,,,,,
,,,,,,55009,2023-07-29_12h33.13.533,vbt_B1_day2,2022.2.4,Win32,60.01680471,55009,,,,,,,0.261111111,0.02037037,1,0,0,4.6137,0,1,1,16,1,q,images/br_q.png,images/cb_q.png,,,,,,,,,,,,,,,,,,,,,,,,,,,,,,,,,,,,,,,,,,,,,,,
,,,,,,55009,2023-07-29_12h33.13.533,vbt_B1_day2,2022.2.4,Win32,60.01680471,55009,,,,,,,0.144444444,-0.015740741,1,0,0,3.5098,0,2,2,25,1,z,images/br_z.png,images/cb_z.png,,,,,,,,,,,,,,,,,,,,,,,,,,,,,,,,,,,,,,,,,,,,,,,
,,,,,,55009,2023-07-29_12h33.13.533,vbt_B1_day2,2022.2.4,Win32,60.01680471,55009,,,,,,,0.185185185,-0.013888889,1,0,0,6.8835,0,3,3,10,1,k,images/br_k.png,images/cb_k.png,,,,,,,,,,,,,,,,,,,,,,,,,,,,,,,,,,,,,,,,,,,,,,,
,,,,,,55009,2023-07-29_12h33.13.533,vbt_B1_day2,2022.2.4,Win32,60.01680471,55009,,,,,,,0.150925926,0.011111111,1,0,0,3.2932,0,4,4,12,1,m,images/br_m.png,images/cb_m.png,,,,,,,,,,,,,,,,,,,,,,,,,,,,,,,,,,,,,,,,,,,,,,,
,,,,,,55009,2023-07-29_12h33.13.533,vbt_B1_day2,2022.2.4,Win32,60.01680471,55009,,,,,,,0.125,0.015740741,1,0,0,12.4997,0,5,5,7,1,h,images/br_h.png,images/cb_h.png,,,,,,,,,,,,,,,,,,,,,,,,,,,,,,,,,,,,,,,,,,,,,,,
,,,,,,55009,2023-07-29_12h33.13.533,vbt_B1_day2,2022.2.4,Win32,60.01680471,55009,,,,,,,0.143518519,0.007407407,1,0,0,1.1837,0,6,6,9,1,j,images/br_j.png,images/cb_j.png,,,,,,,,,,,,,,,,,,,,,,,,,,,,,,,,,,,,,,,,,,,,,,,
,,,,,,55009,2023-07-29_12h33.13.533,vbt_B1_day2,2022.2.4,Win32,60.01680471,55009,,,,,,,0.147222222,0.002777778,1,0,0,0.3505,0,7,7,23,1,x,images/br_x.png,images/cb_x.png,,,,,,,,,,,,,,,,,,,,,,,,,,,,,,,,,,,,,,,,,,,,,,,
,,,,,,55009,2023-07-29_12h33.13.533,vbt_B1_day2,2022.2.4,Win32,60.01680471,55009,,,,,,,0.150925926,-0.009259259,1,0,0,0.6103,0,8,8,4,1,e,images/br_e.png,images/cb_e.png,,,,,,,,,,,,,,,,,,,,,,,,,,,,,,,,,,,,,,,,,,,,,,,
,,,,,,55009,2023-07-29_12h33.13.533,vbt_B1_day2,2022.2.4,Win32,60.01680471,55009,,,,,,,0.214814815,0.00462963,1,0,0,8.3829,0,9,9,22,1,w,images/br_w.png,images/cb_w.png,,,,,,,,,,,,,,,,,,,,,,,,,,,,,,,,,,,,,,,,,,,,,,,
,,,,,,55009,2023-07-29_12h33.13.533,vbt_B1_day2,2022.2.4,Win32,60.01680471,55009,,,,,,,0.209259259,0.002777778,1,0,0,0.183,0,10,10,0,1,a,images/br_a.png,images/cb_a.png,,,,,,,,,,,,,,,,,,,,,,,,,,,,,,,,,,,,,,,,,,,,,,,
,,,,,,55009,2023-07-29_12h33.13.533,vbt_B1_day2,2022.2.4,Win32,60.01680471,55009,,,,,,,0.178703704,0.005555556,1,0,0,5.217,0,11,11,5,1,f,images/br_f.png,images/cb_f.png,,,,,,,,,,,,,,,,,,,,,,,,,,,,,,,,,,,,,,,,,,,,,,,
,,,,,,55009,2023-07-29_12h33.13.533,vbt_B1_day2,2022.2.4,Win32,60.01680471,55009,,,,,,,0.156481481,0.008333333,1,0,0,2.4498,0,12,12,13,1,n,images/br_n.png,images/cb_n.png,,,,,,,,,,,,,,,,,,,,,,,,,,,,,,,,,,,,,,,,,,,,,,,
,,,,,,55009,2023-07-29_12h33.13.533,vbt_B1_day2,2022.2.4,Win32,60.01680471,55009,,,,,,,0.147222222,-0.013888889,1,0,0,11.466,0,13,13,24,1,y,images/br_y.png,images/cb_y.png,,,,,,,,,,,,,,,,,,,,,,,,,,,,,,,,,,,,,,,,,,,,,,,
,,,,,,55009,2023-07-29_12h33.13.533,vbt_B1_day2,2022.2.4,Win32,60.01680471,55009,,,,,,,0.227777778,-0.007407407,1,0,0,0.0997,0,14,14,15,1,p,images/br_p.png,images/cb_p.png,,,,,,,,,,,,,,,,,,,,,,,,,,,,,,,,,,,,,,,,,,,,,,,
,,,,,,55009,2023-07-29_12h33.13.533,vbt_B1_day2,2022.2.4,Win32,60.01680471,55009,,,,,,,0.193518519,-0.003703704,1,0,0,5.7498,0,15,15,6,1,g,images/br_g.png,images/cb_g.png,,,,,,,,,,,,,,,,,,,,,,,,,,,,,,,,,,,,,,,,,,,,,,,
,,,,,,55009,2023-07-29_12h33.13.533,vbt_B1_day2,2022.2.4,Win32,60.01680471,55009,,,,,,,0.119444444,-0.015740741,1,0,0,1.5502,0,16,16,2,1,c,images/br_c.png,images/cb_c.png,,,,,,,,,,,,,,,,,,,,,,,,,,,,,,,,,,,,,,,,,,,,,,,
,,,,,,55009,2023-07-29_12h33.13.533,vbt_B1_day2,2022.2.4,Win32,60.01680471,55009,,,,,,,0.126851852,-0.015740741,1,0,0,0.3347,0,17,17,1,1,b,images/br_b.png,images/cb_b.png,,,,,,,,,,,,,,,,,,,,,,,,,,,,,,,,,,,,,,,,,,,,,,,
,,,,,,55009,2023-07-29_12h33.13.533,vbt_B1_day2,2022.2.4,Win32,60.01680471,55009,,,,,,,0.132407407,-0.011111111,1,0,0,1.3166,0,18,18,18,1,s,images/br_s.png,images/cb_s.png,,,,,,,,,,,,,,,,,,,,,,,,,,,,,,,,,,,,,,,,,,,,,,,
,,,,,,55009,2023-07-29_12h33.13.533,vbt_B1_day2,2022.2.4,Win32,60.01680471,55009,,,,,,,0.115740741,-0.008333333,1,0,0,1.2499,0,19,19,19,1,t,images/br_t.png,images/cb_t.png,,,,,,,,,,,,,,,,,,,,,,,,,,,,,,,,,,,,,,,,,,,,,,,
,,,,,,55009,2023-07-29_12h33.13.533,vbt_B1_day2,2022.2.4,Win32,60.01680471,55009,,,,,,,0.176851852,0.012037037,1,0,0,0.8502,0,20,20,21,1,v,images/br_v.png,images/cb_v.png,,,,,,,,,,,,,,,,,,,,,,,,,,,,,,,,,,,,,,,,,,,,,,,
,,,,,,55009,2023-07-29_12h33.13.533,vbt_B1_day2,2022.2.4,Win32,60.01680471,55009,,,,,,,0.22037037,-0.00462963,1,0,0,1.0667,0,21,21,20,1,u,images/br_u.png,images/cb_u.png,,,,,,,,,,,,,,,,,,,,,,,,,,,,,,,,,,,,,,,,,,,,,,,
,,,,,,55009,2023-07-29_12h33.13.533,vbt_B1_day2,2022.2.4,Win32,60.01680471,55009,,,,,,,0.22037037,-0.007407407,1,0,0,4.4666,0,22,22,3,1,d,images/br_d.png,images/cb_d.png,,,,,,,,,,,,,,,,,,,,,,,,,,,,,,,,,,,,,,,,,,,,,,,
,,,,,,55009,2023-07-29_12h33.13.533,vbt_B1_day2,2022.2.4,Win32,60.01680471,55009,,,,,,,0.187962963,-0.025925926,1,0,0,1.383,0,23,23,11,1,l,images/br_l.png,images/cb_l.png,,,,,,,,,,,,,,,,,,,,,,,,,,,,,,,,,,,,,,,,,,,,,,,
,,,,,,55009,2023-07-29_12h33.13.533,vbt_B1_day2,2022.2.4,Win32,60.01680471,55009,,,,,,,0.178703704,-0.040740741,1,0,0,1.4165,0,24,24,17,1,r,images/br_r.png,images/cb_r.png,,,,,,,,,,,,,,,,,,,,,,,,,,,,,,,,,,,,,,,,,,,,,,,
,,,,,,55009,2023-07-29_12h33.13.533,vbt_B1_day2,2022.2.4,Win32,60.01680471,55009,,,,,,,0.166666667,-0.055555556,1,0,0,0.3664,0,25,25,14,1,o,images/br_o.png,images/cb_o.png,,,,,,,,,,,,,,,,,,,,,,,,,,,,,,,,,,,,,,,,,,,,,,,
,,,,,,55009,2023-07-29_12h33.13.533,vbt_B1_day2,2022.2.4,Win32,60.01680471,55009,,,,,,,,,,,,,,,,,,,,,0.178703704,0.141666667,1,0,0,25.7449,,,,,,,,,,,,,,,,,,,,,,,,,,,,,,,,,,,,,,,,,
,,,,,,55009,2023-07-29_12h33.13.533,vbt_B1_day2,2022.2.4,Win32,60.01680471,55009,,,,,,,,,,,,,,,,,,,,,,,,,,,down,0,45.7994,,0.280555556,-0.033333333,1,0,0,8.8142,0,0,0,131,1,opzicht,images/br_opzicht.png,images/cb_opzicht.png,0,,,,,,,,,,,,,,,,,,,,,,
,,,,,,55009,2023-07-29_12h33.13.533,vbt_B1_day2,2022.2.4,Win32,60.01680471,55009,,,,,,,,,,,,,,,,,,,,,,,,,,,down,0,11.9336,,0.236111111,0.028703704,1,0,0,1.5501,0,1,1,89,1,slapen,images/br_slapen.png,images/cb_slapen.png,0,,,,,,,,,,,,,,,,,,,,,,
,,,,,,55009,2023-07-29_12h33.13.533,vbt_B1_day2,2022.2.4,Win32,60.01680471,55009,,,,,,,,,,,,,,,,,,,,,,,,,,,down,0,23.2348,,0.259259259,0.048148148,1,0,0,10.9997,0,2,2,51,1,samen,images/br_samen.png,images/cb_samen.png,0,,,,,,,,,,,,,,,,,,,,,,
,,,,,,55009,2023-07-29_12h33.13.533,vbt_B1_day2,2022.2.4,Win32,60.01680471,55009,,,,,,,,,,,,,,,,,,,,,,,,,,,down,0,12.2373,,0.124074074,0.086111111,1,0,0,1.8333,0,3,3,108,1,excuus,images/br_excuus.png,images/cb_excuus.png,0,,,,,,,,,,,,,,,,,,,,,,
,,,,,,55009,2023-07-29_12h33.13.533,vbt_B1_day2,2022.2.4,Win32,60.01680471,55009,,,,,,,,,,,,,,,,,,,,,,,,,,,down,0,27.8062,,0.174074074,-0.117592593,1,0,0,1.483,0,4,4,125,1,aanzien,images/br_aanzien.png,images/cb_aanzien.png,0,,,,,,,,,,,,,,,,,,,,,,
,,,,,,55009,2023-07-29_12h33.13.533,vbt_B1_day2,2022.2.4,Win32,60.01680471,55009,,,,,,,,,,,,,,,,,,,,,,,,,,,down,0,27.9042,,0.159259259,-0.137037037,1,0,0,5.5502,0,5,5,84,1,lokken,images/br_lokken.png,images/cb_lokken.png,0,,,,,,,,,,,,,,,,,,,,,,
,,,,,,55009,2023-07-29_12h33.13.533,vbt_B1_day2,2022.2.4,Win32,60.01680471,55009,,,,,,,,,,,,,,,,,,,,,,,,,,,down,0,13.8929,,0.030555556,-0.069444444,1,0,0,1.3999,0,6,6,103,1,joggen,images/br_joggen.png,images/cb_joggen.png,0,,,,,,,,,,,,,,,,,,,,,,
,,,,,,55009,2023-07-29_12h33.13.533,vbt_B1_day2,2022.2.4,Win32,60.01680471,55009,,,,,,,,,,,,,,,,,,,,,,,,,,,down,0,13.1535,,0.139814815,-0.108333333,1,0,0,0.9333,0,7,7,54,1,gebit,images/br_gebit.png,images/cb_gebit.png,0,,,,,,,,,,,,,,,,,,,,,,
,,,,,,55009,2023-07-29_12h33.13.533,vbt_B1_day2,2022.2.4,Win32,60.01680471,55009,,,,,,,,,,,,,,,,,,,,,,,,,,,down,0,18.6686,,0.173148148,-0.092592593,1,0,0,1.1168,0,8,8,113,1,koppen,images/br_koppen.png,images/cb_koppen.png,0,,,,,,,,,,,,,,,,,,,,,,
,,,,,,55009,2023-07-29_12h33.13.533,vbt_B1_day2,2022.2.4,Win32,60.01680471,55009,,,,,,,,,,,,,,,,,,,,,,,,,,,down,0,32.6339,,0.157407407,-0.055555556,1,0,0,13.4828,0,9,9,193,1,weeshuis,images/br_weeshuis.png,images/cb_weeshuis.png,0,,,,,,,,,,,,,,,,,,,,,,
,,,,,,55009,2023-07-29_12h33.13.533,vbt_B1_day2,2022.2.4,Win32,60.01680471,55009,,,,,,,,,,,,,,,,,,,,,,,,,,,down,0,15.5175,,0.158333333,-0.052777778,1,0,0,0.8498,0,10,10,192,1,schaamte,images/br_schaamte.png,images/cb_schaamte.png,0,,,,,,,,,,,,,,,,,,,,,,
,,,,,,55009,2023-07-29_12h33.13.533,vbt_B1_day2,2022.2.4,Win32,60.01680471,55009,,,,,,,,,,,,,,,,,,,,,,,,,,,down,0,28.0718,,0.187962963,-0.023148148,1,0,0,1.1831,0,11,11,127,1,doodmoe,images/br_doodmoe.png,images/cb_doodmoe.png,0,,,,,,,,,,,,,,,,,,,,,,
,,,,,,55009,2023-07-29_12h33.13.533,vbt_B1_day2,2022.2.4,Win32,60.01680471,55009,,,,,,,,,,,,,,,,,,,,,,,,,,,down,0,9.6004,,0.187962963,-0.023148148,1,0,0,1.3165,0,12,12,27,1,dans,images/br_dans.png,images/cb_dans.png,0,,,,,,,,,,,,,,,,,,,,,,
,,,,,,55009,2023-07-29_12h33.13.533,vbt_B1_day2,2022.2.4,Win32,60.01680471,55009,,,,,,,,,,,,,,,,,,,,,,,,,,,down,0,16.4087,,0.316666667,-0.117592593,1,0,0,1.117,0,13,13,163,1,schuilen,images/br_schuilen.png,images/cb_schuilen.png,0,,,,,,,,,,,,,,,,,,,,,,
,,,,,,55009,2023-07-29_12h33.13.533,vbt_B1_day2,2022.2.4,Win32,60.01680471,55009,,,,,,,,,,,,,,,,,,,,,,,,,,,down,0,17.7902,,0.212962963,-0.116666667,1,0,0,1.3996,0,14,14,190,1,goedkoop,images/br_goedkoop.png,images/cb_goedkoop.png,0,,,,,,,,,,,,,,,,,,,,,,
,,,,,,55009,2023-07-29_12h33.13.533,vbt_B1_day2,2022.2.4,Win32,60.01680471,55009,,,,,,,,,,,,,,,,,,,,,,,,,,,down,0,15.5382,,0.139814815,-0.132407407,1,0,0,0.7833,0,15,15,162,1,uitdelen,images/br_uitdelen.png,images/cb_uitdelen.png,0,,,,,,,,,,,,,,,,,,,,,,
,,,,,,55009,2023-07-29_12h33.13.533,vbt_B1_day2,2022.2.4,Win32,60.01680471,55009,,,,,,,,,,,,,,,,,,,,,,,,,,,down,0,12.2088,,0.223148148,-0.119444444,1,0,0,2.9403,0,16,16,57,1,steek,images/br_steek.png,images/cb_steek.png,1,steek,,,,,,,,,,,,,,,,,,,,,
,,,,,,55009,2023-07-29_12h33.13.533,vbt_B1_day2,2022.2.4,Win32,60.01680471,55009,,,,,,,,,,,,,,,,,,,,,,,,,,,down,0,7.6864,,0.178703704,-0.084259259,1,0,0,0.7235,0,17,17,150,1,gegeven,images/br_gegeven.png,images/cb_gegeven.png,0,,,,,,,,,,,,,,,,,,,,,,
,,,,,,55009,2023-07-29_12h33.13.533,vbt_B1_day2,2022.2.4,Win32,60.01680471,55009,,,,,,,,,,,,,,,,,,,,,,,,,,,down,0,8.4716,,0.160185185,-0.062962963,1,0,0,0.903,0,18,18,141,1,knielen,images/br_knielen.png,images/cb_knielen.png,0,,,,,,,,,,,,,,,,,,,,,,
,,,,,,55009,2023-07-29_12h33.13.533,vbt_B1_day2,2022.2.4,Win32,60.01680471,55009,,,,,,,,,,,,,,,,,,,,,,,,,,,down,0,4.2574,,0.212962963,-0.083333333,1,0,0,1.1667,0,19,19,26,1,leuk,images/br_leuk.png,images/cb_leuk.png,0,,,,,,,,,,,,,,,,,,,,,,
,,,,,,55009,2023-07-29_12h33.13.533,vbt_B1_day2,2022.2.4,Win32,60.01680471,55009,,,,,,,,,,,,,,,,,,,,,,,,,,,down,0,4.7174,,0.058333333,-0.052777778,1,0,0,1.5667,0,20,20,0,1,slak,images/br_slak.png,images/cb_slak.png,0,,,,,,,,,,,,,,,,,,,,,,
,,,,,,55009,2023-07-29_12h33.13.533,vbt_B1_day2,2022.2.4,Win32,60.01680471,55009,,,,,,,,,,,,,,,,,,,,,,,,,,,down,0,4.324,,0.063888889,0.244444444,1,0,0,0.7998,0,21,21,102,1,legaal,images/br_legaal.png,images/cb_legaal.png,0,,,,,,,,,,,,,,,,,,,,,,
,,,,,,55009,2023-07-29_12h33.13.533,vbt_B1_day2,2022.2.4,Win32,60.01680471,55009,,,,,,,,,,,,,,,,,,,,,,,,,,,down,0,4.5029,,0.032407407,0.149074074,1,0,0,1.1166,0,22,22,62,1,knaap,images/br_knaap.png,images/cb_knaap.png,0,,,,,,,,,,,,,,,,,,,,,,
,,,,,,55009,2023-07-29_12h33.13.533,vbt_B1_day2,2022.2.4,Win32,60.01680471,55009,,,,,,,,,,,,,,,,,,,,,,,,,,,down,0,10.1344,,0.094444444,0.103703704,1,0,0,1.1666,0,23,23,140,1,blijven,images/br_blijven.png,images/cb_blijven.png,0,,,,,,,,,,,,,,,,,,,,,,
,,,,,,55009,2023-07-29_12h33.13.533,vbt_B1_day2,2022.2.4,Win32,60.01680471,55009,,,,,,,,,,,,,,,,,,,,,,,,,,,down,0,5.6178,,0.165740741,0.069444444,1,0,0,5.35,0,24,24,197,1,spanning,images/br_spanning.png,images/cb_spanning.png,0,,,,,,,,,,,,,,,,,,,,,,
,,,,,,55009,2023-07-29_12h33.13.533,vbt_B1_day2,2022.2.4,Win32,60.01680471,55009,,,,,,,,,,,,,,,,,,,,,,,,,,,down,0,10.0536,,-0.006481481,0.080555556,1,0,0,1.1997,0,25,25,146,1,opkomen,images/br_opkomen.png,images/cb_opkomen.png,0,,,,,,,,,,,,,,,,,,,,,,
,,,,,,55009,2023-07-29_12h33.13.533,vbt_B1_day2,2022.2.4,Win32,60.01680471,55009,,,,,,,,,,,,,,,,,,,,,,,,,,,down,0,10.484,,0.011111111,0.073148148,1,0,0,0.9333,0,26,26,198,1,bedoelen,images/br_bedoelen.png,images/cb_bedoelen.png,0,,,,,,,,,,,,,,,,,,,,,,
,,,,,,55009,2023-07-29_12h33.13.533,vbt_B1_day2,2022.2.4,Win32,60.01680471,55009,,,,,,,,,,,,,,,,,,,,,,,,,,,down,0,5.6107,,0.028703704,0.087037037,1,0,0,2.4837,0,27,27,123,1,hiervan,images/br_hiervan.png,images/cb_hiervan.png,0,,,,,,,,,,,,,,,,,,,,,,
,,,,,,55009,2023-07-29_12h33.13.533,vbt_B1_day2,2022.2.4,Win32,60.01680471,55009,,,,,,,,,,,,,,,,,,,,,,,,,,,down,0,4.2886,,0.068518519,0.04537037,1,0,0,0.8666,0,28,28,88,1,boeien,images/br_boeien.png,images/cb_boeien.png,0,,,,,,,,,,,,,,,,,,,,,,
,,,,,,55009,2023-07-29_12h33.13.533,vbt_B1_day2,2022.2.4,Win32,60.01680471,55009,,,,,,,,,,,,,,,,,,,,,,,,,,,down,0,47.4017,,0.187037037,-0.117592593,1,0,0,1.5497,0,29,29,177,1,maaltijd,images/br_maaltijd.png,images/cb_maaltijd.png,1,maaltijd,,,,,,,,,,,,,,,,,,,,,
,,,,,,55009,2023-07-29_12h33.13.533,vbt_B1_day2,2022.2.4,Win32,60.01680471,55009,,,,,,,,,,,,,,,,,,,,,,,,,,,down,0,11.3347,,0.116666667,-0.236111111,1,0,0,1.5166,0,30,30,153,1,vervoer,images/br_vervoer.png,images/cb_vervoer.png,0,,,,,,,,,,,,,,,,,,,,,,
,,,,,,55009,2023-07-29_12h33.13.533,vbt_B1_day2,2022.2.4,Win32,60.01680471,55009,,,,,,,,,,,,,,,,,,,,,,,,,,,down,0,5.1838,,0.169444444,-0.110185185,1,0,0,0.6334,0,31,31,45,1,piste,images/br_piste.png,images/cb_piste.png,0,,,,,,,,,,,,,,,,,,,,,,
,,,,,,55009,2023-07-29_12h33.13.533,vbt_B1_day2,2022.2.4,Win32,60.01680471,55009,,,,,,,,,,,,,,,,,,,,,,,,,,,down,0,4.8346,,0.156481481,-0.102777778,1,0,0,1.0664,0,32,32,37,1,mijn,images/br_mijn.png,images/cb_mijn.png,0,,,,,,,,,,,,,,,,,,,,,,
,,,,,,55009,2023-07-29_12h33.13.533,vbt_B1_day2,2022.2.4,Win32,60.01680471,55009,,,,,,,,,,,,,,,,,,,,,,,,,,,down,0,8.8717,,0.135185185,-0.083333333,1,0,0,0.6664,0,33,33,35,1,lust,images/br_lust.png,images/cb_lust.png,0,,,,,,,,,,,,,,,,,,,,,,
,,,,,,55009,2023-07-29_12h33.13.533,vbt_B1_day2,2022.2.4,Win32,60.01680471,55009,,,,,,,,,,,,,,,,,,,,,,,,,,,down,0,15.3187,,0.125925926,-0.083333333,1,0,0,2.0666,0,34,34,74,1,graaf,images/br_graaf.png,images/cb_graaf.png,0,,,,,,,,,,,,,,,,,,,,,,
,,,,,,55009,2023-07-29_12h33.13.533,vbt_B1_day2,2022.2.4,Win32,60.01680471,55009,,,,,,,,,,,,,,,,,,,,,,,,,,,down,0,3.4674,,0.12962963,-0.134259259,1,0,0,2.2066,0,35,35,36,1,vuur,images/br_vuur.png,images/cb_vuur.png,0,,,,,,,,,,,,,,,,,,,,,,
,,,,,,55009,2023-07-29_12h33.13.533,vbt_B1_day2,2022.2.4,Win32,60.01680471,55009,,,,,,,,,,,,,,,,,,,,,,,,,,,down,0,5.273,,0.067592593,-0.062962963,1,0,0,0.9168,0,36,36,79,1,nodig,images/br_nodig.png,images/cb_nodig.png,0,,,,,,,,,,,,,,,,,,,,,,
,,,,,,55009,2023-07-29_12h33.13.533,vbt_B1_day2,2022.2.4,Win32,60.01680471,55009,,,,,,,,,,,,,,,,,,,,,,,,,,,down,0,10.9873,,0.237037037,-0.149074074,1,0,0,0.8497,0,37,37,181,1,toegeven,images/br_toegeven.png,images/cb_toegeven.png,0,,,,,,,,,,,,,,,,,,,,,,
,,,,,,55009,2023-07-29_12h33.13.533,vbt_B1_day2,2022.2.4,Win32,60.01680471,55009,,,,,,,,,,,,,,,,,,,,,,,,,,,down,0,27.0755,,0.190740741,0.089814815,1,0,0,1.5667,0,38,38,165,1,feestdag,images/br_feestdag.png,images/cb_feestdag.png,0,,,,,,,,,,,,,,,,,,,,,,
,,,,,,55009,2023-07-29_12h33.13.533,vbt_B1_day2,2022.2.4,Win32,60.01680471,55009,,,,,,,,,,,,,,,,,,,,,,,,,,,down,0,3.7885,,0.12962963,0.061111111,1,0,0,0.6327,0,39,39,7,1,geld,images/br_geld.png,images/cb_geld.png,0,,,,,,,,,,,,,,,,,,,,,,
,,,,,,55009,2023-07-29_12h33.13.533,vbt_B1_day2,2022.2.4,Win32,60.01680471,55009,,,,,,,,,,,,,,,,,,,,,,,,,,,down,0,29.5214,,0.210185185,-0.037962963,1,0,0,0.6834,0,40,40,70,1,ijdel,images/br_ijdel.png,images/cb_ijdel.png,0,,,,,,,,,,,,,,,,,,,,,,
,,,,,,55009,2023-07-29_12h33.13.533,vbt_B1_day2,2022.2.4,Win32,60.01680471,55009,,,,,,,,,,,,,,,,,,,,,,,,,,,down,0,10.0835,,0.088888889,-0.084259259,1,0,0,1.6997,0,41,41,24,1,jurk,images/br_jurk.png,images/cb_jurk.png,0,,,,,,,,,,,,,,,,,,,,,,
,,,,,,55009,2023-07-29_12h33.13.533,vbt_B1_day2,2022.2.4,Win32,60.01680471,55009,,,,,,,,,,,,,,,,,,,,,,,,,,,down,0,5.3513,,0.114814815,0.053703704,1,0,0,0.7668,0,42,42,122,1,waarvan,images/br_waarvan.png,images/cb_waarvan.png,0,,,,,,,,,,,,,,,,,,,,,,
,,,,,,55009,2023-07-29_12h33.13.533,vbt_B1_day2,2022.2.4,Win32,60.01680471,55009,,,,,,,,,,,,,,,,,,,,,,,,,,,down,0,1.5512,,0.239814815,0.025925926,1,0,0,1.0331,0,43,43,109,1,totaal,images/br_totaal.png,images/cb_totaal.png,0,,,,,,,,,,,,,,,,,,,,,,
,,,,,,55009,2023-07-29_12h33.13.533,vbt_B1_day2,2022.2.4,Win32,60.01680471,55009,,,,,,,,,,,,,,,,,,,,,,,,,,,down,0,11.9914,,0.201851852,0.1,1,0,0,0.6832,0,44,44,148,1,smullen,images/br_smullen.png,images/cb_smullen.png,0,,,,,,,,,,,,,,,,,,,,,,
,,,,,,55009,2023-07-29_12h33.13.533,vbt_B1_day2,2022.2.4,Win32,60.01680471,55009,,,,,,,,,,,,,,,,,,,,,,,,,,,down,0,37.1007,,0.143518519,0.047222222,1,0,0,1.0501,0,45,45,60,1,jasje,images/br_jasje.png,images/cb_jasje.png,0,,,,,,,,,,,,,,,,,,,,,,
,,,,,,55009,2023-07-29_12h33.13.533,vbt_B1_day2,2022.2.4,Win32,60.01680471,55009,,,,,,,,,,,,,,,,,,,,,,,,,,,down,0,4.642,,-0.007407407,0.111111111,1,0,0,0.8663,0,46,46,22,1,stof,images/br_stof.png,images/cb_stof.png,0,,,,,,,,,,,,,,,,,,,,,,
,,,,,,55009,2023-07-29_12h33.13.533,vbt_B1_day2,2022.2.4,Win32,60.01680471,55009,,,,,,,,,,,,,,,,,,,,,,,,,,,down,0,29.9814,,0.289814815,-0.188888889,1,0,0,1.8667,0,47,47,136,1,waarbij,images/br_waarbij.png,images/cb_waarbij.png,1,waarbij,,,,,,,,,,,,,,,,,,,,,
,,,,,,55009,2023-07-29_12h33.13.533,vbt_B1_day2,2022.2.4,Win32,60.01680471,55009,,,,,,,,,,,,,,,,,,,,,,,,,,,down,0,17.3182,,0.12037037,-0.105555556,1,0,0,6.7499,0,48,48,158,1,innemen,images/br_innemen.png,images/cb_innemen.png,0,,,,,,,,,,,,,,,,,,,,,,
,,,,,,55009,2023-07-29_12h33.13.533,vbt_B1_day2,2022.2.4,Win32,60.01680471,55009,,,,,,,,,,,,,,,,,,,,,,,,,,,down,0,7.4536,,0.121296296,-0.105555556,1,0,0,1.3168,0,49,49,15,1,soda,images/br_soda.png,images/cb_soda.png,0,,,,,,,,,,,,,,,,,,,,,,
,,,,,,55009,2023-07-29_12h33.13.533,vbt_B1_day2,2022.2.4,Win32,60.01680471,55009,,,,,,,,,,,,,,,,,,,,,,,,,,,down,0,2.7841,,0.121296296,-0.105555556,1,0,0,0.6501,0,50,50,114,1,vullen,images/br_vullen.png,images/cb_vullen.png,0,,,,,,,,,,,,,,,,,,,,,,
,,,,,,55009,2023-07-29_12h33.13.533,vbt_B1_day2,2022.2.4,Win32,60.01680471,55009,,,,,,,,,,,,,,,,,,,,,,,,,,,down,0,4.0211,,0.106481481,-0.094444444,1,0,0,0.3166,0,51,51,100,1,geduld,images/br_geduld.png,images/cb_geduld.png,0,,,,,,,,,,,,,,,,,,,,,,
,,,,,,55009,2023-07-29_12h33.13.533,vbt_B1_day2,2022.2.4,Win32,60.01680471,55009,,,,,,,,,,,,,,,,,,,,,,,,,,,down,0,4.2761,,0.106481481,-0.093518519,1,0,0,0.4671,0,52,52,186,1,voorraad,images/br_voorraad.png,images/cb_voorraad.png,0,,,,,,,,,,,,,,,,,,,,,,
,,,,,,55009,2023-07-29_12h33.13.533,vbt_B1_day2,2022.2.4,Win32,60.01680471,55009,,,,,,,,,,,,,,,,,,,,,,,,,,,down,0,0.8878,,0.027777778,0.014814815,1,0,0,0.4002,0,53,53,25,1,plek,images/br_plek.png,images/cb_plek.png,0,,,,,,,,,,,,,,,,,,,,,,
,,,,,,55009,2023-07-29_12h33.13.533,vbt_B1_day2,2022.2.4,Win32,60.01680471,55009,,,,,,,,,,,,,,,,,,,,,,,,,,,down,0,6.4907,,0.162962963,-0.073148148,1,0,0,3.1332,0,54,54,156,1,rechten,images/br_rechten.png,images/cb_rechten.png,0,,,,,,,,,,,,,,,,,,,,,,
,,,,,,55009,2023-07-29_12h33.13.533,vbt_B1_day2,2022.2.4,Win32,60.01680471,55009,,,,,,,,,,,,,,,,,,,,,,,,,,,down,0,12.6696,,0.09537037,-0.112037037,1,0,0,0.6835,0,55,55,151,1,aanzoek,images/br_aanzoek.png,images/cb_aanzoek.png,0,,,,,,,,,,,,,,,,,,,,,,
,,,,,,55009,2023-07-29_12h33.13.533,vbt_B1_day2,2022.2.4,Win32,60.01680471,55009,,,,,,,,,,,,,,,,,,,,,,,,,,,down,0,5.6247,,0.111111111,-0.114814815,1,0,0,0.5,0,56,56,155,1,gerucht,images/br_gerucht.png,images/cb_gerucht.png,0,,,,,,,,,,,,,,,,,,,,,,
,,,,,,55009,2023-07-29_12h33.13.533,vbt_B1_day2,2022.2.4,Win32,60.01680471,55009,,,,,,,,,,,,,,,,,,,,,,,,,,,down,0,4.4943,,0.186111111,-0.15462963,1,0,0,0.75,0,57,57,188,1,strekken,images/br_strekken.png,images/cb_strekken.png,0,,,,,,,,,,,,,,,,,,,,,,
,,,,,,55009,2023-07-29_12h33.13.533,vbt_B1_day2,2022.2.4,Win32,60.01680471,55009,,,,,,,,,,,,,,,,,,,,,,,,,,,down,0,8.5361,,0.043518519,-0.052777778,1,0,0,0.6501,0,58,58,11,1,mode,images/br_mode.png,images/cb_mode.png,0,,,,,,,,,,,,,,,,,,,,,,
,,,,,,55009,2023-07-29_12h33.13.533,vbt_B1_day2,2022.2.4,Win32,60.01680471,55009,,,,,,,,,,,,,,,,,,,,,,,,,,,down,0,4.6506,,0.137037037,-0.059259259,1,0,0,0.5167,0,59,59,160,1,daarheen,images/br_daarheen.png,images/cb_daarheen.png,0,,,,,,,,,,,,,,,,,,,,,,
,,,,,,55009,2023-07-29_12h33.13.533,vbt_B1_day2,2022.2.4,Win32,60.01680471,55009,,,,,,,,,,,,,,,,,,,,,,,,,,,down,0,39.3207,,0.138888889,-0.018518519,1,0,0,0.6668,0,60,60,128,1,prikken,images/br_prikken.png,images/cb_prikken.png,0,,,,,,,,,,,,,,,,,,,,,,
,,,,,,55009,2023-07-29_12h33.13.533,vbt_B1_day2,2022.2.4,Win32,60.01680471,55009,,,,,,,,,,,,,,,,,,,,,,,,,,,down,0,3.8608,,0.001851852,-0.034259259,1,0,0,0.4999,0,61,61,10,1,leek,images/br_leek.png,images/cb_leek.png,0,,,,,,,,,,,,,,,,,,,,,,
,,,,,,55009,2023-07-29_12h33.13.533,vbt_B1_day2,2022.2.4,Win32,60.01680471,55009,,,,,,,,,,,,,,,,,,,,,,,,,,,down,0,4.4339,,0.093518519,-0.162037037,1,0,0,0.7334,0,62,62,96,1,slagen,images/br_slagen.png,images/cb_slagen.png,1,slagen,,,,,,,,,,,,,,,,,,,,,
,,,,,,55009,2023-07-29_12h33.13.533,vbt_B1_day2,2022.2.4,Win32,60.01680471,55009,,,,,,,,,,,,,,,,,,,,,,,,,,,down,0,4.0051,,0.147222222,-0.088888889,1,0,0,0.2998,0,63,63,46,1,jagen,images/br_jagen.png,images/cb_jagen.png,0,,,,,,,,,,,,,,,,,,,,,,
,,,,,,55009,2023-07-29_12h33.13.533,vbt_B1_day2,2022.2.4,Win32,60.01680471,55009,,,,,,,,,,,,,,,,,,,,,,,,,,,down,0,5.3366,,0.092592593,-0.1,1,0,0,0.3336,0,64,64,50,1,stoom,images/br_stoom.png,images/cb_stoom.png,0,,,,,,,,,,,,,,,,,,,,,,
,,,,,,55009,2023-07-29_12h33.13.533,vbt_B1_day2,2022.2.4,Win32,60.01680471,55009,,,,,,,,,,,,,,,,,,,,,,,,,,,down,0,23.0762,,0.151851852,-0.100925926,1,0,0,1.0073,0,65,65,178,1,huisdier,images/br_huisdier.png,images/cb_huisdier.png,1,huisdier,,,,,,,,,,,,,,,,,,,,,
,,,,,,55009,2023-07-29_12h33.13.533,vbt_B1_day2,2022.2.4,Win32,60.01680471,55009,,,,,,,,,,,,,,,,,,,,,,,,,,,down,0,8.1345,,-0.100925926,0.019444444,1,0,0,1.2997,0,66,66,76,1,afval,images/br_afval.png,images/cb_afval.png,0,,,,,,,,,,,,,,,,,,,,,,
,,,,,,55009,2023-07-29_12h33.13.533,vbt_B1_day2,2022.2.4,Win32,60.01680471,55009,,,,,,,,,,,,,,,,,,,,,,,,,,,down,0,7.0459,,0.146296296,-0.107407407,1,0,0,0.4735,0,67,67,142,1,snuiven,images/br_snuiven.png,images/cb_snuiven.png,0,,,,,,,,,,,,,,,,,,,,,,
,,,,,,55009,2023-07-29_12h33.13.533,vbt_B1_day2,2022.2.4,Win32,60.01680471,55009,,,,,,,,,,,,,,,,,,,,,,,,,,,down,0,2.1784,,0.151851852,-0.103703704,1,0,0,0.4166,0,68,68,52,1,wagon,images/br_wagon.png,images/cb_wagon.png,0,,,,,,,,,,,,,,,,,,,,,,
,,,,,,55009,2023-07-29_12h33.13.533,vbt_B1_day2,2022.2.4,Win32,60.01680471,55009,,,,,,,,,,,,,,,,,,,,,,,,,,,down,0,3.072,,0.175,-0.114814815,1,0,0,0.3831,0,69,69,95,1,vreten,images/br_vreten.png,images/cb_vreten.png,0,,,,,,,,,,,,,,,,,,,,,,
,,,,,,55009,2023-07-29_12h33.13.533,vbt_B1_day2,2022.2.4,Win32,60.01680471,55009,,,,,,,,,,,,,,,,,,,,,,,,,,,down,0,2.1496,,0.12962963,-0.153703704,1,0,0,0.4094,0,70,70,115,1,kleren,images/br_kleren.png,images/cb_kleren.png,0,,,,,,,,,,,,,,,,,,,,,,
,,,,,,55009,2023-07-29_12h33.13.533,vbt_B1_day2,2022.2.4,Win32,60.01680471,55009,,,,,,,,,,,,,,,,,,,,,,,,,,,down,0,18.0174,,0.076851852,-0.093518519,1,0,0,4.4833,0,71,71,159,1,sufferd,images/br_sufferd.png,images/cb_sufferd.png,0,,,,,,,,,,,,,,,,,,,,,,
,,,,,,55009,2023-07-29_12h33.13.533,vbt_B1_day2,2022.2.4,Win32,60.01680471,55009,,,,,,,,,,,,,,,,,,,,,,,,,,,down,0,2.7918,,0.103703704,-0.093518519,1,0,0,0.7164,0,72,72,87,1,toeval,images/br_toeval.png,images/cb_toeval.png,0,,,,,,,,,,,,,,,,,,,,,,
,,,,,,55009,2023-07-29_12h33.13.533,vbt_B1_day2,2022.2.4,Win32,60.01680471,55009,,,,,,,,,,,,,,,,,,,,,,,,,,,down,0,11.8049,,0.114814815,-0.108333333,1,0,0,0.4566,0,73,73,173,1,apparaat,images/br_apparaat.png,images/cb_apparaat.png,0,,,,,,,,,,,,,,,,,,,,,,
,,,,,,55009,2023-07-29_12h33.13.533,vbt_B1_day2,2022.2.4,Win32,60.01680471,55009,,,,,,,,,,,,,,,,,,,,,,,,,,,down,0,2.3104,,0.048148148,-0.086111111,1,0,0,0.4005,0,74,74,32,1,palm,images/br_palm.png,images/cb_palm.png,0,,,,,,,,,,,,,,,,,,,,,,
,,,,,,55009,2023-07-29_12h33.13.533,vbt_B1_day2,2022.2.4,Win32,60.01680471,55009,,,,,,,,,,,,,,,,,,,,,,,,,,,down,0,5.2166,,0.143518519,-0.088888889,1,0,0,0.3998,0,75,75,172,1,weigeren,images/br_weigeren.png,images/cb_weigeren.png,0,,,,,,,,,,,,,,,,,,,,,,
,,,,,,55009,2023-07-29_12h33.13.533,vbt_B1_day2,2022.2.4,Win32,60.01680471,55009,,,,,,,,,,,,,,,,,,,,,,,,,,,down,0,3.0512,,0.168518519,-0.092592593,1,0,0,0.3926,0,76,76,144,1,eetlust,images/br_eetlust.png,images/cb_eetlust.png,0,,,,,,,,,,,,,,,,,,,,,,
,,,,,,55009,2023-07-29_12h33.13.533,vbt_B1_day2,2022.2.4,Win32,60.01680471,55009,,,,,,,,,,,,,,,,,,,,,,,,,,,down,0,5.6398,,0.039814815,-0.084259259,1,0,0,0.4996,0,77,77,116,1,besmet,images/br_besmet.png,images/cb_besmet.png,0,,,,,,,,,,,,,,,,,,,,,,
,,,,,,55009,2023-07-29_12h33.13.533,vbt_B1_day2,2022.2.4,Win32,60.01680471,55009,,,,,,,,,,,,,,,,,,,,,,,,,,,down,0,7.008,,0.140740741,-0.081481481,1,0,0,0.3501,0,78,78,44,1,flits,images/br_flits.png,images/cb_flits.png,0,,,,,,,,,,,,,,,,,,,,,,
,,,,,,55009,2023-07-29_12h33.13.533,vbt_B1_day2,2022.2.4,Win32,60.01680471,55009,,,,,,,,,,,,,,,,,,,,,,,,,,,down,0,7.9172,,0.139814815,-0.075,1,0,0,0.4664,0,79,79,83,1,mening,images/br_mening.png,images/cb_mening.png,0,,,,,,,,,,,,,,,,,,,,,,
,,,,,,55009,2023-07-29_12h33.13.533,vbt_B1_day2,2022.2.4,Win32,60.01680471,55009,,,,,,,,,,,,,,,,,,,,,,,,,,,down,0,0.4757,,0.07037037,-0.10462963,1,0,0,0.3238,0,80,80,13,1,kaal,images/br_kaal.png,images/cb_kaal.png,0,,,,,,,,,,,,,,,,,,,,,,
,,,,,,55009,2023-07-29_12h33.13.533,vbt_B1_day2,2022.2.4,Win32,60.01680471,55009,,,,,,,,,,,,,,,,,,,,,,,,,,,down,0,6.8839,,0.149074074,-0.096296296,1,0,0,0.4433,0,81,81,170,1,schatten,images/br_schatten.png,images/cb_schatten.png,0,,,,,,,,,,,,,,,,,,,,,,
,,,,,,55009,2023-07-29_12h33.13.533,vbt_B1_day2,2022.2.4,Win32,60.01680471,55009,,,,,,,,,,,,,,,,,,,,,,,,,,,down,0,7.3506,,0.153703704,-0.068518519,1,0,0,2.366,0,82,82,182,1,bijkomen,images/br_bijkomen.png,images/cb_bijkomen.png,0,,,,,,,,,,,,,,,,,,,,,,
,,,,,,55009,2023-07-29_12h33.13.533,vbt_B1_day2,2022.2.4,Win32,60.01680471,55009,,,,,,,,,,,,,,,,,,,,,,,,,,,down,0,7.3808,,0.055555556,-0.072222222,1,0,0,0.383,0,83,83,38,1,baai,images/br_baai.png,images/cb_baai.png,0,,,,,,,,,,,,,,,,,,,,,,
,,,,,,55009,2023-07-29_12h33.13.533,vbt_B1_day2,2022.2.4,Win32,60.01680471,55009,,,,,,,,,,,,,,,,,,,,,,,,,,,down,0,5.2175,,0.078703704,-0.071296296,1,0,0,0.3761,0,84,84,67,1,zwart,images/br_zwart.png,images/cb_zwart.png,0,,,,,,,,,,,,,,,,,,,,,,
,,,,,,55009,2023-07-29_12h33.13.533,vbt_B1_day2,2022.2.4,Win32,60.01680471,55009,,,,,,,,,,,,,,,,,,,,,,,,,,,down,0,6.0335,,0.116666667,-0.088888889,1,0,0,0.4929,0,85,85,91,1,gezond,images/br_gezond.png,images/cb_gezond.png,0,,,,,,,,,,,,,,,,,,,,,,
,,,,,,55009,2023-07-29_12h33.13.533,vbt_B1_day2,2022.2.4,Win32,60.01680471,55009,,,,,,,,,,,,,,,,,,,,,,,,,,,down,0,2.1002,,0.099074074,-0.107407407,1,0,0,1.0499,0,86,86,71,1,bever,images/br_bever.png,images/cb_bever.png,0,,,,,,,,,,,,,,,,,,,,,,
,,,,,,55009,2023-07-29_12h33.13.533,vbt_B1_day2,2022.2.4,Win32,60.01680471,55009,,,,,,,,,,,,,,,,,,,,,,,,,,,down,0,0.2673,,0.091666667,-0.099074074,1,0,0,0.3674,0,87,87,28,1,stal,images/br_stal.png,images/cb_stal.png,0,,,,,,,,,,,,,,,,,,,,,,
,,,,,,55009,2023-07-29_12h33.13.533,vbt_B1_day2,2022.2.4,Win32,60.01680471,55009,,,,,,,,,,,,,,,,,,,,,,,,,,,down,0,1.1943,,0.111111111,-0.138888889,1,0,0,0.3495,0,88,88,12,1,kust,images/br_kust.png,images/cb_kust.png,0,,,,,,,,,,,,,,,,,,,,,,
,,,,,,55009,2023-07-29_12h33.13.533,vbt_B1_day2,2022.2.4,Win32,60.01680471,55009,,,,,,,,,,,,,,,,,,,,,,,,,,,down,0,5.2102,,0.149074074,-0.112037037,1,0,0,0.4505,0,89,89,199,1,beseffen,images/br_beseffen.png,images/cb_beseffen.png,0,,,,,,,,,,,,,,,,,,,,,,
,,,,,,55009,2023-07-29_12h33.13.533,vbt_B1_day2,2022.2.4,Win32,60.01680471,55009,,,,,,,,,,,,,,,,,,,,,,,,,,,down,0,1.8505,,0.100925926,-0.087962963,1,0,0,0.3332,0,90,90,21,1,mist,images/br_mist.png,images/cb_mist.png,0,,,,,,,,,,,,,,,,,,,,,,
,,,,,,55009,2023-07-29_12h33.13.533,vbt_B1_day2,2022.2.4,Win32,60.01680471,55009,,,,,,,,,,,,,,,,,,,,,,,,,,,down,0,9.754,,0.191666667,-0.094444444,1,0,0,1.2995,0,91,91,166,1,strikken,images/br_strikken.png,images/cb_strikken.png,0,,,,,,,,,,,,,,,,,,,,,,
,,,,,,55009,2023-07-29_12h33.13.533,vbt_B1_day2,2022.2.4,Win32,60.01680471,55009,,,,,,,,,,,,,,,,,,,,,,,,,,,down,0,7.5505,,0.074074074,-0.092592593,1,0,0,1.2933,0,92,92,69,1,waken,images/br_waken.png,images/cb_waken.png,0,,,,,,,,,,,,,,,,,,,,,,
,,,,,,55009,2023-07-29_12h33.13.533,vbt_B1_day2,2022.2.4,Win32,60.01680471,55009,,,,,,,,,,,,,,,,,,,,,,,,,,,down,0,42.2507,,0.192592593,0.100925926,1,0,0,0.9166,0,93,93,185,1,mijnheer,images/br_mijnheer.png,images/cb_mijnheer.png,0,,,,,,,,,,,,,,,,,,,,,,
,,,,,,55009,2023-07-29_12h33.13.533,vbt_B1_day2,2022.2.4,Win32,60.01680471,55009,,,,,,,,,,,,,,,,,,,,,,,,,,,down,0,15.0716,,0.161111111,0.021296296,1,0,0,0.8162,0,94,94,169,1,oprotten,images/br_oprotten.png,images/cb_oprotten.png,0,,,,,,,,,,,,,,,,,,,,,,
,,,,,,55009,2023-07-29_12h33.13.533,vbt_B1_day2,2022.2.4,Win32,60.01680471,55009,,,,,,,,,,,,,,,,,,,,,,,,,,,down,0,2.2906,,0.189814815,-0.048148148,1,0,0,1.1332,0,95,95,29,1,baas,images/br_baas.png,images/cb_baas.png,0,,,,,,,,,,,,,,,,,,,,,,
,,,,,,55009,2023-07-29_12h33.13.533,vbt_B1_day2,2022.2.4,Win32,60.01680471,55009,,,,,,,,,,,,,,,,,,,,,,,,,,,down,0,11.0837,,0.191666667,-0.05,1,0,0,0.5831,0,96,96,124,1,bloeien,images/br_bloeien.png,images/cb_bloeien.png,0,,,,,,,,,,,,,,,,,,,,,,
,,,,,,55009,2023-07-29_12h33.13.533,vbt_B1_day2,2022.2.4,Win32,60.01680471,55009,,,,,,,,,,,,,,,,,,,,,,,,,,,down,0,11.6632,,0.262962963,-0.090740741,1,0,0,1.9,0,97,97,82,1,muziek,images/br_muziek.png,images/cb_muziek.png,0,,,,,,,,,,,,,,,,,,,,,,
,,,,,,55009,2023-07-29_12h33.13.533,vbt_B1_day2,2022.2.4,Win32,60.01680471,55009,,,,,,,,,,,,,,,,,,,,,,,,,,,down,0,13.6183,,0.02962963,-0.10462963,1,0,0,0.8832,0,98,98,85,1,heilig,images/br_heilig.png,images/cb_heilig.png,0,,,,,,,,,,,,,,,,,,,,,,
,,,,,,55009,2023-07-29_12h33.13.533,vbt_B1_day2,2022.2.4,Win32,60.01680471,55009,,,,,,,,,,,,,,,,,,,,,,,,,,,down,0,10.6005,,0.17962963,-0.09537037,1,0,0,1.7834,0,99,99,147,1,komisch,images/br_komisch.png,images/cb_komisch.png,0,,,,,,,,,,,,,,,,,,,,,,
,,,,,,55009,2023-07-29_12h33.13.533,vbt_B1_day2,2022.2.4,Win32,60.01680471,55009,,,,,,,,,,,,,,,,,,,,,,,,,,,down,0,8.3177,,0.098148148,-0.112037037,1,0,0,1.3161,0,100,100,137,1,trekker,images/br_trekker.png,images/cb_trekker.png,1,trekker,,,,,,,,,,,,,,,,,,,,,
,,,,,,55009,2023-07-29_12h33.13.533,vbt_B1_day2,2022.2.4,Win32,60.01680471,55009,,,,,,,,,,,,,,,,,,,,,,,,,,,down,0,7.5508,,0.125925926,-0.00462963,1,0,0,0.9164,0,101,101,121,1,twijfel,images/br_twijfel.png,images/cb_twijfel.png,0,,,,,,,,,,,,,,,,,,,,,,
,,,,,,55009,2023-07-29_12h33.13.533,vbt_B1_day2,2022.2.4,Win32,60.01680471,55009,,,,,,,,,,,,,,,,,,,,,,,,,,,down,0,5.7922,,0.123148148,-0.134259259,1,0,0,4.4501,0,102,102,58,1,tekst,images/br_tekst.png,images/cb_tekst.png,1,tekst,,,,,,,,,,,,,,,,,,,,,
,,,,,,55009,2023-07-29_12h33.13.533,vbt_B1_day2,2022.2.4,Win32,60.01680471,55009,,,,,,,,,,,,,,,,,,,,,,,,,,,down,0,8.0205,,0.068518519,-0.069444444,1,0,0,1.0167,0,103,103,129,1,verhaal,images/br_verhaal.png,images/cb_verhaal.png,0,,,,,,,,,,,,,,,,,,,,,,
,,,,,,55009,2023-07-29_12h33.13.533,vbt_B1_day2,2022.2.4,Win32,60.01680471,55009,,,,,,,,,,,,,,,,,,,,,,,,,,,down,0,11.2198,,0.074074074,-0.074074074,1,0,0,0.6337,0,104,104,86,1,woning,images/br_woning.png,images/cb_woning.png,0,,,,,,,,,,,,,,,,,,,,,,
,,,,,,55009,2023-07-29_12h33.13.533,vbt_B1_day2,2022.2.4,Win32,60.01680471,55009,,,,,,,,,,,,,,,,,,,,,,,,,,,down,0,6.8335,,0.081481481,-0.083333333,1,0,0,0.7496,0,105,105,112,1,lukken,images/br_lukken.png,images/cb_lukken.png,0,,,,,,,,,,,,,,,,,,,,,,
,,,,,,55009,2023-07-29_12h33.13.533,vbt_B1_day2,2022.2.4,Win32,60.01680471,55009,,,,,,,,,,,,,,,,,,,,,,,,,,,down,0,7.4865,,0.112962963,-0.007407407,1,0,0,0.7003,0,106,106,154,1,aflopen,images/br_aflopen.png,images/cb_aflopen.png,0,,,,,,,,,,,,,,,,,,,,,,
,,,,,,55009,2023-07-29_12h33.13.533,vbt_B1_day2,2022.2.4,Win32,60.01680471,55009,,,,,,,,,,,,,,,,,,,,,,,,,,,down,0,20.5853,,0.162962963,-0.143518519,1,0,0,3.4499,0,107,107,168,1,bisschop,images/br_bisschop.png,images/cb_bisschop.png,0,,,,,,,,,,,,,,,,,,,,,,
,,,,,,55009,2023-07-29_12h33.13.533,vbt_B1_day2,2022.2.4,Win32,60.01680471,55009,,,,,,,,,,,,,,,,,,,,,,,,,,,down,0,14.1346,,0.089814815,-0.083333333,1,0,0,1.4999,0,108,108,134,1,geliefd,images/br_geliefd.png,images/cb_geliefd.png,0,,,,,,,,,,,,,,,,,,,,,,
,,,,,,55009,2023-07-29_12h33.13.533,vbt_B1_day2,2022.2.4,Win32,60.01680471,55009,,,,,,,,,,,,,,,,,,,,,,,,,,,down,0,3.0338,,-0.111111111,-0.010185185,1,0,0,0.6997,0,109,109,49,1,laken,images/br_laken.png,images/cb_laken.png,0,,,,,,,,,,,,,,,,,,,,,,
,,,,,,55009,2023-07-29_12h33.13.533,vbt_B1_day2,2022.2.4,Win32,60.01680471,55009,,,,,,,,,,,,,,,,,,,,,,,,,,,down,0,2.3899,,0.066666667,-0.006481481,1,0,0,0.9167,0,110,110,73,1,volop,images/br_volop.png,images/cb_volop.png,0,,,,,,,,,,,,,,,,,,,,,,
,,,,,,55009,2023-07-29_12h33.13.533,vbt_B1_day2,2022.2.4,Win32,60.01680471,55009,,,,,,,,,,,,,,,,,,,,,,,,,,,down,0,9.2021,,0.106481481,-0.022222222,1,0,0,1.5168,0,111,111,65,1,parel,images/br_parel.png,images/cb_parel.png,0,,,,,,,,,,,,,,,,,,,,,,
,,,,,,55009,2023-07-29_12h33.13.533,vbt_B1_day2,2022.2.4,Win32,60.01680471,55009,,,,,,,,,,,,,,,,,,,,,,,,,,,down,0,2.217,,0.118518519,-0.058333333,1,0,0,0.6496,0,112,112,55,1,praat,images/br_praat.png,images/cb_praat.png,0,,,,,,,,,,,,,,,,,,,,,,
,,,,,,55009,2023-07-29_12h33.13.533,vbt_B1_day2,2022.2.4,Win32,60.01680471,55009,,,,,,,,,,,,,,,,,,,,,,,,,,,down,0,7.7342,,0.133333333,-0.107407407,1,0,0,0.6835,0,113,113,98,1,kreeft,images/br_kreeft.png,images/cb_kreeft.png,1,kreeft,,,,,,,,,,,,,,,,,,,,,
,,,,,,55009,2023-07-29_12h33.13.533,vbt_B1_day2,2022.2.4,Win32,60.01680471,55009,,,,,,,,,,,,,,,,,,,,,,,,,,,down,0,29.7063,,0.140740741,-0.110185185,1,0,0,0.7666,0,114,114,145,1,invloed,images/br_invloed.png,images/cb_invloed.png,0,,,,,,,,,,,,,,,,,,,,,,
,,,,,,55009,2023-07-29_12h33.13.533,vbt_B1_day2,2022.2.4,Win32,60.01680471,55009,,,,,,,,,,,,,,,,,,,,,,,,,,,down,0,2.5674,,0.157407407,-0.098148148,1,0,0,0.8001,0,115,115,31,1,poes,images/br_poes.png,images/cb_poes.png,0,,,,,,,,,,,,,,,,,,,,,,
,,,,,,55009,2023-07-29_12h33.13.533,vbt_B1_day2,2022.2.4,Win32,60.01680471,55009,,,,,,,,,,,,,,,,,,,,,,,,,,,down,0,17.2504,,0.075925926,-0.027777778,1,0,0,0.8,0,116,116,133,1,seizoen,images/br_seizoen.png,images/cb_seizoen.png,0,,,,,,,,,,,,,,,,,,,,,,
,,,,,,55009,2023-07-29_12h33.13.533,vbt_B1_day2,2022.2.4,Win32,60.01680471,55009,,,,,,,,,,,,,,,,,,,,,,,,,,,down,0,3.338,,0.07037037,-0.001851852,1,0,0,0.7499,0,117,117,110,1,zuster,images/br_zuster.png,images/cb_zuster.png,0,,,,,,,,,,,,,,,,,,,,,,
,,,,,,55009,2023-07-29_12h33.13.533,vbt_B1_day2,2022.2.4,Win32,60.01680471,55009,,,,,,,,,,,,,,,,,,,,,,,,,,,down,0,11.2937,,-0.247222222,0.012037037,1,0,0,0.7501,0,118,118,196,1,nakijken,images/br_nakijken.png,images/cb_nakijken.png,0,,,,,,,,,,,,,,,,,,,,,,
,,,,,,55009,2023-07-29_12h33.13.533,vbt_B1_day2,2022.2.4,Win32,60.01680471,55009,,,,,,,,,,,,,,,,,,,,,,,,,,,down,0,7.3197,,0.112962963,-0.189814815,1,0,0,0.7837,0,119,119,97,1,loyaal,images/br_loyaal.png,images/cb_loyaal.png,1,loyaal,,,,,,,,,,,,,,,,,,,,,
,,,,,,55009,2023-07-29_12h33.13.533,vbt_B1_day2,2022.2.4,Win32,60.01680471,55009,,,,,,,,,,,,,,,,,,,,,,,,,,,down,0,5.2175,,0.122222222,-0.036111111,1,0,0,0.9659,0,120,120,90,1,geluid,images/br_geluid.png,images/cb_geluid.png,0,,,,,,,,,,,,,,,,,,,,,,
,,,,,,55009,2023-07-29_12h33.13.533,vbt_B1_day2,2022.2.4,Win32,60.01680471,55009,,,,,,,,,,,,,,,,,,,,,,,,,,,down,0,11.202,,-0.139814815,-0.059259259,1,0,0,0.6336,0,121,121,75,1,snoep,images/br_snoep.png,images/cb_snoep.png,0,,,,,,,,,,,,,,,,,,,,,,
,,,,,,55009,2023-07-29_12h33.13.533,vbt_B1_day2,2022.2.4,Win32,60.01680471,55009,,,,,,,,,,,,,,,,,,,,,,,,,,,down,0,8.393,,0.096296296,-0.084259259,1,0,0,0.6503,0,122,122,2,1,jaar,images/br_jaar.png,images/cb_jaar.png,0,,,,,,,,,,,,,,,,,,,,,,
,,,,,,55009,2023-07-29_12h33.13.533,vbt_B1_day2,2022.2.4,Win32,60.01680471,55009,,,,,,,,,,,,,,,,,,,,,,,,,,,down,0,2.3701,,0.012962963,-0.007407407,1,0,0,0.3667,0,123,123,78,1,leren,images/br_leren.png,images/cb_leren.png,0,,,,,,,,,,,,,,,,,,,,,,
,,,,,,55009,2023-07-29_12h33.13.533,vbt_B1_day2,2022.2.4,Win32,60.01680471,55009,,,,,,,,,,,,,,,,,,,,,,,,,,,down,0,4.7338,,0.051851852,-0.032407407,1,0,0,0.6667,0,124,124,42,1,bleek,images/br_bleek.png,images/cb_bleek.png,0,,,,,,,,,,,,,,,,,,,,,,
,,,,,,55009,2023-07-29_12h33.13.533,vbt_B1_day2,2022.2.4,Win32,60.01680471,55009,,,,,,,,,,,,,,,,,,,,,,,,,,,down,0,3.9544,,0.035185185,-0.072222222,1,0,0,0.4836,0,125,125,14,1,rijp,images/br_rijp.png,images/cb_rijp.png,0,,,,,,,,,,,,,,,,,,,,,,
,,,,,,55009,2023-07-29_12h33.13.533,vbt_B1_day2,2022.2.4,Win32,60.01680471,55009,,,,,,,,,,,,,,,,,,,,,,,,,,,down,0,8.6481,,0.175,-0.069444444,1,0,0,0.5499,0,126,126,167,1,eenhoorn,images/br_eenhoorn.png,images/cb_eenhoorn.png,0,,,,,,,,,,,,,,,,,,,,,,
,,,,,,55009,2023-07-29_12h33.13.533,vbt_B1_day2,2022.2.4,Win32,60.01680471,55009,,,,,,,,,,,,,,,,,,,,,,,,,,,down,0,38.0373,,0.175925926,-0.109259259,1,0,0,10.2999,0,127,127,176,1,techniek,images/br_techniek.png,images/cb_techniek.png,1,techntechniek,,,,,,,,,,,,,,,,,,,,,
,,,,,,55009,2023-07-29_12h33.13.533,vbt_B1_day2,2022.2.4,Win32,60.01680471,55009,,,,,,,,,,,,,,,,,,,,,,,,,,,down,0,2.3003,,0.016666667,-0.002777778,1,0,0,1.7999,0,128,128,33,1,vlek,images/br_vlek.png,images/cb_vlek.png,0,,,,,,,,,,,,,,,,,,,,,,
,,,,,,55009,2023-07-29_12h33.13.533,vbt_B1_day2,2022.2.4,Win32,60.01680471,55009,,,,,,,,,,,,,,,,,,,,,,,,,,,down,0,3.2972,,-0.008333333,-0.011111111,1,0,0,0.3995,0,129,129,47,1,kabel,images/br_kabel.png,images/cb_kabel.png,0,,,,,,,,,,,,,,,,,,,,,,
,,,,,,55009,2023-07-29_12h33.13.533,vbt_B1_day2,2022.2.4,Win32,60.01680471,55009,,,,,,,,,,,,,,,,,,,,,,,,,,,down,0,3.2368,,0.105555556,-0.059259259,1,0,0,0.6501,0,130,130,126,1,kasteel,images/br_kasteel.png,images/cb_kasteel.png,0,,,,,,,,,,,,,,,,,,,,,,
,,,,,,55009,2023-07-29_12h33.13.533,vbt_B1_day2,2022.2.4,Win32,60.01680471,55009,,,,,,,,,,,,,,,,,,,,,,,,,,,down,0,4.6555,,0.103703704,-0.063888889,1,0,0,0.2167,0,131,131,17,1,taal,images/br_taal.png,images/cb_taal.png,1,taal,,,,,,,,,,,,,,,,,,,,,
,,,,,,55009,2023-07-29_12h33.13.533,vbt_B1_day2,2022.2.4,Win32,60.01680471,55009,,,,,,,,,,,,,,,,,,,,,,,,,,,down,0,14.293,,-0.075,-0.010185185,1,0,0,0.3498,0,132,132,130,1,keihard,images/br_keihard.png,images/cb_keihard.png,0,,,,,,,,,,,,,,,,,,,,,,
,,,,,,55009,2023-07-29_12h33.13.533,vbt_B1_day2,2022.2.4,Win32,60.01680471,55009,,,,,,,,,,,,,,,,,,,,,,,,,,,down,0,0.8169,,0.002777778,-0.057407407,1,0,0,2.7834,0,133,133,157,1,uitlaat,images/br_uitlaat.png,images/cb_uitlaat.png,0,,,,,,,,,,,,,,,,,,,,,,
,,,,,,55009,2023-07-29_12h33.13.533,vbt_B1_day2,2022.2.4,Win32,60.01680471,55009,,,,,,,,,,,,,,,,,,,,,,,,,,,down,0,3.1673,,-0.169444444,-0.009259259,1,0,0,0.5007,0,134,134,106,1,zingen,images/br_zingen.png,images/cb_zingen.png,0,,,,,,,,,,,,,,,,,,,,,,
,,,,,,55009,2023-07-29_12h33.13.533,vbt_B1_day2,2022.2.4,Win32,60.01680471,55009,,,,,,,,,,,,,,,,,,,,,,,,,,,down,0,2.2363,,-0.07037037,0.025,1,0,0,0.8163,0,135,135,77,1,woede,images/br_woede.png,images/cb_woede.png,0,,,,,,,,,,,,,,,,,,,,,,
,,,,,,55009,2023-07-29_12h33.13.533,vbt_B1_day2,2022.2.4,Win32,60.01680471,55009,,,,,,,,,,,,,,,,,,,,,,,,,,,down,0,1.4839,,-0.027777778,0.032407407,1,0,0,0.2835,0,136,136,39,1,laag,images/br_laag.png,images/cb_laag.png,0,,,,,,,,,,,,,,,,,,,,,,
,,,,,,55009,2023-07-29_12h33.13.533,vbt_B1_day2,2022.2.4,Win32,60.01680471,55009,,,,,,,,,,,,,,,,,,,,,,,,,,,down,0,12.5811,,0.05,0.016666667,1,0,0,0.3832,0,137,137,191,1,opheffen,images/br_opheffen.png,images/cb_opheffen.png,0,,,,,,,,,,,,,,,,,,,,,,
,,,,,,55009,2023-07-29_12h33.13.533,vbt_B1_day2,2022.2.4,Win32,60.01680471,55009,,,,,,,,,,,,,,,,,,,,,,,,,,,down,0,2.7241,,-0.060185185,0.027777778,1,0,0,0.2338,0,138,138,72,1,strak,images/br_strak.png,images/cb_strak.png,0,,,,,,,,,,,,,,,,,,,,,,
,,,,,,55009,2023-07-29_12h33.13.533,vbt_B1_day2,2022.2.4,Win32,60.01680471,55009,,,,,,,,,,,,,,,,,,,,,,,,,,,down,0,4.1089,,0.016666667,0.028703704,1,0,0,0.45,0,139,139,59,1,kring,images/br_kring.png,images/cb_kring.png,1,kring,,,,,,,,,,,,,,,,,,,,,
,,,,,,55009,2023-07-29_12h33.13.533,vbt_B1_day2,2022.2.4,Win32,60.01680471,55009,,,,,,,,,,,,,,,,,,,,,,,,,,,down,0,4.3918,,0.038888889,-0.066666667,1,0,0,0.7835,0,140,140,139,1,stiekem,images/br_stiekem.png,images/cb_stiekem.png,1,stiekem,,,,,,,,,,,,,,,,,,,,,
,,,,,,55009,2023-07-29_12h33.13.533,vbt_B1_day2,2022.2.4,Win32,60.01680471,55009,,,,,,,,,,,,,,,,,,,,,,,,,,,down,0,3.9676,,0.032407407,-0.093518519,1,0,0,0.6164,0,141,141,132,1,grappen,images/br_grappen.png,images/cb_grappen.png,0,,,,,,,,,,,,,,,,,,,,,,
,,,,,,55009,2023-07-29_12h33.13.533,vbt_B1_day2,2022.2.4,Win32,60.01680471,55009,,,,,,,,,,,,,,,,,,,,,,,,,,,down,0,9.6206,,0.027777778,0.000925926,1,0,0,0.3998,0,142,142,119,1,liefje,images/br_liefje.png,images/cb_liefje.png,0,,,,,,,,,,,,,,,,,,,,,,
,,,,,,55009,2023-07-29_12h33.13.533,vbt_B1_day2,2022.2.4,Win32,60.01680471,55009,,,,,,,,,,,,,,,,,,,,,,,,,,,down,0,5.9089,,0.027777778,-0.041666667,1,0,0,0.3664,0,143,143,101,1,staren,images/br_staren.png,images/cb_staren.png,0,,,,,,,,,,,,,,,,,,,,,,
,,,,,,55009,2023-07-29_12h33.13.533,vbt_B1_day2,2022.2.4,Win32,60.01680471,55009,,,,,,,,,,,,,,,,,,,,,,,,,,,down,0,2.3344,,0.037037037,-0.057407407,1,0,0,0.5168,0,144,144,16,1,ziek,images/br_ziek.png,images/cb_ziek.png,1,ziek,,,,,,,,,,,,,,,,,,,,,
,,,,,,55009,2023-07-29_12h33.13.533,vbt_B1_day2,2022.2.4,Win32,60.01680471,55009,,,,,,,,,,,,,,,,,,,,,,,,,,,down,0,3.5507,,0.075925926,-0.030555556,1,0,0,0.3834,0,145,145,68,1,schat,images/br_schat.png,images/cb_schat.png,0,,,,,,,,,,,,,,,,,,,,,,
,,,,,,55009,2023-07-29_12h33.13.533,vbt_B1_day2,2022.2.4,Win32,60.01680471,55009,,,,,,,,,,,,,,,,,,,,,,,,,,,down,0,11.122,,0.003703704,-0.014814815,1,0,0,0.3839,0,146,146,92,1,geheim,images/br_geheim.png,images/cb_geheim.png,0,,,,,,,,,,,,,,,,,,,,,,
,,,,,,55009,2023-07-29_12h33.13.533,vbt_B1_day2,2022.2.4,Win32,60.01680471,55009,,,,,,,,,,,,,,,,,,,,,,,,,,,down,0,1.9027,,0.037962963,-0.014814815,1,0,0,0.2832,0,147,147,6,1,diep,images/br_diep.png,images/cb_diep.png,0,,,,,,,,,,,,,,,,,,,,,,
,,,,,,55009,2023-07-29_12h33.13.533,vbt_B1_day2,2022.2.4,Win32,60.01680471,55009,,,,,,,,,,,,,,,,,,,,,,,,,,,down,0,5.6362,,0.092592593,-0.075,1,0,0,0.6668,0,148,148,135,1,gedicht,images/br_gedicht.png,images/cb_gedicht.png,0,,,,,,,,,,,,,,,,,,,,,,
,,,,,,55009,2023-07-29_12h33.13.533,vbt_B1_day2,2022.2.4,Win32,60.01680471,55009,,,,,,,,,,,,,,,,,,,,,,,,,,,down,0,1.7781,,0.017592593,0.026851852,1,0,0,0.3168,0,149,149,34,1,vorm,images/br_vorm.png,images/cb_vorm.png,0,,,,,,,,,,,,,,,,,,,,,,
,,,,,,55009,2023-07-29_12h33.13.533,vbt_B1_day2,2022.2.4,Win32,60.01680471,55009,,,,,,,,,,,,,,,,,,,,,,,,,,,down,0,1.9506,,-0.012962963,0.014814815,1,0,0,0.4168,0,150,150,48,1,steel,images/br_steel.png,images/cb_steel.png,0,,,,,,,,,,,,,,,,,,,,,,
,,,,,,55009,2023-07-29_12h33.13.533,vbt_B1_day2,2022.2.4,Win32,60.01680471,55009,,,,,,,,,,,,,,,,,,,,,,,,,,,down,0,2.8505,,0.041666667,-0.001851852,1,0,0,0.4667,0,151,151,104,1,zweven,images/br_zweven.png,images/cb_zweven.png,0,,,,,,,,,,,,,,,,,,,,,,
,,,,,,55009,2023-07-29_12h33.13.533,vbt_B1_day2,2022.2.4,Win32,60.01680471,55009,,,,,,,,,,,,,,,,,,,,,,,,,,,down,0,4.2507,,0.032407407,-0.010185185,1,0,0,0.3497,0,152,152,118,1,vinger,images/br_vinger.png,images/cb_vinger.png,0,,,,,,,,,,,,,,,,,,,,,,
,,,,,,55009,2023-07-29_12h33.13.533,vbt_B1_day2,2022.2.4,Win32,60.01680471,55009,,,,,,,,,,,,,,,,,,,,,,,,,,,down,0,6.1061,,0.037037037,0.000925926,1,0,0,0.3331,0,153,153,107,1,maling,images/br_maling.png,images/cb_maling.png,0,,,,,,,,,,,,,,,,,,,,,,
,,,,,,55009,2023-07-29_12h33.13.533,vbt_B1_day2,2022.2.4,Win32,60.01680471,55009,,,,,,,,,,,,,,,,,,,,,,,,,,,down,0,1.1853,,0.014814815,-0.033333333,1,0,0,0.2664,0,154,154,61,1,groen,images/br_groen.png,images/cb_groen.png,0,,,,,,,,,,,,,,,,,,,,,,
,,,,,,55009,2023-07-29_12h33.13.533,vbt_B1_day2,2022.2.4,Win32,60.01680471,55009,,,,,,,,,,,,,,,,,,,,,,,,,,,down,0,4.3841,,0.20462963,-0.018518519,1,0,0,0.4328,0,155,155,187,1,opkijken,images/br_opkijken.png,images/cb_opkijken.png,0,,,,,,,,,,,,,,,,,,,,,,
,,,,,,55009,2023-07-29_12h33.13.533,vbt_B1_day2,2022.2.4,Win32,60.01680471,55009,,,,,,,,,,,,,,,,,,,,,,,,,,,down,0,3.373,,0.136111111,-0.038888889,1,0,0,0.1996,0,156,156,19,1,geit,images/br_geit.png,images/cb_geit.png,1,geit,,,,,,,,,,,,,,,,,,,,,
,,,,,,55009,2023-07-29_12h33.13.533,vbt_B1_day2,2022.2.4,Win32,60.01680471,55009,,,,,,,,,,,,,,,,,,,,,,,,,,,down,0,0.6588,,0.081481481,-0.185185185,1,0,0,0.8839,0,157,157,161,1,attentie,images/br_attentie.png,images/cb_attentie.png,0,,,,,,,,,,,,,,,,,,,,,,
,,,,,,55009,2023-07-29_12h33.13.533,vbt_B1_day2,2022.2.4,Win32,60.01680471,55009,,,,,,,,,,,,,,,,,,,,,,,,,,,down,0,0.1177,,0.101851852,-0.173148148,1,0,0,1.0003,0,158,158,80,1,kanjer,images/br_kanjer.png,images/cb_kanjer.png,0,,,,,,,,,,,,,,,,,,,,,,
,,,,,,55009,2023-07-29_12h33.13.533,vbt_B1_day2,2022.2.4,Win32,60.01680471,55009,,,,,,,,,,,,,,,,,,,,,,,,,,,down,0,9.1671,,-0.009259259,-0.011111111,1,0,0,0.3166,0,159,159,8,1,knie,images/br_knie.png,images/cb_knie.png,0,,,,,,,,,,,,,,,,,,,,,,
,,,,,,55009,2023-07-29_12h33.13.533,vbt_B1_day2,2022.2.4,Win32,60.01680471,55009,,,,,,,,,,,,,,,,,,,,,,,,,,,down,0,1.9864,,-0.000925926,-0.016666667,1,0,0,1.0168,0,160,160,93,1,waarop,images/br_waarop.png,images/cb_waarop.png,0,,,,,,,,,,,,,,,,,,,,,,
,,,,,,55009,2023-07-29_12h33.13.533,vbt_B1_day2,2022.2.4,Win32,60.01680471,55009,,,,,,,,,,,,,,,,,,,,,,,,,,,down,0,9.7836,,0.123148148,-0.04537037,1,0,0,0.3838,0,161,161,53,1,baron,images/br_baron.png,images/cb_baron.png,0,,,,,,,,,,,,,,,,,,,,,,
,,,,,,55009,2023-07-29_12h33.13.533,vbt_B1_day2,2022.2.4,Win32,60.01680471,55009,,,,,,,,,,,,,,,,,,,,,,,,,,,down,0,3.1505,,0.148148148,-0.032407407,1,0,0,0.8165,0,162,162,99,1,koffie,images/br_koffie.png,images/cb_koffie.png,1,koffie,,,,,,,,,,,,,,,,,,,,,
,,,,,,55009,2023-07-29_12h33.13.533,vbt_B1_day2,2022.2.4,Win32,60.01680471,55009,,,,,,,,,,,,,,,,,,,,,,,,,,,down,0,0.6413,,0.014814815,-0.024074074,1,0,0,2.2666,0,163,163,43,1,klauw,images/br_klauw.png,images/cb_klauw.png,0,,,,,,,,,,,,,,,,,,,,,,
,,,,,,55009,2023-07-29_12h33.13.533,vbt_B1_day2,2022.2.4,Win32,60.01680471,55009,,,,,,,,,,,,,,,,,,,,,,,,,,,down,0,0.2578,,0.027777778,-0.050925926,1,0,0,0.4835,0,164,164,9,1,hier,images/br_hier.png,images/cb_hier.png,0,,,,,,,,,,,,,,,,,,,,,,
,,,,,,55009,2023-07-29_12h33.13.533,vbt_B1_day2,2022.2.4,Win32,60.01680471,55009,,,,,,,,,,,,,,,,,,,,,,,,,,,down,0,2.2992,,0.080555556,-0.005555556,1,0,0,0.4001,0,165,165,40,1,schep,images/br_schep.png,images/cb_schep.png,0,,,,,,,,,,,,,,,,,,,,,,
,,,,,,55009,2023-07-29_12h33.13.533,vbt_B1_day2,2022.2.4,Win32,60.01680471,55009,,,,,,,,,,,,,,,,,,,,,,,,,,,down,0,6.0337,,-0.016666667,0.005555556,1,0,0,0.3332,0,166,166,41,1,maken,images/br_maken.png,images/cb_maken.png,0,,,,,,,,,,,,,,,,,,,,,,
,,,,,,55009,2023-07-29_12h33.13.533,vbt_B1_day2,2022.2.4,Win32,60.01680471,55009,,,,,,,,,,,,,,,,,,,,,,,,,,,down,0,2.3577,,0.05,-0.021296296,1,0,0,0.4666,0,167,167,56,1,traag,images/br_traag.png,images/cb_traag.png,1,traag,,,,,,,,,,,,,,,,,,,,,
,,,,,,55009,2023-07-29_12h33.13.533,vbt_B1_day2,2022.2.4,Win32,60.01680471,55009,,,,,,,,,,,,,,,,,,,,,,,,,,,down,0,1.5036,,-0.025925926,-0.096296296,1,0,0,1.1003,0,168,168,81,1,dubbel,images/br_dubbel.png,images/cb_dubbel.png,0,,,,,,,,,,,,,,,,,,,,,,
,,,,,,55009,2023-07-29_12h33.13.533,vbt_B1_day2,2022.2.4,Win32,60.01680471,55009,,,,,,,,,,,,,,,,,,,,,,,,,,,down,0,0.6728,,-0.025925926,-0.096296296,1,0,0,0.817,0,169,169,143,1,hechten,images/br_hechten.png,images/cb_hechten.png,0,,,,,,,,,,,,,,,,,,,,,,
,,,,,,55009,2023-07-29_12h33.13.533,vbt_B1_day2,2022.2.4,Win32,60.01680471,55009,,,,,,,,,,,,,,,,,,,,,,,,,,,down,0,0.0894,,-0.027777778,-0.103703704,1,0,0,0.75,0,170,170,164,1,anarchie,images/br_anarchie.png,images/cb_anarchie.png,0,,,,,,,,,,,,,,,,,,,,,,
,,,,,,55009,2023-07-29_12h33.13.533,vbt_B1_day2,2022.2.4,Win32,60.01680471,55009,,,,,,,,,,,,,,,,,,,,,,,,,,,down,0,6.6739,,-0.000925926,-0.097222222,1,0,0,0.4666,0,171,171,138,1,akkoord,images/br_akkoord.png,images/cb_akkoord.png,1,akkoord,,,,,,,,,,,,,,,,,,,,,
,,,,,,55009,2023-07-29_12h33.13.533,vbt_B1_day2,2022.2.4,Win32,60.01680471,55009,,,,,,,,,,,,,,,,,,,,,,,,,,,down,0,0.29,,-0.043518519,-0.09537037,1,0,0,0.4997,0,172,172,111,1,ticket,images/br_ticket.png,images/cb_ticket.png,0,,,,,,,,,,,,,,,,,,,,,,
,,,,,,55009,2023-07-29_12h33.13.533,vbt_B1_day2,2022.2.4,Win32,60.01680471,55009,,,,,,,,,,,,,,,,,,,,,,,,,,,down,0,0.0674,,-0.043518519,-0.09537037,1,0,0,0.4503,0,173,173,4,1,moes,images/br_moes.png,images/cb_moes.png,0,,,,,,,,,,,,,,,,,,,,,,
,,,,,,55009,2023-07-29_12h33.13.533,vbt_B1_day2,2022.2.4,Win32,60.01680471,55009,,,,,,,,,,,,,,,,,,,,,,,,,,,down,0,0.2042,,-0.043518519,-0.096296296,1,0,0,0.7832,0,174,174,117,1,kennis,images/br_kennis.png,images/cb_kennis.png,0,,,,,,,,,,,,,,,,,,,,,,
,,,,,,55009,2023-07-29_12h33.13.533,vbt_B1_day2,2022.2.4,Win32,60.01680471,55009,,,,,,,,,,,,,,,,,,,,,,,,,,,down,0,4.3204,,0.099074074,0.003703704,1,0,0,0.367,0,175,175,3,1,mand,images/br_mand.png,images/cb_mand.png,0,,,,,,,,,,,,,,,,,,,,,,
,,,,,,55009,2023-07-29_12h33.13.533,vbt_B1_day2,2022.2.4,Win32,60.01680471,55009,,,,,,,,,,,,,,,,,,,,,,,,,,,down,0,1.6359,,0.052777778,-0.07037037,1,0,0,0.3333,0,176,176,20,1,site,images/br_site.png,images/cb_site.png,0,,,,,,,,,,,,,,,,,,,,,,
,,,,,,55009,2023-07-29_12h33.13.533,vbt_B1_day2,2022.2.4,Win32,60.01680471,55009,,,,,,,,,,,,,,,,,,,,,,,,,,,down,0,11.9371,,0.064814815,-0.062962963,1,0,0,0.6667,0,177,177,179,1,woestijn,images/br_woestijn.png,images/cb_woestijn.png,1,woestijn,,,,,,,,,,,,,,,,,,,,,
,,,,,,55009,2023-07-29_12h33.13.533,vbt_B1_day2,2022.2.4,Win32,60.01680471,55009,,,,,,,,,,,,,,,,,,,,,,,,,,,down,0,0.1998,,0.072222222,-0.092592593,1,0,0,0.6168,0,178,178,105,1,wijlen,images/br_wijlen.png,images/cb_wijlen.png,0,,,,,,,,,,,,,,,,,,,,,,
,,,,,,55009,2023-07-29_12h33.13.533,vbt_B1_day2,2022.2.4,Win32,60.01680471,55009,,,,,,,,,,,,,,,,,,,,,,,,,,,down,0,1.0177,,0.024074074,-0.018518519,1,0,0,0.3835,0,179,179,5,1,blad,images/br_blad.png,images/cb_blad.png,0,,,,,,,,,,,,,,,,,,,,,,
,,,,,,55009,2023-07-29_12h33.13.533,vbt_B1_day2,2022.2.4,Win32,60.01680471,55009,,,,,,,,,,,,,,,,,,,,,,,,,,,down,0,1.2579,,0.07962963,-0.05462963,1,0,0,0.4,0,180,180,66,1,lever,images/br_lever.png,images/cb_lever.png,0,,,,,,,,,,,,,,,,,,,,,,
,,,,,,55009,2023-07-29_12h33.13.533,vbt_B1_day2,2022.2.4,Win32,60.01680471,55009,,,,,,,,,,,,,,,,,,,,,,,,,,,down,0,10.2889,,0.076851852,-0.006481481,1,0,0,0.4665,0,181,181,63,1,flirt,images/br_flirt.png,images/cb_flirt.png,0,,,,,,,,,,,,,,,,,,,,,,
,,,,,,55009,2023-07-29_12h33.13.533,vbt_B1_day2,2022.2.4,Win32,60.01680471,55009,,,,,,,,,,,,,,,,,,,,,,,,,,,down,0,5.453,,0.172222222,0.013888889,1,0,0,0.3498,0,182,182,175,1,heengaan,images/br_heengaan.png,images/cb_heengaan.png,0,,,,,,,,,,,,,,,,,,,,,,
,,,,,,55009,2023-07-29_12h33.13.533,vbt_B1_day2,2022.2.4,Win32,60.01680471,55009,,,,,,,,,,,,,,,,,,,,,,,,,,,down,0,0.7832,,0.105555556,-0.10462963,1,0,0,0.3167,0,183,183,1,1,zaal,images/br_zaal.png,images/cb_zaal.png,0,,,,,,,,,,,,,,,,,,,,,,
,,,,,,55009,2023-07-29_12h33.13.533,vbt_B1_day2,2022.2.4,Win32,60.01680471,55009,,,,,,,,,,,,,,,,,,,,,,,,,,,down,0,8.6231,,0.033333333,0.010185185,1,0,0,0.2666,0,184,184,194,1,driemaal,images/br_driemaal.png,images/cb_driemaal.png,0,,,,,,,,,,,,,,,,,,,,,,
,,,,,,55009,2023-07-29_12h33.13.533,vbt_B1_day2,2022.2.4,Win32,60.01680471,55009,,,,,,,,,,,,,,,,,,,,,,,,,,,down,0,3.2838,,0.07962963,-0.028703704,1,0,0,1.4669,0,185,185,149,1,redding,images/br_redding.png,images/cb_redding.png,0,,,,,,,,,,,,,,,,,,,,,,
,,,,,,55009,2023-07-29_12h33.13.533,vbt_B1_day2,2022.2.4,Win32,60.01680471,55009,,,,,,,,,,,,,,,,,,,,,,,,,,,down,0,1.1063,,0.07962963,-0.028703704,1,0,0,0.7996,0,186,186,183,1,getuigen,images/br_getuigen.png,images/cb_getuigen.png,0,,,,,,,,,,,,,,,,,,,,,,
,,,,,,55009,2023-07-29_12h33.13.533,vbt_B1_day2,2022.2.4,Win32,60.01680471,55009,,,,,,,,,,,,,,,,,,,,,,,,,,,down,0,0.1337,,0.067592593,-0.128703704,1,0,0,0.3167,0,187,187,184,1,aandelen,images/br_aandelen.png,images/cb_aandelen.png,0,,,,,,,,,,,,,,,,,,,,,,
,,,,,,55009,2023-07-29_12h33.13.533,vbt_B1_day2,2022.2.4,Win32,60.01680471,55009,,,,,,,,,,,,,,,,,,,,,,,,,,,down,0,0.401,,0.069444444,-0.125,1,0,0,0.35,0,188,188,120,1,klimmen,images/br_klimmen.png,images/cb_klimmen.png,0,,,,,,,,,,,,,,,,,,,,,,
,,,,,,55009,2023-07-29_12h33.13.533,vbt_B1_day2,2022.2.4,Win32,60.01680471,55009,,,,,,,,,,,,,,,,,,,,,,,,,,,down,0,0.1006,,0.07037037,-0.125,1,0,0,0.5668,0,189,189,174,1,stemming,images/br_stemming.png,images/cb_stemming.png,0,,,,,,,,,,,,,,,,,,,,,,
,,,,,,55009,2023-07-29_12h33.13.533,vbt_B1_day2,2022.2.4,Win32,60.01680471,55009,,,,,,,,,,,,,,,,,,,,,,,,,,,down,0,2.0223,,0.07037037,-0.125,1,0,0,0.3168,0,190,190,18,1,blik,images/br_blik.png,images/cb_blik.png,1,blik,,,,,,,,,,,,,,,,,,,,,
,,,,,,55009,2023-07-29_12h33.13.533,vbt_B1_day2,2022.2.4,Win32,60.01680471,55009,,,,,,,,,,,,,,,,,,,,,,,,,,,down,0,0.4005,,0.111111111,-0.181481481,1,0,0,0.7002,0,191,191,94,1,oceaan,images/br_oceaan.png,images/cb_oceaan.png,0,,,,,,,,,,,,,,,,,,,,,,
,,,,,,55009,2023-07-29_12h33.13.533,vbt_B1_day2,2022.2.4,Win32,60.01680471,55009,,,,,,,,,,,,,,,,,,,,,,,,,,,down,0,0.1506,,0.111111111,-0.181481481,1,0,0,0.3502,0,192,192,189,1,aanraden,images/br_aanraden.png,images/cb_aanraden.png,0,,,,,,,,,,,,,,,,,,,,,,
,,,,,,55009,2023-07-29_12h33.13.533,vbt_B1_day2,2022.2.4,Win32,60.01680471,55009,,,,,,,,,,,,,,,,,,,,,,,,,,,down,0,0.0258,,0.113888889,-0.183333333,1,0,0,0.35,0,193,193,23,1,zout,images/br_zout.png,images/cb_zout.png,0,,,,,,,,,,,,,,,,,,,,,,
,,,,,,55009,2023-07-29_12h33.13.533,vbt_B1_day2,2022.2.4,Win32,60.01680471,55009,,,,,,,,,,,,,,,,,,,,,,,,,,,down,0,0.0503,,0.113888889,-0.184259259,1,0,0,0.3167,0,194,194,180,1,openbaar,images/br_openbaar.png,images/cb_openbaar.png,0,,,,,,,,,,,,,,,,,,,,,,
,,,,,,55009,2023-07-29_12h33.13.533,vbt_B1_day2,2022.2.4,Win32,60.01680471,55009,,,,,,,,,,,,,,,,,,,,,,,,,,,down,0,9.6383,,0.171296296,-0.032407407,1,0,0,0.2832,0,195,195,171,1,aarzelen,images/br_aarzelen.png,images/cb_aarzelen.png,0,,,,,,,,,,,,,,,,,,,,,,
,,,,,,55009,2023-07-29_12h33.13.533,vbt_B1_day2,2022.2.4,Win32,60.01680471,55009,,,,,,,,,,,,,,,,,,,,,,,,,,,down,0,1.3444,,0.071296296,-0.016666667,1,0,0,0.5998,0,196,196,195,1,middelen,images/br_middelen.png,images/cb_middelen.png,0,,,,,,,,,,,,,,,,,,,,,,
,,,,,,55009,2023-07-29_12h33.13.533,vbt_B1_day2,2022.2.4,Win32,60.01680471,55009,,,,,,,,,,,,,,,,,,,,,,,,,,,down,0,1.7309,,0.015740741,0.008333333,1,0,0,0.3332,0,197,197,64,1,wegen,images/br_wegen.png,images/cb_wegen.png,0,,,,,,,,,,,,,,,,,,,,,,
,,,,,,55009,2023-07-29_12h33.13.533,vbt_B1_day2,2022.2.4,Win32,60.01680471,55009,,,,,,,,,,,,,,,,,,,,,,,,,,,down,0,9.7371,,0.072222222,-0.00462963,1,0,0,1.9332,0,198,198,30,1,uien,images/br_uien.png,images/cb_uien.png,0,,,,,,,,,,,,,,,,,,,,,,
,,,,,,55009,2023-07-29_12h33.13.533,vbt_B1_day2,2022.2.4,Win32,60.01680471,55009,,,,,,,,,,,,,,,,,,,,,,,,,,,down,0,10.9681,,0.152777778,-0.012037037,1,0,0,0.1999,0,199,199,152,1,afnemen,images/br_afnemen.png,images/cb_afnemen.png,0,,,,,,,,,,,,,,,,,,,,,,
,,,,,,55009,2023-07-29_12h33.13.533,vbt_B1_day2,2022.2.4,Win32,60.01680471,55009,,,,,,,,,,,,,,,,,,,,,,,,,,,,,,,,,,,,,,,,,,,,,,,0.142592593,-0.00462963,1,0,0,,,,,,,,,,,,,,,,
,,,,,,55009,2023-07-29_12h33.13.533,vbt_B1_day2,2022.2.4,Win32,60.01680471,55009,,,,,,,,,,,,,,,,,,,,,,,,,,,,,,,,,,,,,,,,,,,,,,,,,,,,-0.001851852,0.119444444,1,0,0,,,,,,,,,,,
,,,,,,55009,2023-07-29_12h33.13.533,vbt_B1_day2,2022.2.4,Win32,60.01680471,55009,,,,,,,,,,,,,,,,,,,,,,,,,,,,,,,,,,,,,,,,,,feestdag,images/br_feestdag.png,images/cb_feestdag.png,,feestdag,,,,,,,,,,,0.108333333,0.077777778,1,0,0,feestdag,0,0,0,17,1
,,,,,,55009,2023-07-29_12h33.13.533,vbt_B1_day2,2022.2.4,Win32,60.01680471,55009,,,,,,,,,,,,,,,,,,,,,,,,,,,,,,,,,,,,,,,,,,opdatten,images/br_opdatten.png,images/cb_opdatten.png,,opdagen,,,,,,,,,,,0.138888889,0.083333333,1,0,0,opdagen,0,1,1,37,1
,,,,,,55009,2023-07-29_12h33.13.533,vbt_B1_day2,2022.2.4,Win32,60.01680471,55009,,,,,,,,,,,,,,,,,,,,,,,,,,,,,,,,,,,,,,,,,,manieren,images/br_manieren.png,images/cb_manieren.png,,manieren,,,,,,,,,,,-0.163888889,0.115740741,1,0,0,manieren,0,2,2,56,1
,,,,,,55009,2023-07-29_12h33.13.533,vbt_B1_day2,2022.2.4,Win32,60.01680471,55009,,,,,,,,,,,,,,,,,,,,,,,,,,,,,,,,,,,,,,,,,,welzijn,images/br_welzijn.png,images/cb_welzijn.png,,welzijn,,,,,,,,,,,-0.123148148,0.149074074,1,0,0,welzijn,0,3,3,52,1
,,,,,,55009,2023-07-29_12h33.13.533,vbt_B1_day2,2022.2.4,Win32,60.01680471,55009,,,,,,,,,,,,,,,,,,,,,,,,,,,,,,,,,,,,,,,,,,flits,images/br_flits.png,images/cb_flits.png,,flits,,,,,,,,,,,-0.080555556,0.177777778,1,0,0,flits,0,4,4,4,1
,,,,,,55009,2023-07-29_12h33.13.533,vbt_B1_day2,2022.2.4,Win32,60.01680471,55009,,,,,,,,,,,,,,,,,,,,,,,,,,,,,,,,,,,,,,,,,,aanzien,images/br_aanzien.png,images/cb_aanzien.png,,aanzien,,,,,,,,,,,-0.041666667,0.140740741,1,0,0,aanzien,0,5,5,13,1
,,,,,,55009,2023-07-29_12h33.13.533,vbt_B1_day2,2022.2.4,Win32,60.01680471,55009,,,,,,,,,,,,,,,,,,,,,,,,,,,,,,,,,,,,,,,,,,thema,images/br_thema.png,images/cb_thema.png,,thuis,,,,,,,,,,,-0.036111111,0.137962963,1,0,0,thuis,0,6,6,47,1
,,,,,,55009,2023-07-29_12h33.13.533,vbt_B1_day2,2022.2.4,Win32,60.01680471,55009,,,,,,,,,,,,,,,,,,,,,,,,,,,,,,,,,,,,,,,,,,bloeien,images/br_bloeien.png,images/cb_bloeien.png,,bloeien,,,,,,,,,,,0,0.188888889,1,0,0,bloeien,0,7,7,12,1
,,,,,,55009,2023-07-29_12h33.13.533,vbt_B1_day2,2022.2.4,Win32,60.01680471,55009,,,,,,,,,,,,,,,,,,,,,,,,,,,,,,,,,,,,,,,,,,jong,images/br_jong.png,images/cb_jong.png,,jong,,,,,,,,,,,0.014814815,0.15,1,0,0,jong,0,8,8,43,1
,,,,,,55009,2023-07-29_12h33.13.533,vbt_B1_day2,2022.2.4,Win32,60.01680471,55009,,,,,,,,,,,,,,,,,,,,,,,,,,,,,,,,,,,,,,,,,,plannen,images/br_plannen.png,images/cb_plannen.png,,plannen,,,,,,,,,,,0.074074074,0.209259259,1,0,0,plannen,0,9,9,55,1
,,,,,,55009,2023-07-29_12h33.13.533,vbt_B1_day2,2022.2.4,Win32,60.01680471,55009,,,,,,,,,,,,,,,,,,,,,,,,,,,,,,,,,,,,,,,,,,joes,images/br_joes.png,images/cb_joes.png,,doen,,,,,,,,,,,0.076851852,0.172222222,1,0,0,doen,0,10,10,20,1
,,,,,,55009,2023-07-29_12h33.13.533,vbt_B1_day2,2022.2.4,Win32,60.01680471,55009,,,,,,,,,,,,,,,,,,,,,,,,,,,,,,,,,,,,,,,,,,bereuwen,images/br_bereuwen.png,images/cb_bereuwen.png,,beweren,,,,,,,,,,,0.07962963,0.157407407,1,0,0,beweren,0,11,11,39,1
,,,,,,55009,2023-07-29_12h33.13.533,vbt_B1_day2,2022.2.4,Win32,60.01680471,55009,,,,,,,,,,,,,,,,,,,,,,,,,,,,,,,,,,,,,,,,,,zomers,images/br_zomers.png,images/cb_zomers.png,,,,,,,,,,,,,0.07962963,0.152777778,1,0,0,,0,12,12,48,1
,,,,,,55009,2023-07-29_12h33.13.533,vbt_B1_day2,2022.2.4,Win32,60.01680471,55009,,,,,,,,,,,,,,,,,,,,,,,,,,,,,,,,,,,,,,,,,,remel,images/br_remel.png,images/cb_remel.png,,remel,,,,,,,,,,,0.07962963,0.152777778,1,0,0,remel,0,13,13,25,1
,,,,,,55009,2023-07-29_12h33.13.533,vbt_B1_day2,2022.2.4,Win32,60.01680471,55009,,,,,,,,,,,,,,,,,,,,,,,,,,,,,,,,,,,,,,,,,,badon,images/br_badon.png,images/cb_badon.png,,baden,,,,,,,,,,,0.040740741,0.078703704,1,0,0,baden,0,14,14,26,1
,,,,,,55009,2023-07-29_12h33.13.533,vbt_B1_day2,2022.2.4,Win32,60.01680471,55009,,,,,,,,,,,,,,,,,,,,,,,,,,,,,,,,,,,,,,,,,,systeem,images/br_systeem.png,images/cb_systeem.png,,systeem,,,,,,,,,,,0.040740741,0.078703704,1,0,0,systeem,0,15,15,54,1
,,,,,,55009,2023-07-29_12h33.13.533,vbt_B1_day2,2022.2.4,Win32,60.01680471,55009,,,,,,,,,,,,,,,,,,,,,,,,,,,,,,,,,,,,,,,,,,negel,images/br_negel.png,images/cb_negel.png,,negen,,,,,,,,,,,0.040740741,0.078703704,1,0,0,negen,0,16,16,24,1
,,,,,,55009,2023-07-29_12h33.13.533,vbt_B1_day2,2022.2.4,Win32,60.01680471,55009,,,,,,,,,,,,,,,,,,,,,,,,,,,,,,,,,,,,,,,,,,anarchie,images/br_anarchie.png,images/cb_anarchie.png,,anarchie,,,,,,,,,,,0.040740741,0.078703704,1,0,0,anarchie,0,17,17,16,1
,,,,,,55009,2023-07-29_12h33.13.533,vbt_B1_day2,2022.2.4,Win32,60.01680471,55009,,,,,,,,,,,,,,,,,,,,,,,,,,,,,,,,,,,,,,,,,,tand,images/br_tand.png,images/cb_tand.png,,tand,,,,,,,,,,,0.068518519,0.112962963,1,0,0,tand,0,18,18,42,1
,,,,,,55009,2023-07-29_12h33.13.533,vbt_B1_day2,2022.2.4,Win32,60.01680471,55009,,,,,,,,,,,,,,,,,,,,,,,,,,,,,,,,,,,,,,,,,,lokken,images/br_lokken.png,images/cb_lokken.png,,lokken,,,,,,,,,,,0.115740741,0.00462963,1,0,0,lokken,0,19,19,8,1
,,,,,,55009,2023-07-29_12h33.13.533,vbt_B1_day2,2022.2.4,Win32,60.01680471,55009,,,,,,,,,,,,,,,,,,,,,,,,,,,,,,,,,,,,,,,,,,heengeen,images/br_heengeen.png,images/cb_heengeen.png,,heengaan,,,,,,,,,,,0.237962963,0,1,0,0,heengaan,0,20,20,38,1
,,,,,,55009,2023-07-29_12h33.13.533,vbt_B1_day2,2022.2.4,Win32,60.01680471,55009,,,,,,,,,,,,,,,,,,,,,,,,,,,,,,,,,,,,,,,,,,breuk,images/br_breuk.png,images/cb_breuk.png,,breuk,,,,,,,,,,,0.14537037,-0.017592593,1,0,0,breuk,0,21,21,45,1
,,,,,,55009,2023-07-29_12h33.13.533,vbt_B1_day2,2022.2.4,Win32,60.01680471,55009,,,,,,,,,,,,,,,,,,,,,,,,,,,,,,,,,,,,,,,,,,geld,images/br_geld.png,images/cb_geld.png,,geld,,,,,,,,,,,-0.028703704,-0.042592593,1,0,0,geld,0,22,22,3,1
,,,,,,55009,2023-07-29_12h33.13.533,vbt_B1_day2,2022.2.4,Win32,60.01680471,55009,,,,,,,,,,,,,,,,,,,,,,,,,,,,,,,,,,,,,,,,,,piste,images/br_piste.png,images/cb_piste.png,,piste,,,,,,,,,,,0.176851852,0.000925926,1,0,0,piste,0,23,23,5,1
,,,,,,55009,2023-07-29_12h33.13.533,vbt_B1_day2,2022.2.4,Win32,60.01680471,55009,,,,,,,,,,,,,,,,,,,,,,,,,,,,,,,,,,,,,,,,,,trots,images/br_trots.png,images/cb_trots.png,,trots,,,,,,,,,,,0.096296296,0,1,0,0,trots,0,24,24,44,1
,,,,,,55009,2023-07-29_12h33.13.533,vbt_B1_day2,2022.2.4,Win32,60.01680471,55009,,,,,,,,,,,,,,,,,,,,,,,,,,,,,,,,,,,,,,,,,,strikken,images/br_strikken.png,images/cb_strikken.png,,strikken,,,,,,,,,,,0.134259259,0.008333333,1,0,0,strikken,0,25,25,18,1
,,,,,,55009,2023-07-29_12h33.13.533,vbt_B1_day2,2022.2.4,Win32,60.01680471,55009,,,,,,,,,,,,,,,,,,,,,,,,,,,,,,,,,,,,,,,,,,lijnen,images/br_lijnen.png,images/cb_lijnen.png,,lijnen,,,,,,,,,,,0.162037037,0.002777778,1,0,0,lijnen,0,26,26,51,1
,,,,,,55009,2023-07-29_12h33.13.533,vbt_B1_day2,2022.2.4,Win32,60.01680471,55009,,,,,,,,,,,,,,,,,,,,,,,,,,,,,,,,,,,,,,,,,,kijlen,images/br_kijlen.png,images/cb_kijlen.png,,kijlen,,,,,,,,,,,0.148148148,0.008333333,1,0,0,kijlen,0,27,27,31,1
,,,,,,55009,2023-07-29_12h33.13.533,vbt_B1_day2,2022.2.4,Win32,60.01680471,55009,,,,,,,,,,,,,,,,,,,,,,,,,,,,,,,,,,,,,,,,,,zegel,images/br_zegel.png,images/cb_zegel.png,,zegel,,,,,,,,,,,0.027777778,0.032407407,1,0,0,zegel,0,28,28,46,1
,,,,,,55009,2023-07-29_12h33.13.533,vbt_B1_day2,2022.2.4,Win32,60.01680471,55009,,,,,,,,,,,,,,,,,,,,,,,,,,,,,,,,,,,,,,,,,,koorts,images/br_koorts.png,images/cb_koorts.png,,koorts,,,,,,,,,,,0.10462963,-0.012962963,1,0,0,koorts,0,29,29,50,1
,,,,,,55009,2023-07-29_12h33.13.533,vbt_B1_day2,2022.2.4,Win32,60.01680471,55009,,,,,,,,,,,,,,,,,,,,,,,,,,,,,,,,,,,,,,,,,,tweeling,images/br_tweeling.png,images/cb_tweeling.png,,tweeling,,,,,,,,,,,0.159259259,0.017592593,1,0,0,tweeling,0,30,30,58,1
,,,,,,55009,2023-07-29_12h33.13.533,vbt_B1_day2,2022.2.4,Win32,60.01680471,55009,,,,,,,,,,,,,,,,,,,,,,,,,,,,,,,,,,,,,,,,,,jagen,images/br_jagen.png,images/cb_jagen.png,,jagen,,,,,,,,,,,0.135185185,0.000925926,1,0,0,jagen,0,31,31,6,1
,,,,,,55009,2023-07-29_12h33.13.533,vbt_B1_day2,2022.2.4,Win32,60.01680471,55009,,,,,,,,,,,,,,,,,,,,,,,,,,,,,,,,,,,,,,,,,,zwager,images/br_zwager.png,images/cb_zwager.png,,zwager,,,,,,,,,,,0.193518519,-0.003703704,1,0,0,zwager,0,32,32,49,1
,,,,,,55009,2023-07-29_12h33.13.533,vbt_B1_day2,2022.2.4,Win32,60.01680471,55009,,,,,,,,,,,,,,,,,,,,,,,,,,,,,,,,,,,,,,,,,,sjijfel,images/br_sjijfel.png,images/cb_sjijfel.png,,sjeik,,,,,,,,,,,0.000925926,0.002777778,1,0,0,sjeik,0,33,33,33,1
,,,,,,55009,2023-07-29_12h33.13.533,vbt_B1_day2,2022.2.4,Win32,60.01680471,55009,,,,,,,,,,,,,,,,,,,,,,,,,,,,,,,,,,,,,,,,,,prekken,images/br_prekken.png,images/cb_prekken.png,,prikken,,,,,,,,,,,0.22962963,0.002777778,1,0,0,prikken,0,34,34,34,1
,,,,,,55009,2023-07-29_12h33.13.533,vbt_B1_day2,2022.2.4,Win32,60.01680471,55009,,,,,,,,,,,,,,,,,,,,,,,,,,,,,,,,,,,,,,,,,,kenzis,images/br_kenzis.png,images/cb_kenzis.png,,,,,,,,,,,,,0.19537037,0.019444444,1,0,0,,0,35,35,30,1
,,,,,,55009,2023-07-29_12h33.13.533,vbt_B1_day2,2022.2.4,Win32,60.01680471,55009,,,,,,,,,,,,,,,,,,,,,,,,,,,,,,,,,,,,,,,,,,sora,images/br_sora.png,images/cb_sora.png,,sora,,,,,,,,,,,0.133333333,-0.024074074,1,0,0,sora,0,36,36,22,1
,,,,,,55009,2023-07-29_12h33.13.533,vbt_B1_day2,2022.2.4,Win32,60.01680471,55009,,,,,,,,,,,,,,,,,,,,,,,,,,,,,,,,,,,,,,,,,,krimmen,images/br_krimmen.png,images/cb_krimmen.png,,krimmen,,,,,,,,,,,-0.112037037,0.008333333,1,0,0,krimmen,0,37,37,35,1
,,,,,,55009,2023-07-29_12h33.13.533,vbt_B1_day2,2022.2.4,Win32,60.01680471,55009,,,,,,,,,,,,,,,,,,,,,,,,,,,,,,,,,,,,,,,,,,diep,images/br_diep.png,images/cb_diep.png,,diep,,,,,,,,,,,-0.111111111,0.061111111,1,0,0,diep,0,38,38,2,1
,,,,,,55009,2023-07-29_12h33.13.533,vbt_B1_day2,2022.2.4,Win32,60.01680471,55009,,,,,,,,,,,,,,,,,,,,,,,,,,,,,,,,,,,,,,,,,,blad,images/br_blad.png,images/cb_blad.png,,blad,,,,,,,,,,,0.094444444,0.131481481,1,0,0,blad,0,39,39,1,1
,,,,,,55009,2023-07-29_12h33.13.533,vbt_B1_day2,2022.2.4,Win32,60.01680471,55009,,,,,,,,,,,,,,,,,,,,,,,,,,,,,,,,,,,,,,,,,,eenhoorn,images/br_eenhoorn.png,images/cb_eenhoorn.png,,eenhaagd,,,,,,,,,,,0.156481481,0,1,0,0,eenhaagd,0,40,40,19,1
,,,,,,55009,2023-07-29_12h33.13.533,vbt_B1_day2,2022.2.4,Win32,60.01680471,55009,,,,,,,,,,,,,,,,,,,,,,,,,,,,,,,,,,,,,,,,,,toeval,images/br_toeval.png,images/cb_toeval.png,,toeval,,,,,,,,,,,0.132407407,0.024074074,1,0,0,toeval,0,41,41,11,1
,,,,,,55009,2023-07-29_12h33.13.533,vbt_B1_day2,2022.2.4,Win32,60.01680471,55009,,,,,,,,,,,,,,,,,,,,,,,,,,,,,,,,,,,,,,,,,,stes,images/br_stes.png,images/cb_stes.png,,stes,,,,,,,,,,,0.166666667,0.034259259,1,0,0,stes,0,42,42,21,1
,,,,,,55009,2023-07-29_12h33.13.533,vbt_B1_day2,2022.2.4,Win32,60.01680471,55009,,,,,,,,,,,,,,,,,,,,,,,,,,,,,,,,,,,,,,,,,,clan,images/br_clan.png,images/cb_clan.png,,clan,,,,,,,,,,,0.118518519,-0.014814815,1,0,0,clan,0,43,43,40,1
,,,,,,55009,2023-07-29_12h33.13.533,vbt_B1_day2,2022.2.4,Win32,60.01680471,55009,,,,,,,,,,,,,,,,,,,,,,,,,,,,,,,,,,,,,,,,,,inzicht,images/br_inzicht.png,images/cb_inzicht.png,,inzicht,,,,,,,,,,,0.090740741,-0.000925926,1,0,0,inzicht,0,44,44,53,1
,,,,,,55009,2023-07-29_12h33.13.533,vbt_B1_day2,2022.2.4,Win32,60.01680471,55009,,,,,,,,,,,,,,,,,,,,,,,,,,,,,,,,,,,,,,,,,,dode,images/br_dode.png,images/cb_dode.png,,dode,,,,,,,,,,,0.113888889,0.015740741,1,0,0,dode,0,45,45,41,1
,,,,,,55009,2023-07-29_12h33.13.533,vbt_B1_day2,2022.2.4,Win32,60.01680471,55009,,,,,,,,,,,,,,,,,,,,,,,,,,,,,,,,,,,,,,,,,,goon,images/br_goon.png,images/cb_goon.png,,goon,,,,,,,,,,,0.10462963,0.013888889,1,0,0,goon,0,46,46,23,1
,,,,,,55009,2023-07-29_12h33.13.533,vbt_B1_day2,2022.2.4,Win32,60.01680471,55009,,,,,,,,,,,,,,,,,,,,,,,,,,,,,,,,,,,,,,,,,,lurgen,images/br_lurgen.png,images/cb_lurgen.png,,lurgen,,,,,,,,,,,-0.065740741,0.012037037,1,0,0,lurgen,0,47,47,29,1
,,,,,,55009,2023-07-29_12h33.13.533,vbt_B1_day2,2022.2.4,Win32,60.01680471,55009,,,,,,,,,,,,,,,,,,,,,,,,,,,,,,,,,,,,,,,,,,heilig,images/br_heilig.png,images/cb_heilig.png,,heilig,,,,,,,,,,,-0.075,0.118518519,1,0,0,heilig,0,48,48,9,1
,,,,,,55009,2023-07-29_12h33.13.533,vbt_B1_day2,2022.2.4,Win32,60.01680471,55009,,,,,,,,,,,,,,,,,,,,,,,,,,,,,,,,,,,,,,,,,,sifferd,images/br_sifferd.png,images/cb_sifferd.png,,siffel,,,,,,,,,,,0.158333333,0.055555556,1,0,0,siffel,0,49,49,32,1
,,,,,,55009,2023-07-29_12h33.13.533,vbt_B1_day2,2022.2.4,Win32,60.01680471,55009,,,,,,,,,,,,,,,,,,,,,,,,,,,,,,,,,,,,,,,,,,wijve,images/br_wijve.png,images/cb_wijve.png,,wijve,,,,,,,,,,,0.023148148,0.184259259,1,0,0,wijve,0,50,50,27,1
,,,,,,55009,2023-07-29_12h33.13.533,vbt_B1_day2,2022.2.4,Win32,60.01680471,55009,,,,,,,,,,,,,,,,,,,,,,,,,,,,,,,,,,,,,,,,,,kasteel,images/br_kasteel.png,images/cb_kasteel.png,,kasteel,,,,,,,,,,,0.200925926,-0.001851852,1,0,0,kasteel,0,51,51,14,1
,,,,,,55009,2023-07-29_12h33.13.533,vbt_B1_day2,2022.2.4,Win32,60.01680471,55009,,,,,,,,,,,,,,,,,,,,,,,,,,,,,,,,,,,,,,,,,,agressie,images/br_agressie.png,images/cb_agressie.png,,kassei,,,,,,,,,,,0.033333333,0.175925926,1,0,0,kassei,0,52,52,59,1
,,,,,,55009,2023-07-29_12h33.13.533,vbt_B1_day2,2022.2.4,Win32,60.01680471,55009,,,,,,,,,,,,,,,,,,,,,,,,,,,,,,,,,,,,,,,,,,moes,images/br_moes.png,images/cb_moes.png,,moes,,,,,,,,,,,-0.090740741,0.126851852,1,0,0,moes,0,53,53,0,1
,,,,,,55009,2023-07-29_12h33.13.533,vbt_B1_day2,2022.2.4,Win32,60.01680471,55009,,,,,,,,,,,,,,,,,,,,,,,,,,,,,,,,,,,,,,,,,,kabel,images/br_kabel.png,images/cb_kabel.png,,kabel,,,,,,,,,,,-0.086111111,0.140740741,1,0,0,kabel,0,54,54,7,1
,,,,,,55009,2023-07-29_12h33.13.533,vbt_B1_day2,2022.2.4,Win32,60.01680471,55009,,,,,,,,,,,,,,,,,,,,,,,,,,,,,,,,,,,,,,,,,,aanvraag,images/br_aanvraag.png,images/cb_aanvraag.png,,aanvrat,,,,,,,,,,,0.2,-0.068518519,1,0,0,aanvrat,0,55,55,57,1
,,,,,,55009,2023-07-29_12h33.13.533,vbt_B1_day2,2022.2.4,Win32,60.01680471,55009,,,,,,,,,,,,,,,,,,,,,,,,,,,,,,,,,,,,,,,,,,ophuimen,images/br_ophuimen.png,images/cb_ophuimen.png,,ophuize,,,,,,,,,,,0.178703704,-0.09537037,1,0,0,ophuize,0,56,56,36,1
,,,,,,55009,2023-07-29_12h33.13.533,vbt_B1_day2,2022.2.4,Win32,60.01680471,55009,,,,,,,,,,,,,,,,,,,,,,,,,,,,,,,,,,,,,,,,,,ningen,images/br_ningen.png,images/cb_ningen.png,,ningen,,,,,,,,,,,0.106481481,0.011111111,1,0,0,ningen,0,57,57,28,1
,,,,,,55009,2023-07-29_12h33.13.533,vbt_B1_day2,2022.2.4,Win32,60.01680471,55009,,,,,,,,,,,,,,,,,,,,,,,,,,,,,,,,,,,,,,,,,,woning,images/br_woning.png,images/cb_woning.png,,woning,,,,,,,,,,,-0.07962963,0.073148148,1,0,0,woning,0,58,58,10,1
,,,,,,55009,2023-07-29_12h33.13.533,vbt_B1_day2,2022.2.4,Win32,60.01680471,55009,,,,,,,,,,,,,,,,,,,,,,,,,,,,,,,,,,,,,,,,,,doodmoe,images/br_doodmoe.png,images/cb_doodmoe.png,,doodmoe,,,,,,,,,,,0.219444444,-0.000925926,1,0,0,doodmoe,0,59,59,15,1
,,,,,,55009,2023-07-29_12h33.13.533,vbt_B1_day2,2022.2.4,Win32,60.01680471,55009,,,,,,,,,,,,,,,,,,,,,,,,,,,,,,,,,,,,,,,,,,,,,,,,,,,,,,,,,,,,,,,,,,,
