welcome_mouse.x,welcome_mouse.y,welcome_mouse.leftButton,welcome_mouse.midButton,welcome_mouse.rightButton,welcome_mouse.time,"ID",date,expName,psychopyVersion,OS,frameRate,refresh_mouse.x,refresh_mouse.y,refresh_mouse.leftButton,refresh_mouse.midButton,refresh_mouse.rightButton,refresh_mouse.time,braille_mouse.x,braille_mouse.y,braille_mouse.leftButton,braille_mouse.midButton,braille_mouse.rightButton,braille_mouse.time,trials.thisRepN,trials.thisTrialN,trials.thisN,trials.thisIndex,trials.ran,nlLet,brLet,cbLet,trainInstr_mouse.x,trainInstr_mouse.y,trainInstr_mouse.leftButton,trainInstr_mouse.midButton,trainInstr_mouse.rightButton,trainInstr_mouse.time,translation_key.keys,translation_key.corr,translation_key.rt,word_rsp.text,word_mouse.x,word_mouse.y,word_mouse.leftButton,word_mouse.midButton,word_mouse.rightButton,word_mouse.time,train_loop.thisRepN,train_loop.thisTrialN,train_loop.thisN,train_loop.thisIndex,train_loop.ran,nlWrd,brWrd,cbWrd,test,testResp,mouse.x,mouse.y,mouse.leftButton,mouse.midButton,mouse.rightButton,testInstr_mouse.x,testInstr_mouse.y,testInstr_mouse.leftButton,testInstr_mouse.midButton,testInstr_mouse.rightButton,test_mouse.x,test_mouse.y,test_mouse.leftButton,test_mouse.midButton,test_mouse.rightButton,test_response.text,test_loop.thisRepN,test_loop.thisTrialN,test_loop.thisN,test_loop.thisIndex,test_loop.ran
-0.154444444,-0.21,1,0,0,14.78,00089,2023-10-25_16h25.24.679,vbt_B1_day2,2022.2.4,MacIntel,58.82352941,,,,,,,,,,,,,,,,,,,,,,,,,,,,,,,,,,,,,,,,,,,,,,,,,,,,,,,,,,,,,,,,,,,
,,,,,,00089,2023-10-25_16h25.24.679,vbt_B1_day2,2022.2.4,MacIntel,58.82352941,-0.1,-0.194444444,1,0,0,24.908,,,,,,,,,,,,,,,,,,,,,,,,,,,,,,,,,,,,,,,,,,,,,,,,,,,,,,,,,,,,,
,,,,,,00089,2023-10-25_16h25.24.679,vbt_B1_day2,2022.2.4,MacIntel,58.82352941,,,,,,,-0.096666667,-0.215555556,1,0,0,4.75,0,0,0,7,1,h,images/br_h.png,images/cb_h.png,,,,,,,,,,,,,,,,,,,,,,,,,,,,,,,,,,,,,,,,,,,,,,,
,,,,,,00089,2023-10-25_16h25.24.679,vbt_B1_day2,2022.2.4,MacIntel,58.82352941,,,,,,,0.105555556,-0.213333333,1,0,0,21.083,0,1,1,5,1,f,images/br_f.png,images/cb_f.png,,,,,,,,,,,,,,,,,,,,,,,,,,,,,,,,,,,,,,,,,,,,,,,
,,,,,,00089,2023-10-25_16h25.24.679,vbt_B1_day2,2022.2.4,MacIntel,58.82352941,,,,,,,0.104444444,-0.215555556,1,0,0,25.367,0,2,2,17,1,r,images/br_r.png,images/cb_r.png,,,,,,,,,,,,,,,,,,,,,,,,,,,,,,,,,,,,,,,,,,,,,,,
,,,,,,00089,2023-10-25_16h25.24.679,vbt_B1_day2,2022.2.4,MacIntel,58.82352941,,,,,,,0.108888889,-0.216666667,1,0,0,6.933,0,3,3,20,1,u,images/br_u.png,images/cb_u.png,,,,,,,,,,,,,,,,,,,,,,,,,,,,,,,,,,,,,,,,,,,,,,,
,,,,,,00089,2023-10-25_16h25.24.679,vbt_B1_day2,2022.2.4,MacIntel,58.82352941,,,,,,,0.186666667,-0.223333333,1,0,0,0.083,0,4,4,23,1,x,images/br_x.png,images/cb_x.png,,,,,,,,,,,,,,,,,,,,,,,,,,,,,,,,,,,,,,,,,,,,,,,
,,,,,,00089,2023-10-25_16h25.24.679,vbt_B1_day2,2022.2.4,MacIntel,58.82352941,,,,,,,0.186666667,-0.223333333,1,0,0,0.2,0,5,5,11,1,l,images/br_l.png,images/cb_l.png,,,,,,,,,,,,,,,,,,,,,,,,,,,,,,,,,,,,,,,,,,,,,,,
,,,,,,00089,2023-10-25_16h25.24.679,vbt_B1_day2,2022.2.4,MacIntel,58.82352941,,,,,,,0.186666667,-0.223333333,1,0,0,2.199,0,6,6,2,1,c,images/br_c.png,images/cb_c.png,,,,,,,,,,,,,,,,,,,,,,,,,,,,,,,,,,,,,,,,,,,,,,,
,,,,,,00089,2023-10-25_16h25.24.679,vbt_B1_day2,2022.2.4,MacIntel,58.82352941,,,,,,,0.186666667,-0.223333333,1,0,0,6.267,0,7,7,0,1,a,images/br_a.png,images/cb_a.png,,,,,,,,,,,,,,,,,,,,,,,,,,,,,,,,,,,,,,,,,,,,,,,
,,,,,,00089,2023-10-25_16h25.24.679,vbt_B1_day2,2022.2.4,MacIntel,58.82352941,,,,,,,0.186666667,-0.223333333,1,0,0,19.018,0,8,8,3,1,d,images/br_d.png,images/cb_d.png,,,,,,,,,,,,,,,,,,,,,,,,,,,,,,,,,,,,,,,,,,,,,,,
,,,,,,00089,2023-10-25_16h25.24.679,vbt_B1_day2,2022.2.4,MacIntel,58.82352941,,,,,,,0.186666667,-0.223333333,1,0,0,25.601,0,9,9,9,1,j,images/br_j.png,images/cb_j.png,,,,,,,,,,,,,,,,,,,,,,,,,,,,,,,,,,,,,,,,,,,,,,,
,,,,,,00089,2023-10-25_16h25.24.679,vbt_B1_day2,2022.2.4,MacIntel,58.82352941,,,,,,,0.186666667,-0.223333333,1,0,0,7.701,0,10,10,16,1,q,images/br_q.png,images/cb_q.png,,,,,,,,,,,,,,,,,,,,,,,,,,,,,,,,,,,,,,,,,,,,,,,
,,,,,,00089,2023-10-25_16h25.24.679,vbt_B1_day2,2022.2.4,MacIntel,58.82352941,,,,,,,0.186666667,-0.223333333,1,0,0,24.918,0,11,11,19,1,t,images/br_t.png,images/cb_t.png,,,,,,,,,,,,,,,,,,,,,,,,,,,,,,,,,,,,,,,,,,,,,,,
,,,,,,00089,2023-10-25_16h25.24.679,vbt_B1_day2,2022.2.4,MacIntel,58.82352941,,,,,,,0.186666667,-0.223333333,1,0,0,15.767,0,12,12,18,1,s,images/br_s.png,images/cb_s.png,,,,,,,,,,,,,,,,,,,,,,,,,,,,,,,,,,,,,,,,,,,,,,,
,,,,,,00089,2023-10-25_16h25.24.679,vbt_B1_day2,2022.2.4,MacIntel,58.82352941,,,,,,,0.186666667,-0.223333333,1,0,0,0.4,0,13,13,12,1,m,images/br_m.png,images/cb_m.png,,,,,,,,,,,,,,,,,,,,,,,,,,,,,,,,,,,,,,,,,,,,,,,
,,,,,,00089,2023-10-25_16h25.24.679,vbt_B1_day2,2022.2.4,MacIntel,58.82352941,,,,,,,0.184444444,-0.224444444,1,0,0,0.834,0,14,14,14,1,o,images/br_o.png,images/cb_o.png,,,,,,,,,,,,,,,,,,,,,,,,,,,,,,,,,,,,,,,,,,,,,,,
,,,,,,00089,2023-10-25_16h25.24.679,vbt_B1_day2,2022.2.4,MacIntel,58.82352941,,,,,,,0.184444444,-0.224444444,1,0,0,0.066,0,15,15,21,1,v,images/br_v.png,images/cb_v.png,,,,,,,,,,,,,,,,,,,,,,,,,,,,,,,,,,,,,,,,,,,,,,,
,,,,,,00089,2023-10-25_16h25.24.679,vbt_B1_day2,2022.2.4,MacIntel,58.82352941,,,,,,,0.184444444,-0.224444444,1,0,0,8.784,0,16,16,8,1,i,images/br_i.png,images/cb_i.png,,,,,,,,,,,,,,,,,,,,,,,,,,,,,,,,,,,,,,,,,,,,,,,
,,,,,,00089,2023-10-25_16h25.24.679,vbt_B1_day2,2022.2.4,MacIntel,58.82352941,,,,,,,0.184444444,-0.224444444,1,0,0,6.767,0,17,17,4,1,e,images/br_e.png,images/cb_e.png,,,,,,,,,,,,,,,,,,,,,,,,,,,,,,,,,,,,,,,,,,,,,,,
,,,,,,00089,2023-10-25_16h25.24.679,vbt_B1_day2,2022.2.4,MacIntel,58.82352941,,,,,,,0.184444444,-0.224444444,1,0,0,3.566,0,18,18,25,1,z,images/br_z.png,images/cb_z.png,,,,,,,,,,,,,,,,,,,,,,,,,,,,,,,,,,,,,,,,,,,,,,,
,,,,,,00089,2023-10-25_16h25.24.679,vbt_B1_day2,2022.2.4,MacIntel,58.82352941,,,,,,,0.182222222,-0.226666667,1,0,0,0.734,0,19,19,24,1,y,images/br_y.png,images/cb_y.png,,,,,,,,,,,,,,,,,,,,,,,,,,,,,,,,,,,,,,,,,,,,,,,
,,,,,,00089,2023-10-25_16h25.24.679,vbt_B1_day2,2022.2.4,MacIntel,58.82352941,,,,,,,0.182222222,-0.226666667,1,0,0,0.133,0,20,20,10,1,k,images/br_k.png,images/cb_k.png,,,,,,,,,,,,,,,,,,,,,,,,,,,,,,,,,,,,,,,,,,,,,,,
,,,,,,00089,2023-10-25_16h25.24.679,vbt_B1_day2,2022.2.4,MacIntel,58.82352941,,,,,,,0.182222222,-0.226666667,1,0,0,7.284,0,21,21,1,1,b,images/br_b.png,images/cb_b.png,,,,,,,,,,,,,,,,,,,,,,,,,,,,,,,,,,,,,,,,,,,,,,,
,,,,,,00089,2023-10-25_16h25.24.679,vbt_B1_day2,2022.2.4,MacIntel,58.82352941,,,,,,,0.184444444,-0.224444444,1,0,0,0.017,0,22,22,22,1,w,images/br_w.png,images/cb_w.png,,,,,,,,,,,,,,,,,,,,,,,,,,,,,,,,,,,,,,,,,,,,,,,
,,,,,,00089,2023-10-25_16h25.24.679,vbt_B1_day2,2022.2.4,MacIntel,58.82352941,,,,,,,0.185555556,-0.223333333,1,0,0,2.583,0,23,23,6,1,g,images/br_g.png,images/cb_g.png,,,,,,,,,,,,,,,,,,,,,,,,,,,,,,,,,,,,,,,,,,,,,,,
,,,,,,00089,2023-10-25_16h25.24.679,vbt_B1_day2,2022.2.4,MacIntel,58.82352941,,,,,,,0.185555556,-0.223333333,1,0,0,55.102,0,24,24,15,1,p,images/br_p.png,images/cb_p.png,,,,,,,,,,,,,,,,,,,,,,,,,,,,,,,,,,,,,,,,,,,,,,,
,,,,,,00089,2023-10-25_16h25.24.679,vbt_B1_day2,2022.2.4,MacIntel,58.82352941,,,,,,,0.184444444,-0.216666667,1,0,0,20.25,0,25,25,13,1,n,images/br_n.png,images/cb_n.png,,,,,,,,,,,,,,,,,,,,,,,,,,,,,,,,,,,,,,,,,,,,,,,
,,,,,,00089,2023-10-25_16h25.24.679,vbt_B1_day2,2022.2.4,MacIntel,58.82352941,,,,,,,,,,,,,,,,,,,,,0.184444444,-0.216666667,1,0,0,56.593,,,,,,,,,,,,,,,,,,,,,,,,,,,,,,,,,,,,,,,,,
,,,,,,00089,2023-10-25_16h25.24.679,vbt_B1_day2,2022.2.4,MacIntel,58.82352941,,,,,,,,,,,,,,,,,,,,,,,,,,,down,0,20.536,,0.184444444,-0.216666667,1,0,0,5.85,0,0,0,66,1,lever,images/br_lever.png,images/cb_lever.png,0,,,,,,,,,,,,,,,,,,,,,,
,,,,,,00089,2023-10-25_16h25.24.679,vbt_B1_day2,2022.2.4,MacIntel,58.82352941,,,,,,,,,,,,,,,,,,,,,,,,,,,down,0,15.466,,0.074444444,-0.215555556,1,0,0,2.4,0,1,1,73,1,volop,images/br_volop.png,images/cb_volop.png,0,,,,,,,,,,,,,,,,,,,,,,
,,,,,,00089,2023-10-25_16h25.24.679,vbt_B1_day2,2022.2.4,MacIntel,58.82352941,,,,,,,,,,,,,,,,,,,,,,,,,,,down,0,31.169,,0.075555556,-0.215555556,1,0,0,1.384,0,2,2,166,1,strikken,images/br_strikken.png,images/cb_strikken.png,0,,,,,,,,,,,,,,,,,,,,,,
,,,,,,00089,2023-10-25_16h25.24.679,vbt_B1_day2,2022.2.4,MacIntel,58.82352941,,,,,,,,,,,,,,,,,,,,,,,,,,,down,0,18.842,,0.075555556,-0.215555556,1,0,0,0.817,0,3,3,93,1,waarop,images/br_waarop.png,images/cb_waarop.png,0,,,,,,,,,,,,,,,,,,,,,,
,,,,,,00089,2023-10-25_16h25.24.679,vbt_B1_day2,2022.2.4,MacIntel,58.82352941,,,,,,,,,,,,,,,,,,,,,,,,,,,down,0,7.318,,0.103333333,-0.215555556,1,0,0,0.75,0,4,4,71,1,bever,images/br_bever.png,images/cb_bever.png,0,,,,,,,,,,,,,,,,,,,,,,
,,,,,,00089,2023-10-25_16h25.24.679,vbt_B1_day2,2022.2.4,MacIntel,58.82352941,,,,,,,,,,,,,,,,,,,,,,,,,,,down,0,17.643,,0.104444444,-0.212222222,1,0,0,1.067,0,5,5,144,1,eetlust,images/br_eetlust.png,images/cb_eetlust.png,0,,,,,,,,,,,,,,,,,,,,,,
,,,,,,00089,2023-10-25_16h25.24.679,vbt_B1_day2,2022.2.4,MacIntel,58.82352941,,,,,,,,,,,,,,,,,,,,,,,,,,,down,0,42.286,,0.076666667,-0.361111111,1,0,0,3.5,0,6,6,139,1,stiekem,images/br_stiekem.png,images/cb_stiekem.png,1,stiekemstiekem,,,,,,,,,,,,,,,,,,,,,
,,,,,,00089,2023-10-25_16h25.24.679,vbt_B1_day2,2022.2.4,MacIntel,58.82352941,,,,,,,,,,,,,,,,,,,,,,,,,,,down,0,11.268,,0.076666667,-0.361111111,1,0,0,1.85,0,7,7,9,1,hier,images/br_hier.png,images/cb_hier.png,0,,,,,,,,,,,,,,,,,,,,,,
,,,,,,00089,2023-10-25_16h25.24.679,vbt_B1_day2,2022.2.4,MacIntel,58.82352941,,,,,,,,,,,,,,,,,,,,,,,,,,,down,0,19.271,,0.061111111,-0.35,1,0,0,1.434,0,8,8,102,1,legaal,images/br_legaal.png,images/cb_legaal.png,0,,,,,,,,,,,,,,,,,,,,,,
,,,,,,00089,2023-10-25_16h25.24.679,vbt_B1_day2,2022.2.4,MacIntel,58.82352941,,,,,,,,,,,,,,,,,,,,,,,,,,,down,0,37.518,,0.061111111,-0.35,1,0,0,1.084,0,9,9,191,1,opheffen,images/br_opheffen.png,images/cb_opheffen.png,0,,,,,,,,,,,,,,,,,,,,,,
,,,,,,00089,2023-10-25_16h25.24.679,vbt_B1_day2,2022.2.4,MacIntel,58.82352941,,,,,,,,,,,,,,,,,,,,,,,,,,,down,0,15.375,,0.062222222,-0.347777778,1,0,0,2.617,0,10,10,68,1,schat,images/br_schat.png,images/cb_schat.png,0,,,,,,,,,,,,,,,,,,,,,,
,,,,,,00089,2023-10-25_16h25.24.679,vbt_B1_day2,2022.2.4,MacIntel,58.82352941,,,,,,,,,,,,,,,,,,,,,,,,,,,down,0,28.742,,0.068888889,-0.341111111,1,0,0,1.051,0,11,11,107,1,maling,images/br_maling.png,images/cb_maling.png,0,,,,,,,,,,,,,,,,,,,,,,
,,,,,,00089,2023-10-25_16h25.24.679,vbt_B1_day2,2022.2.4,MacIntel,58.82352941,,,,,,,,,,,,,,,,,,,,,,,,,,,down,0,28.372,,0.068888889,-0.341111111,1,0,0,7.301,0,12,12,196,1,nakijken,images/br_nakijken.png,images/cb_nakijken.png,0,,,,,,,,,,,,,,,,,,,,,,
,,,,,,00089,2023-10-25_16h25.24.679,vbt_B1_day2,2022.2.4,MacIntel,58.82352941,,,,,,,,,,,,,,,,,,,,,,,,,,,down,0,18.616,,0.073333333,-0.337777778,1,0,0,0.734,0,13,13,80,1,kanjer,images/br_kanjer.png,images/cb_kanjer.png,0,,,,,,,,,,,,,,,,,,,,,,
,,,,,,00089,2023-10-25_16h25.24.679,vbt_B1_day2,2022.2.4,MacIntel,58.82352941,,,,,,,,,,,,,,,,,,,,,,,,,,,down,0,12.569,,0.073333333,-0.338888889,1,0,0,0.617,0,14,14,28,1,stal,images/br_stal.png,images/cb_stal.png,0,,,,,,,,,,,,,,,,,,,,,,
,,,,,,00089,2023-10-25_16h25.24.679,vbt_B1_day2,2022.2.4,MacIntel,58.82352941,,,,,,,,,,,,,,,,,,,,,,,,,,,down,0,14.419,,0.116666667,-0.183333333,1,0,0,4.499,0,15,15,137,1,trekker,images/br_trekker.png,images/cb_trekker.png,1,trekken,,,,,,,,,,,,,,,,,,,,,
,,,,,,00089,2023-10-25_16h25.24.679,vbt_B1_day2,2022.2.4,MacIntel,58.82352941,,,,,,,,,,,,,,,,,,,,,,,,,,,down,0,19.739,,0.116666667,-0.184444444,1,0,0,1.149,0,16,16,132,1,grappen,images/br_grappen.png,images/cb_grappen.png,0,,,,,,,,,,,,,,,,,,,,,,
,,,,,,00089,2023-10-25_16h25.24.679,vbt_B1_day2,2022.2.4,MacIntel,58.82352941,,,,,,,,,,,,,,,,,,,,,,,,,,,down,0,16.239,,0.116666667,-0.183333333,1,0,0,0.366,0,17,17,40,1,schep,images/br_schep.png,images/cb_schep.png,0,,,,,,,,,,,,,,,,,,,,,,
,,,,,,00089,2023-10-25_16h25.24.679,vbt_B1_day2,2022.2.4,MacIntel,58.82352941,,,,,,,,,,,,,,,,,,,,,,,,,,,down,0,26.084,,0.097777778,-0.164444444,1,0,0,0.884,0,18,18,152,1,afnemen,images/br_afnemen.png,images/cb_afnemen.png,0,,,,,,,,,,,,,,,,,,,,,,
,,,,,,00089,2023-10-25_16h25.24.679,vbt_B1_day2,2022.2.4,MacIntel,58.82352941,,,,,,,,,,,,,,,,,,,,,,,,,,,down,0,11.407,,0.097777778,-0.164444444,1,0,0,1.017,0,19,19,11,1,mode,images/br_mode.png,images/cb_mode.png,0,,,,,,,,,,,,,,,,,,,,,,
,,,,,,00089,2023-10-25_16h25.24.679,vbt_B1_day2,2022.2.4,MacIntel,58.82352941,,,,,,,,,,,,,,,,,,,,,,,,,,,down,0,18.018,,0.097777778,-0.164444444,1,0,0,0.7,0,20,20,157,1,uitlaat,images/br_uitlaat.png,images/cb_uitlaat.png,0,,,,,,,,,,,,,,,,,,,,,,
,,,,,,00089,2023-10-25_16h25.24.679,vbt_B1_day2,2022.2.4,MacIntel,58.82352941,,,,,,,,,,,,,,,,,,,,,,,,,,,down,0,22.821,,0.096666667,-0.164444444,1,0,0,0.967,0,21,21,141,1,knielen,images/br_knielen.png,images/cb_knielen.png,0,,,,,,,,,,,,,,,,,,,,,,
,,,,,,00089,2023-10-25_16h25.24.679,vbt_B1_day2,2022.2.4,MacIntel,58.82352941,,,,,,,,,,,,,,,,,,,,,,,,,,,down,0,9.051,,0.096666667,-0.164444444,1,0,0,4.667,0,22,22,115,1,kleren,images/br_kleren.png,images/cb_kleren.png,0,,,,,,,,,,,,,,,,,,,,,,
,,,,,,00089,2023-10-25_16h25.24.679,vbt_B1_day2,2022.2.4,MacIntel,58.82352941,,,,,,,,,,,,,,,,,,,,,,,,,,,down,0,13.975,,0.096666667,-0.164444444,1,0,0,0.867,0,23,23,6,1,diep,images/br_diep.png,images/cb_diep.png,0,,,,,,,,,,,,,,,,,,,,,,
,,,,,,00089,2023-10-25_16h25.24.679,vbt_B1_day2,2022.2.4,MacIntel,58.82352941,,,,,,,,,,,,,,,,,,,,,,,,,,,down,0,15.668,,0.096666667,-0.164444444,1,0,0,0.684,0,24,24,173,1,apparaat,images/br_apparaat.png,images/cb_apparaat.png,0,,,,,,,,,,,,,,,,,,,,,,
,,,,,,00089,2023-10-25_16h25.24.679,vbt_B1_day2,2022.2.4,MacIntel,58.82352941,,,,,,,,,,,,,,,,,,,,,,,,,,,down,0,27.389,,0.078888889,-0.191111111,1,0,0,5.334,0,25,25,147,1,komisch,images/br_komisch.png,images/cb_komisch.png,0,,,,,,,,,,,,,,,,,,,,,,
,,,,,,00089,2023-10-25_16h25.24.679,vbt_B1_day2,2022.2.4,MacIntel,58.82352941,,,,,,,,,,,,,,,,,,,,,,,,,,,down,0,4.234,,0.08,-0.191111111,1,0,0,0.75,0,26,26,82,1,muziek,images/br_muziek.png,images/cb_muziek.png,0,,,,,,,,,,,,,,,,,,,,,,
,,,,,,00089,2023-10-25_16h25.24.679,vbt_B1_day2,2022.2.4,MacIntel,58.82352941,,,,,,,,,,,,,,,,,,,,,,,,,,,down,0,12.65,,0.066666667,-0.181111111,1,0,0,0.567,0,27,27,104,1,zweven,images/br_zweven.png,images/cb_zweven.png,0,,,,,,,,,,,,,,,,,,,,,,
,,,,,,00089,2023-10-25_16h25.24.679,vbt_B1_day2,2022.2.4,MacIntel,58.82352941,,,,,,,,,,,,,,,,,,,,,,,,,,,down,0,12.052,,0.065555556,-0.181111111,1,0,0,0.633,0,28,28,69,1,waken,images/br_waken.png,images/cb_waken.png,0,,,,,,,,,,,,,,,,,,,,,,
,,,,,,00089,2023-10-25_16h25.24.679,vbt_B1_day2,2022.2.4,MacIntel,58.82352941,,,,,,,,,,,,,,,,,,,,,,,,,,,down,0,13.07,,0.066666667,-0.18,1,0,0,0.601,0,29,29,161,1,attentie,images/br_attentie.png,images/cb_attentie.png,0,,,,,,,,,,,,,,,,,,,,,,
,,,,,,00089,2023-10-25_16h25.24.679,vbt_B1_day2,2022.2.4,MacIntel,58.82352941,,,,,,,,,,,,,,,,,,,,,,,,,,,down,0,24.103,,0.07,-0.174444444,1,0,0,0.634,0,30,30,31,1,poes,images/br_poes.png,images/cb_poes.png,0,,,,,,,,,,,,,,,,,,,,,,
,,,,,,00089,2023-10-25_16h25.24.679,vbt_B1_day2,2022.2.4,MacIntel,58.82352941,,,,,,,,,,,,,,,,,,,,,,,,,,,down,0,27.941,,0.072222222,-0.175555556,1,0,0,7.784,0,31,31,168,1,bisschop,images/br_bisschop.png,images/cb_bisschop.png,0,,,,,,,,,,,,,,,,,,,,,,
,,,,,,00089,2023-10-25_16h25.24.679,vbt_B1_day2,2022.2.4,MacIntel,58.82352941,,,,,,,,,,,,,,,,,,,,,,,,,,,down,0,24.902,,0.21,-0.144444444,1,0,0,1.95,0,32,32,96,1,slagen,images/br_slagen.png,images/cb_slagen.png,1,slagen,,,,,,,,,,,,,,,,,,,,,
,,,,,,00089,2023-10-25_16h25.24.679,vbt_B1_day2,2022.2.4,MacIntel,58.82352941,,,,,,,,,,,,,,,,,,,,,,,,,,,down,0,24.303,,0.254444444,-0.117777778,1,0,0,1.801,0,33,33,177,1,maaltijd,images/br_maaltijd.png,images/cb_maaltijd.png,1,maaltijd,,,,,,,,,,,,,,,,,,,,,
,,,,,,00089,2023-10-25_16h25.24.679,vbt_B1_day2,2022.2.4,MacIntel,58.82352941,,,,,,,,,,,,,,,,,,,,,,,,,,,down,0,24.701,,0.254444444,-0.117777778,1,0,0,2.083,0,34,34,72,1,strak,images/br_strak.png,images/cb_strak.png,0,,,,,,,,,,,,,,,,,,,,,,
,,,,,,00089,2023-10-25_16h25.24.679,vbt_B1_day2,2022.2.4,MacIntel,58.82352941,,,,,,,,,,,,,,,,,,,,,,,,,,,down,0,15.804,,0.254444444,-0.117777778,1,0,0,0.351,0,35,35,194,1,driemaal,images/br_driemaal.png,images/cb_driemaal.png,0,,,,,,,,,,,,,,,,,,,,,,
,,,,,,00089,2023-10-25_16h25.24.679,vbt_B1_day2,2022.2.4,MacIntel,58.82352941,,,,,,,,,,,,,,,,,,,,,,,,,,,down,0,5.853,,0.254444444,-0.117777778,1,0,0,0.884,0,36,36,41,1,maken,images/br_maken.png,images/cb_maken.png,0,,,,,,,,,,,,,,,,,,,,,,
,,,,,,00089,2023-10-25_16h25.24.679,vbt_B1_day2,2022.2.4,MacIntel,58.82352941,,,,,,,,,,,,,,,,,,,,,,,,,,,down,0,41.951,,0.254444444,-0.117777778,1,0,0,1.134,0,37,37,135,1,gedicht,images/br_gedicht.png,images/cb_gedicht.png,0,,,,,,,,,,,,,,,,,,,,,,
,,,,,,00089,2023-10-25_16h25.24.679,vbt_B1_day2,2022.2.4,MacIntel,58.82352941,,,,,,,,,,,,,,,,,,,,,,,,,,,down,0,3.353,,0.256666667,-0.114444444,1,0,0,0.917,0,38,38,114,1,vullen,images/br_vullen.png,images/cb_vullen.png,0,,,,,,,,,,,,,,,,,,,,,,
,,,,,,00089,2023-10-25_16h25.24.679,vbt_B1_day2,2022.2.4,MacIntel,58.82352941,,,,,,,,,,,,,,,,,,,,,,,,,,,down,0,19.151,,0.248888889,-0.115555556,1,0,0,4.268,0,39,39,126,1,kasteel,images/br_kasteel.png,images/cb_kasteel.png,0,,,,,,,,,,,,,,,,,,,,,,
,,,,,,00089,2023-10-25_16h25.24.679,vbt_B1_day2,2022.2.4,MacIntel,58.82352941,,,,,,,,,,,,,,,,,,,,,,,,,,,down,0,12.693,,0.248888889,-0.116666667,1,0,0,0.583,0,40,40,122,1,waarvan,images/br_waarvan.png,images/cb_waarvan.png,0,,,,,,,,,,,,,,,,,,,,,,
,,,,,,00089,2023-10-25_16h25.24.679,vbt_B1_day2,2022.2.4,MacIntel,58.82352941,,,,,,,,,,,,,,,,,,,,,,,,,,,down,0,15.083,,0.248888889,-0.116666667,1,0,0,0.867,0,41,41,109,1,totaal,images/br_totaal.png,images/cb_totaal.png,0,,,,,,,,,,,,,,,,,,,,,,
,,,,,,00089,2023-10-25_16h25.24.679,vbt_B1_day2,2022.2.4,MacIntel,58.82352941,,,,,,,,,,,,,,,,,,,,,,,,,,,down,0,7.719,,0.25,-0.117777778,1,0,0,1.55,0,42,42,78,1,leren,images/br_leren.png,images/cb_leren.png,0,,,,,,,,,,,,,,,,,,,,,,
,,,,,,00089,2023-10-25_16h25.24.679,vbt_B1_day2,2022.2.4,MacIntel,58.82352941,,,,,,,,,,,,,,,,,,,,,,,,,,,down,0,16.433,,0.25,-0.117777778,1,0,0,1.016,0,43,43,62,1,knaap,images/br_knaap.png,images/cb_knaap.png,0,,,,,,,,,,,,,,,,,,,,,,
,,,,,,00089,2023-10-25_16h25.24.679,vbt_B1_day2,2022.2.4,MacIntel,58.82352941,,,,,,,,,,,,,,,,,,,,,,,,,,,down,0,11.717,,0.255555556,-0.114444444,1,0,0,1.068,0,44,44,172,1,weigeren,images/br_weigeren.png,images/cb_weigeren.png,0,,,,,,,,,,,,,,,,,,,,,,
,,,,,,00089,2023-10-25_16h25.24.679,vbt_B1_day2,2022.2.4,MacIntel,58.82352941,,,,,,,,,,,,,,,,,,,,,,,,,,,down,0,25.818,,0.255555556,-0.115555556,1,0,0,1.434,0,45,45,75,1,snoep,images/br_snoep.png,images/cb_snoep.png,0,,,,,,,,,,,,,,,,,,,,,,
,,,,,,00089,2023-10-25_16h25.24.679,vbt_B1_day2,2022.2.4,MacIntel,58.82352941,,,,,,,,,,,,,,,,,,,,,,,,,,,down,0,38.254,,0.278888889,-0.11,1,0,0,1.734,0,46,46,99,1,koffie,images/br_koffie.png,images/cb_koffie.png,1,koffie,,,,,,,,,,,,,,,,,,,,,
,,,,,,00089,2023-10-25_16h25.24.679,vbt_B1_day2,2022.2.4,MacIntel,58.82352941,,,,,,,,,,,,,,,,,,,,,,,,,,,down,0,14.918,,0.278888889,-0.11,1,0,0,0.766,0,47,47,3,1,mand,images/br_mand.png,images/cb_mand.png,0,,,,,,,,,,,,,,,,,,,,,,
,,,,,,00089,2023-10-25_16h25.24.679,vbt_B1_day2,2022.2.4,MacIntel,58.82352941,,,,,,,,,,,,,,,,,,,,,,,,,,,down,0,13.122,,0.287777778,-0.105555556,1,0,0,0.55,0,48,48,150,1,gegeven,images/br_gegeven.png,images/cb_gegeven.png,0,,,,,,,,,,,,,,,,,,,,,,
,,,,,,00089,2023-10-25_16h25.24.679,vbt_B1_day2,2022.2.4,MacIntel,58.82352941,,,,,,,,,,,,,,,,,,,,,,,,,,,down,0,10.372,,0.266666667,-0.104444444,1,0,0,0.8,0,49,49,83,1,mening,images/br_mening.png,images/cb_mening.png,0,,,,,,,,,,,,,,,,,,,,,,
,,,,,,00089,2023-10-25_16h25.24.679,vbt_B1_day2,2022.2.4,MacIntel,58.82352941,,,,,,,,,,,,,,,,,,,,,,,,,,,down,0,41.237,,0.312222222,-0.087777778,1,0,0,1.067,0,50,50,50,1,stoom,images/br_stoom.png,images/cb_stoom.png,0,,,,,,,,,,,,,,,,,,,,,,
,,,,,,00089,2023-10-25_16h25.24.679,vbt_B1_day2,2022.2.4,MacIntel,58.82352941,,,,,,,,,,,,,,,,,,,,,,,,,,,down,0,10.417,,0.211111111,-0.221111111,1,0,0,0.6,0,51,51,183,1,getuigen,images/br_getuigen.png,images/cb_getuigen.png,0,,,,,,,,,,,,,,,,,,,,,,
,,,,,,00089,2023-10-25_16h25.24.679,vbt_B1_day2,2022.2.4,MacIntel,58.82352941,,,,,,,,,,,,,,,,,,,,,,,,,,,down,0,8.12,,0.208888889,-0.217777778,1,0,0,0.867,0,52,52,4,1,moes,images/br_moes.png,images/cb_moes.png,0,,,,,,,,,,,,,,,,,,,,,,
,,,,,,00089,2023-10-25_16h25.24.679,vbt_B1_day2,2022.2.4,MacIntel,58.82352941,,,,,,,,,,,,,,,,,,,,,,,,,,,down,0,12.367,,0.216666667,-0.214444444,1,0,0,0.8,0,53,53,190,1,goedkoop,images/br_goedkoop.png,images/cb_goedkoop.png,0,,,,,,,,,,,,,,,,,,,,,,
,,,,,,00089,2023-10-25_16h25.24.679,vbt_B1_day2,2022.2.4,MacIntel,58.82352941,,,,,,,,,,,,,,,,,,,,,,,,,,,down,0,24.173,,0.22,-0.214444444,1,0,0,1.067,0,54,54,76,1,afval,images/br_afval.png,images/cb_afval.png,0,,,,,,,,,,,,,,,,,,,,,,
,,,,,,00089,2023-10-25_16h25.24.679,vbt_B1_day2,2022.2.4,MacIntel,58.82352941,,,,,,,,,,,,,,,,,,,,,,,,,,,down,0,20.95,,0.213333333,-0.223333333,1,0,0,0.767,0,55,55,159,1,sufferd,images/br_sufferd.png,images/cb_sufferd.png,0,,,,,,,,,,,,,,,,,,,,,,
,,,,,,00089,2023-10-25_16h25.24.679,vbt_B1_day2,2022.2.4,MacIntel,58.82352941,,,,,,,,,,,,,,,,,,,,,,,,,,,down,0,17.541,,0.213333333,-0.223333333,1,0,0,1.633,0,56,56,48,1,steel,images/br_steel.png,images/cb_steel.png,0,,,,,,,,,,,,,,,,,,,,,,
,,,,,,00089,2023-10-25_16h25.24.679,vbt_B1_day2,2022.2.4,MacIntel,58.82352941,,,,,,,,,,,,,,,,,,,,,,,,,,,down,0,14.972,,0.213333333,-0.223333333,1,0,0,5.266,0,57,57,14,1,rijp,images/br_rijp.png,images/cb_rijp.png,0,,,,,,,,,,,,,,,,,,,,,,
,,,,,,00089,2023-10-25_16h25.24.679,vbt_B1_day2,2022.2.4,MacIntel,58.82352941,,,,,,,,,,,,,,,,,,,,,,,,,,,down,0,18.751,,0.213333333,-0.223333333,1,0,0,5.349,0,58,58,175,1,heengaan,images/br_heengaan.png,images/cb_heengaan.png,0,,,,,,,,,,,,,,,,,,,,,,
,,,,,,00089,2023-10-25_16h25.24.679,vbt_B1_day2,2022.2.4,MacIntel,58.82352941,,,,,,,,,,,,,,,,,,,,,,,,,,,down,0,11.05,,0.214444444,-0.223333333,1,0,0,0.583,0,59,59,54,1,gebit,images/br_gebit.png,images/cb_gebit.png,0,,,,,,,,,,,,,,,,,,,,,,
,,,,,,00089,2023-10-25_16h25.24.679,vbt_B1_day2,2022.2.4,MacIntel,58.82352941,,,,,,,,,,,,,,,,,,,,,,,,,,,down,0,5.934,,0.178888889,-0.241111111,1,0,0,1.583,0,60,60,8,1,knie,images/br_knie.png,images/cb_knie.png,0,,,,,,,,,,,,,,,,,,,,,,
,,,,,,00089,2023-10-25_16h25.24.679,vbt_B1_day2,2022.2.4,MacIntel,58.82352941,,,,,,,,,,,,,,,,,,,,,,,,,,,down,0,4.001,,0.226666667,-0.218888889,1,0,0,0.983,0,61,61,97,1,loyaal,images/br_loyaal.png,images/cb_loyaal.png,1,loyaal,,,,,,,,,,,,,,,,,,,,,
,,,,,,00089,2023-10-25_16h25.24.679,vbt_B1_day2,2022.2.4,MacIntel,58.82352941,,,,,,,,,,,,,,,,,,,,,,,,,,,down,0,8.451,,0.228888889,-0.218888889,1,0,0,1.233,0,62,62,24,1,jurk,images/br_jurk.png,images/cb_jurk.png,0,,,,,,,,,,,,,,,,,,,,,,
,,,,,,00089,2023-10-25_16h25.24.679,vbt_B1_day2,2022.2.4,MacIntel,58.82352941,,,,,,,,,,,,,,,,,,,,,,,,,,,down,0,16.851,,0.223333333,-0.217777778,1,0,0,0.767,0,63,63,192,1,schaamte,images/br_schaamte.png,images/cb_schaamte.png,0,,,,,,,,,,,,,,,,,,,,,,
,,,,,,00089,2023-10-25_16h25.24.679,vbt_B1_day2,2022.2.4,MacIntel,58.82352941,,,,,,,,,,,,,,,,,,,,,,,,,,,down,0,19.707,,0.217777778,-0.233333333,1,0,0,1.167,0,64,64,188,1,strekken,images/br_strekken.png,images/cb_strekken.png,0,,,,,,,,,,,,,,,,,,,,,,
,,,,,,00089,2023-10-25_16h25.24.679,vbt_B1_day2,2022.2.4,MacIntel,58.82352941,,,,,,,,,,,,,,,,,,,,,,,,,,,down,0,14.408,,0.221111111,-0.228888889,1,0,0,1.084,0,65,65,153,1,vervoer,images/br_vervoer.png,images/cb_vervoer.png,0,,,,,,,,,,,,,,,,,,,,,,
,,,,,,00089,2023-10-25_16h25.24.679,vbt_B1_day2,2022.2.4,MacIntel,58.82352941,,,,,,,,,,,,,,,,,,,,,,,,,,,down,0,8.276,,0.221111111,-0.228888889,1,0,0,0.617,0,66,66,21,1,mist,images/br_mist.png,images/cb_mist.png,0,,,,,,,,,,,,,,,,,,,,,,
,,,,,,00089,2023-10-25_16h25.24.679,vbt_B1_day2,2022.2.4,MacIntel,58.82352941,,,,,,,,,,,,,,,,,,,,,,,,,,,down,0,8.742,,0.222222222,-0.228888889,1,0,0,0.633,0,67,67,101,1,staren,images/br_staren.png,images/cb_staren.png,0,,,,,,,,,,,,,,,,,,,,,,
,,,,,,00089,2023-10-25_16h25.24.679,vbt_B1_day2,2022.2.4,MacIntel,58.82352941,,,,,,,,,,,,,,,,,,,,,,,,,,,down,0,17.518,,0.222222222,-0.228888889,1,0,0,0.4,0,68,68,198,1,bedoelen,images/br_bedoelen.png,images/cb_bedoelen.png,0,,,,,,,,,,,,,,,,,,,,,,
,,,,,,00089,2023-10-25_16h25.24.679,vbt_B1_day2,2022.2.4,MacIntel,58.82352941,,,,,,,,,,,,,,,,,,,,,,,,,,,down,0,4.051,,0.222222222,-0.228888889,1,0,0,0.35,0,69,69,34,1,vorm,images/br_vorm.png,images/cb_vorm.png,0,,,,,,,,,,,,,,,,,,,,,,
,,,,,,00089,2023-10-25_16h25.24.679,vbt_B1_day2,2022.2.4,MacIntel,58.82352941,,,,,,,,,,,,,,,,,,,,,,,,,,,down,0,14.285,,0.222222222,-0.228888889,1,0,0,4.983,0,70,70,155,1,gerucht,images/br_gerucht.png,images/cb_gerucht.png,0,,,,,,,,,,,,,,,,,,,,,,
,,,,,,00089,2023-10-25_16h25.24.679,vbt_B1_day2,2022.2.4,MacIntel,58.82352941,,,,,,,,,,,,,,,,,,,,,,,,,,,down,0,12.507,,0.222222222,-0.228888889,1,0,0,0.401,0,71,71,174,1,stemming,images/br_stemming.png,images/cb_stemming.png,0,,,,,,,,,,,,,,,,,,,,,,
,,,,,,00089,2023-10-25_16h25.24.679,vbt_B1_day2,2022.2.4,MacIntel,58.82352941,,,,,,,,,,,,,,,,,,,,,,,,,,,down,0,11.385,,0.23,-0.226666667,1,0,0,0.75,0,72,72,77,1,woede,images/br_woede.png,images/cb_woede.png,0,,,,,,,,,,,,,,,,,,,,,,
,,,,,,00089,2023-10-25_16h25.24.679,vbt_B1_day2,2022.2.4,MacIntel,58.82352941,,,,,,,,,,,,,,,,,,,,,,,,,,,down,0,21.02,,0.23,-0.226666667,1,0,0,0.9,0,73,73,92,1,geheim,images/br_geheim.png,images/cb_geheim.png,0,,,,,,,,,,,,,,,,,,,,,,
,,,,,,00089,2023-10-25_16h25.24.679,vbt_B1_day2,2022.2.4,MacIntel,58.82352941,,,,,,,,,,,,,,,,,,,,,,,,,,,down,0,27.718,,0.231111111,-0.225555556,1,0,0,0.968,0,74,74,158,1,innemen,images/br_innemen.png,images/cb_innemen.png,0,,,,,,,,,,,,,,,,,,,,,,
,,,,,,00089,2023-10-25_16h25.24.679,vbt_B1_day2,2022.2.4,MacIntel,58.82352941,,,,,,,,,,,,,,,,,,,,,,,,,,,down,0,4.218,,0.335555556,-0.184444444,1,0,0,1.55,0,75,75,17,1,taal,images/br_taal.png,images/cb_taal.png,1,"taal
",,,,,,,,,,,,,,,,,,,,,
,,,,,,00089,2023-10-25_16h25.24.679,vbt_B1_day2,2022.2.4,MacIntel,58.82352941,,,,,,,,,,,,,,,,,,,,,,,,,,,down,0,24.389,,0.148888889,-0.298888889,1,0,0,1.917,0,76,76,58,1,tekst,images/br_tekst.png,images/cb_tekst.png,1,tekst,,,,,,,,,,,,,,,,,,,,,
,,,,,,00089,2023-10-25_16h25.24.679,vbt_B1_day2,2022.2.4,MacIntel,58.82352941,,,,,,,,,,,,,,,,,,,,,,,,,,,down,0,21.852,,0.228888889,-0.266666667,1,0,0,1.733,0,77,77,130,1,keihard,images/br_keihard.png,images/cb_keihard.png,0,,,,,,,,,,,,,,,,,,,,,,
,,,,,,00089,2023-10-25_16h25.24.679,vbt_B1_day2,2022.2.4,MacIntel,58.82352941,,,,,,,,,,,,,,,,,,,,,,,,,,,down,0,22.017,,0.228888889,-0.266666667,1,0,0,0.684,0,78,78,105,1,wijlen,images/br_wijlen.png,images/cb_wijlen.png,0,,,,,,,,,,,,,,,,,,,,,,
,,,,,,00089,2023-10-25_16h25.24.679,vbt_B1_day2,2022.2.4,MacIntel,58.82352941,,,,,,,,,,,,,,,,,,,,,,,,,,,down,0,7.701,,0.228888889,-0.266666667,1,0,0,0.867,0,79,79,91,1,gezond,images/br_gezond.png,images/cb_gezond.png,0,,,,,,,,,,,,,,,,,,,,,,
,,,,,,00089,2023-10-25_16h25.24.679,vbt_B1_day2,2022.2.4,MacIntel,58.82352941,,,,,,,,,,,,,,,,,,,,,,,,,,,down,0,15.902,,-0.182222222,-0.033333333,1,0,0,0.65,0,80,80,106,1,zingen,images/br_zingen.png,images/cb_zingen.png,0,,,,,,,,,,,,,,,,,,,,,,
,,,,,,00089,2023-10-25_16h25.24.679,vbt_B1_day2,2022.2.4,MacIntel,58.82352941,,,,,,,,,,,,,,,,,,,,,,,,,,,down,0,13.338,,0.262222222,-0.024444444,1,0,0,0.784,0,81,81,182,1,bijkomen,images/br_bijkomen.png,images/cb_bijkomen.png,0,,,,,,,,,,,,,,,,,,,,,,
,,,,,,00089,2023-10-25_16h25.24.679,vbt_B1_day2,2022.2.4,MacIntel,58.82352941,,,,,,,,,,,,,,,,,,,,,,,,,,,down,0,7.035,,0.267777778,-0.02,1,0,0,0.901,0,82,82,57,1,steek,images/br_steek.png,images/cb_steek.png,1,steek,,,,,,,,,,,,,,,,,,,,,
,,,,,,00089,2023-10-25_16h25.24.679,vbt_B1_day2,2022.2.4,MacIntel,58.82352941,,,,,,,,,,,,,,,,,,,,,,,,,,,down,0,4.75,,0.267777778,-0.02,1,0,0,0.684,0,83,83,88,1,boeien,images/br_boeien.png,images/cb_boeien.png,0,,,,,,,,,,,,,,,,,,,,,,
,,,,,,00089,2023-10-25_16h25.24.679,vbt_B1_day2,2022.2.4,MacIntel,58.82352941,,,,,,,,,,,,,,,,,,,,,,,,,,,down,0,11.29,,0.267777778,-0.02,1,0,0,0.683,0,84,84,189,1,aanraden,images/br_aanraden.png,images/cb_aanraden.png,0,,,,,,,,,,,,,,,,,,,,,,
,,,,,,00089,2023-10-25_16h25.24.679,vbt_B1_day2,2022.2.4,MacIntel,58.82352941,,,,,,,,,,,,,,,,,,,,,,,,,,,down,0,3.706,,0.267777778,-0.02,1,0,0,0.466,0,85,85,20,1,site,images/br_site.png,images/cb_site.png,0,,,,,,,,,,,,,,,,,,,,,,
,,,,,,00089,2023-10-25_16h25.24.679,vbt_B1_day2,2022.2.4,MacIntel,58.82352941,,,,,,,,,,,,,,,,,,,,,,,,,,,down,0,10.75,,0.267777778,-0.02,1,0,0,0.767,0,86,86,169,1,oprotten,images/br_oprotten.png,images/cb_oprotten.png,0,,,,,,,,,,,,,,,,,,,,,,
,,,,,,00089,2023-10-25_16h25.24.679,vbt_B1_day2,2022.2.4,MacIntel,58.82352941,,,,,,,,,,,,,,,,,,,,,,,,,,,down,0,7.772,,0.267777778,-0.02,1,0,0,1.283,0,87,87,74,1,graaf,images/br_graaf.png,images/cb_graaf.png,0,,,,,,,,,,,,,,,,,,,,,,
,,,,,,00089,2023-10-25_16h25.24.679,vbt_B1_day2,2022.2.4,MacIntel,58.82352941,,,,,,,,,,,,,,,,,,,,,,,,,,,down,0,7.521,,0.242222222,-0.055555556,1,0,0,0.851,0,88,88,44,1,flits,images/br_flits.png,images/cb_flits.png,0,,,,,,,,,,,,,,,,,,,,,,
,,,,,,00089,2023-10-25_16h25.24.679,vbt_B1_day2,2022.2.4,MacIntel,58.82352941,,,,,,,,,,,,,,,,,,,,,,,,,,,down,0,5.001,,0.242222222,-0.055555556,1,0,0,0.649,0,89,89,156,1,rechten,images/br_rechten.png,images/cb_rechten.png,0,,,,,,,,,,,,,,,,,,,,,,
,,,,,,00089,2023-10-25_16h25.24.679,vbt_B1_day2,2022.2.4,MacIntel,58.82352941,,,,,,,,,,,,,,,,,,,,,,,,,,,down,0,14.467,,0.242222222,-0.055555556,1,0,0,0.8,0,90,90,197,1,spanning,images/br_spanning.png,images/cb_spanning.png,0,,,,,,,,,,,,,,,,,,,,,,
,,,,,,00089,2023-10-25_16h25.24.679,vbt_B1_day2,2022.2.4,MacIntel,58.82352941,,,,,,,,,,,,,,,,,,,,,,,,,,,down,0,3.451,,0.242222222,-0.055555556,1,0,0,0.783,0,91,91,118,1,vinger,images/br_vinger.png,images/cb_vinger.png,0,,,,,,,,,,,,,,,,,,,,,,
,,,,,,00089,2023-10-25_16h25.24.679,vbt_B1_day2,2022.2.4,MacIntel,58.82352941,,,,,,,,,,,,,,,,,,,,,,,,,,,down,0,2.017,,0.242222222,-0.055555556,1,0,0,0.734,0,92,92,52,1,wagon,images/br_wagon.png,images/cb_wagon.png,0,,,,,,,,,,,,,,,,,,,,,,
,,,,,,00089,2023-10-25_16h25.24.679,vbt_B1_day2,2022.2.4,MacIntel,58.82352941,,,,,,,,,,,,,,,,,,,,,,,,,,,down,0,0.071,,0.242222222,-0.055555556,1,0,0,0.933,0,93,93,42,1,bleek,images/br_bleek.png,images/cb_bleek.png,0,,,,,,,,,,,,,,,,,,,,,,
,,,,,,00089,2023-10-25_16h25.24.679,vbt_B1_day2,2022.2.4,MacIntel,58.82352941,,,,,,,,,,,,,,,,,,,,,,,,,,,down,0,64.455,,0.33,0.078888889,1,0,0,2.068,0,94,94,178,1,huisdier,images/br_huisdier.png,images/cb_huisdier.png,1,huisdier,,,,,,,,,,,,,,,,,,,,,
,,,,,,00089,2023-10-25_16h25.24.679,vbt_B1_day2,2022.2.4,MacIntel,58.82352941,,,,,,,,,,,,,,,,,,,,,,,,,,,down,0,6.534,,0.33,0.078888889,1,0,0,0.667,0,95,95,79,1,nodig,images/br_nodig.png,images/cb_nodig.png,0,,,,,,,,,,,,,,,,,,,,,,
,,,,,,00089,2023-10-25_16h25.24.679,vbt_B1_day2,2022.2.4,MacIntel,58.82352941,,,,,,,,,,,,,,,,,,,,,,,,,,,down,0,2.14,,0.33,0.078888889,1,0,0,0.55,0,96,96,117,1,kennis,images/br_kennis.png,images/cb_kennis.png,0,,,,,,,,,,,,,,,,,,,,,,
,,,,,,00089,2023-10-25_16h25.24.679,vbt_B1_day2,2022.2.4,MacIntel,58.82352941,,,,,,,,,,,,,,,,,,,,,,,,,,,down,0,9.183,,0.334444444,0.08,1,0,0,2.1,0,97,97,128,1,prikken,images/br_prikken.png,images/cb_prikken.png,0,,,,,,,,,,,,,,,,,,,,,,
,,,,,,00089,2023-10-25_16h25.24.679,vbt_B1_day2,2022.2.4,MacIntel,58.82352941,,,,,,,,,,,,,,,,,,,,,,,,,,,down,0,4.557,,0.325555556,0.055555556,1,0,0,3.801,0,98,98,170,1,schatten,images/br_schatten.png,images/cb_schatten.png,0,,,,,,,,,,,,,,,,,,,,,,
,,,,,,00089,2023-10-25_16h25.24.679,vbt_B1_day2,2022.2.4,MacIntel,58.82352941,,,,,,,,,,,,,,,,,,,,,,,,,,,down,0,3.551,,0.325555556,0.055555556,1,0,0,0.583,0,99,99,124,1,bloeien,images/br_bloeien.png,images/cb_bloeien.png,0,,,,,,,,,,,,,,,,,,,,,,
,,,,,,00089,2023-10-25_16h25.24.679,vbt_B1_day2,2022.2.4,MacIntel,58.82352941,,,,,,,,,,,,,,,,,,,,,,,,,,,down,0,8.27,,0.325555556,0.055555556,1,0,0,0.467,0,100,100,116,1,besmet,images/br_besmet.png,images/cb_besmet.png,0,,,,,,,,,,,,,,,,,,,,,,
,,,,,,00089,2023-10-25_16h25.24.679,vbt_B1_day2,2022.2.4,MacIntel,58.82352941,,,,,,,,,,,,,,,,,,,,,,,,,,,down,0,17.81,,0.325555556,0.055555556,1,0,0,2.4,0,101,101,199,1,beseffen,images/br_beseffen.png,images/cb_beseffen.png,0,,,,,,,,,,,,,,,,,,,,,,
,,,,,,00089,2023-10-25_16h25.24.679,vbt_B1_day2,2022.2.4,MacIntel,58.82352941,,,,,,,,,,,,,,,,,,,,,,,,,,,down,0,7.776,,0.325555556,0.055555556,1,0,0,0.433,0,102,102,81,1,dubbel,images/br_dubbel.png,images/cb_dubbel.png,0,,,,,,,,,,,,,,,,,,,,,,
,,,,,,00089,2023-10-25_16h25.24.679,vbt_B1_day2,2022.2.4,MacIntel,58.82352941,,,,,,,,,,,,,,,,,,,,,,,,,,,down,0,2.618,,0.324444444,0.054444444,1,0,0,0.949,0,103,103,61,1,groen,images/br_groen.png,images/cb_groen.png,0,,,,,,,,,,,,,,,,,,,,,,
,,,,,,00089,2023-10-25_16h25.24.679,vbt_B1_day2,2022.2.4,MacIntel,58.82352941,,,,,,,,,,,,,,,,,,,,,,,,,,,down,0,3.401,,0.324444444,0.054444444,1,0,0,1.601,0,104,104,121,1,twijfel,images/br_twijfel.png,images/cb_twijfel.png,0,,,,,,,,,,,,,,,,,,,,,,
,,,,,,00089,2023-10-25_16h25.24.679,vbt_B1_day2,2022.2.4,MacIntel,58.82352941,,,,,,,,,,,,,,,,,,,,,,,,,,,down,0,10.117,,0.324444444,0.054444444,1,0,0,0.516,0,105,105,163,1,schuilen,images/br_schuilen.png,images/cb_schuilen.png,0,,,,,,,,,,,,,,,,,,,,,,
,,,,,,00089,2023-10-25_16h25.24.679,vbt_B1_day2,2022.2.4,MacIntel,58.82352941,,,,,,,,,,,,,,,,,,,,,,,,,,,down,0,2.118,,0.324444444,0.054444444,1,0,0,0.6,0,106,106,51,1,samen,images/br_samen.png,images/cb_samen.png,0,,,,,,,,,,,,,,,,,,,,,,
,,,,,,00089,2023-10-25_16h25.24.679,vbt_B1_day2,2022.2.4,MacIntel,58.82352941,,,,,,,,,,,,,,,,,,,,,,,,,,,down,0,3.355,,0.324444444,0.054444444,1,0,0,0.833,0,107,107,15,1,soda,images/br_soda.png,images/cb_soda.png,0,,,,,,,,,,,,,,,,,,,,,,
,,,,,,00089,2023-10-25_16h25.24.679,vbt_B1_day2,2022.2.4,MacIntel,58.82352941,,,,,,,,,,,,,,,,,,,,,,,,,,,down,0,2.2,,0.324444444,0.054444444,1,0,0,0.483,0,108,108,165,1,feestdag,images/br_feestdag.png,images/cb_feestdag.png,0,,,,,,,,,,,,,,,,,,,,,,
,,,,,,00089,2023-10-25_16h25.24.679,vbt_B1_day2,2022.2.4,MacIntel,58.82352941,,,,,,,,,,,,,,,,,,,,,,,,,,,down,0,5.486,,0.324444444,0.054444444,1,0,0,0.517,0,109,109,162,1,uitdelen,images/br_uitdelen.png,images/cb_uitdelen.png,0,,,,,,,,,,,,,,,,,,,,,,
,,,,,,00089,2023-10-25_16h25.24.679,vbt_B1_day2,2022.2.4,MacIntel,58.82352941,,,,,,,,,,,,,,,,,,,,,,,,,,,down,0,2.558,,0.324444444,0.054444444,1,0,0,0.551,0,110,110,181,1,toegeven,images/br_toegeven.png,images/cb_toegeven.png,0,,,,,,,,,,,,,,,,,,,,,,
,,,,,,00089,2023-10-25_16h25.24.679,vbt_B1_day2,2022.2.4,MacIntel,58.82352941,,,,,,,,,,,,,,,,,,,,,,,,,,,down,0,5.617,,0.324444444,0.054444444,1,0,0,4.1,0,111,111,151,1,aanzoek,images/br_aanzoek.png,images/cb_aanzoek.png,0,,,,,,,,,,,,,,,,,,,,,,
,,,,,,00089,2023-10-25_16h25.24.679,vbt_B1_day2,2022.2.4,MacIntel,58.82352941,,,,,,,,,,,,,,,,,,,,,,,,,,,down,0,0.635,,0.324444444,0.054444444,1,0,0,0.484,0,112,112,127,1,doodmoe,images/br_doodmoe.png,images/cb_doodmoe.png,0,,,,,,,,,,,,,,,,,,,,,,
,,,,,,00089,2023-10-25_16h25.24.679,vbt_B1_day2,2022.2.4,MacIntel,58.82352941,,,,,,,,,,,,,,,,,,,,,,,,,,,down,0,3.42,,0.324444444,0.054444444,1,0,0,1.917,0,113,113,185,1,mijnheer,images/br_mijnheer.png,images/cb_mijnheer.png,0,,,,,,,,,,,,,,,,,,,,,,
,,,,,,00089,2023-10-25_16h25.24.679,vbt_B1_day2,2022.2.4,MacIntel,58.82352941,,,,,,,,,,,,,,,,,,,,,,,,,,,down,0,1.252,,0.323333333,0.053333333,1,0,0,6.767,0,114,114,0,1,slak,images/br_slak.png,images/cb_slak.png,0,,,,,,,,,,,,,,,,,,,,,,
,,,,,,00089,2023-10-25_16h25.24.679,vbt_B1_day2,2022.2.4,MacIntel,58.82352941,,,,,,,,,,,,,,,,,,,,,,,,,,,down,0,1.368,,0.323333333,0.053333333,1,0,0,0.433,0,115,115,10,1,leek,images/br_leek.png,images/cb_leek.png,0,,,,,,,,,,,,,,,,,,,,,,
,,,,,,00089,2023-10-25_16h25.24.679,vbt_B1_day2,2022.2.4,MacIntel,58.82352941,,,,,,,,,,,,,,,,,,,,,,,,,,,down,0,5.834,,0.323333333,0.053333333,1,0,0,0.468,0,116,116,53,1,baron,images/br_baron.png,images/cb_baron.png,0,,,,,,,,,,,,,,,,,,,,,,
,,,,,,00089,2023-10-25_16h25.24.679,vbt_B1_day2,2022.2.4,MacIntel,58.82352941,,,,,,,,,,,,,,,,,,,,,,,,,,,down,0,0.437,,0.323333333,0.053333333,1,0,0,0.634,0,117,117,26,1,leuk,images/br_leuk.png,images/cb_leuk.png,0,,,,,,,,,,,,,,,,,,,,,,
,,,,,,00089,2023-10-25_16h25.24.679,vbt_B1_day2,2022.2.4,MacIntel,58.82352941,,,,,,,,,,,,,,,,,,,,,,,,,,,down,0,5.284,,0.323333333,0.053333333,1,0,0,0.684,0,118,118,134,1,geliefd,images/br_geliefd.png,images/cb_geliefd.png,0,,,,,,,,,,,,,,,,,,,,,,
,,,,,,00089,2023-10-25_16h25.24.679,vbt_B1_day2,2022.2.4,MacIntel,58.82352941,,,,,,,,,,,,,,,,,,,,,,,,,,,down,0,19.6,,0.323333333,0.053333333,1,0,0,0.517,0,119,119,145,1,invloed,images/br_invloed.png,images/cb_invloed.png,0,,,,,,,,,,,,,,,,,,,,,,
,,,,,,00089,2023-10-25_16h25.24.679,vbt_B1_day2,2022.2.4,MacIntel,58.82352941,,,,,,,,,,,,,,,,,,,,,,,,,,,down,0,3.303,,0.222222222,0.022222222,1,0,0,1.484,0,120,120,29,1,baas,images/br_baas.png,images/cb_baas.png,0,,,,,,,,,,,,,,,,,,,,,,
,,,,,,00089,2023-10-25_16h25.24.679,vbt_B1_day2,2022.2.4,MacIntel,58.82352941,,,,,,,,,,,,,,,,,,,,,,,,,,,down,0,0.508,,0.222222222,0.022222222,1,0,0,2.65,0,121,121,108,1,excuus,images/br_excuus.png,images/cb_excuus.png,0,,,,,,,,,,,,,,,,,,,,,,
,,,,,,00089,2023-10-25_16h25.24.679,vbt_B1_day2,2022.2.4,MacIntel,58.82352941,,,,,,,,,,,,,,,,,,,,,,,,,,,down,0,14.184,,0.222222222,0.022222222,1,0,0,0.884,0,122,122,146,1,opkomen,images/br_opkomen.png,images/cb_opkomen.png,0,,,,,,,,,,,,,,,,,,,,,,
,,,,,,00089,2023-10-25_16h25.24.679,vbt_B1_day2,2022.2.4,MacIntel,58.82352941,,,,,,,,,,,,,,,,,,,,,,,,,,,down,0,231.141,,0.253333333,0.022222222,1,0,0,22.25,0,123,123,32,1,palm,images/br_palm.png,images/cb_palm.png,0,,,,,,,,,,,,,,,,,,,,,,
,,,,,,00089,2023-10-25_16h25.24.679,vbt_B1_day2,2022.2.4,MacIntel,58.82352941,,,,,,,,,,,,,,,,,,,,,,,,,,,down,0,8.117,,0.253333333,0.022222222,1,0,0,1.567,0,124,124,111,1,ticket,images/br_ticket.png,images/cb_ticket.png,0,,,,,,,,,,,,,,,,,,,,,,
,,,,,,00089,2023-10-25_16h25.24.679,vbt_B1_day2,2022.2.4,MacIntel,58.82352941,,,,,,,,,,,,,,,,,,,,,,,,,,,down,0,8.451,,0.253333333,0.022222222,1,0,0,2.217,0,125,125,23,1,zout,images/br_zout.png,images/cb_zout.png,0,,,,,,,,,,,,,,,,,,,,,,
,,,,,,00089,2023-10-25_16h25.24.679,vbt_B1_day2,2022.2.4,MacIntel,58.82352941,,,,,,,,,,,,,,,,,,,,,,,,,,,down,0,5.942,,0.253333333,0.022222222,1,0,0,1.467,0,126,126,125,1,aanzien,images/br_aanzien.png,images/cb_aanzien.png,0,,,,,,,,,,,,,,,,,,,,,,
,,,,,,00089,2023-10-25_16h25.24.679,vbt_B1_day2,2022.2.4,MacIntel,58.82352941,,,,,,,,,,,,,,,,,,,,,,,,,,,down,0,8.924,,0.253333333,0.022222222,1,0,0,1.534,0,127,127,160,1,daarheen,images/br_daarheen.png,images/cb_daarheen.png,0,,,,,,,,,,,,,,,,,,,,,,
,,,,,,00089,2023-10-25_16h25.24.679,vbt_B1_day2,2022.2.4,MacIntel,58.82352941,,,,,,,,,,,,,,,,,,,,,,,,,,,down,0,6.784,,0.26,0.024444444,1,0,0,1.083,0,128,128,120,1,klimmen,images/br_klimmen.png,images/cb_klimmen.png,0,,,,,,,,,,,,,,,,,,,,,,
,,,,,,00089,2023-10-25_16h25.24.679,vbt_B1_day2,2022.2.4,MacIntel,58.82352941,,,,,,,,,,,,,,,,,,,,,,,,,,,down,0,8.452,,-0.173333333,-0.047777778,1,0,0,0.684,0,129,129,123,1,hiervan,images/br_hiervan.png,images/cb_hiervan.png,0,,,,,,,,,,,,,,,,,,,,,,
,,,,,,00089,2023-10-25_16h25.24.679,vbt_B1_day2,2022.2.4,MacIntel,58.82352941,,,,,,,,,,,,,,,,,,,,,,,,,,,down,0,10.886,,0.058888889,-0.047777778,1,0,0,0.717,0,130,130,176,1,techniek,images/br_techniek.png,images/cb_techniek.png,1,techniek,,,,,,,,,,,,,,,,,,,,,
,,,,,,00089,2023-10-25_16h25.24.679,vbt_B1_day2,2022.2.4,MacIntel,58.82352941,,,,,,,,,,,,,,,,,,,,,,,,,,,down,0,1.401,,0.038888889,-0.047777778,1,0,0,0.584,0,131,131,25,1,plek,images/br_plek.png,images/cb_plek.png,0,,,,,,,,,,,,,,,,,,,,,,
,,,,,,00089,2023-10-25_16h25.24.679,vbt_B1_day2,2022.2.4,MacIntel,58.82352941,,,,,,,,,,,,,,,,,,,,,,,,,,,down,0,3.356,,0.2,-0.024444444,1,0,0,0.717,0,132,132,18,1,blik,images/br_blik.png,images/cb_blik.png,1,blik,,,,,,,,,,,,,,,,,,,,,
,,,,,,00089,2023-10-25_16h25.24.679,vbt_B1_day2,2022.2.4,MacIntel,58.82352941,,,,,,,,,,,,,,,,,,,,,,,,,,,down,0,9.118,,0.042222222,-0.007777778,1,0,0,0.501,0,133,133,187,1,opkijken,images/br_opkijken.png,images/cb_opkijken.png,0,,,,,,,,,,,,,,,,,,,,,,
,,,,,,00089,2023-10-25_16h25.24.679,vbt_B1_day2,2022.2.4,MacIntel,58.82352941,,,,,,,,,,,,,,,,,,,,,,,,,,,down,0,0.334,,0.042222222,-0.007777778,1,0,0,0.534,0,134,134,113,1,koppen,images/br_koppen.png,images/cb_koppen.png,0,,,,,,,,,,,,,,,,,,,,,,
,,,,,,00089,2023-10-25_16h25.24.679,vbt_B1_day2,2022.2.4,MacIntel,58.82352941,,,,,,,,,,,,,,,,,,,,,,,,,,,down,0,8.218,,0.283333333,0.082222222,1,0,0,0.984,0,135,135,138,1,akkoord,images/br_akkoord.png,images/cb_akkoord.png,1,akkoord,,,,,,,,,,,,,,,,,,,,,
,,,,,,00089,2023-10-25_16h25.24.679,vbt_B1_day2,2022.2.4,MacIntel,58.82352941,,,,,,,,,,,,,,,,,,,,,,,,,,,down,0,6.934,,0.168888889,0.036666667,1,0,0,0.484,0,136,136,67,1,zwart,images/br_zwart.png,images/cb_zwart.png,0,,,,,,,,,,,,,,,,,,,,,,
,,,,,,00089,2023-10-25_16h25.24.679,vbt_B1_day2,2022.2.4,MacIntel,58.82352941,,,,,,,,,,,,,,,,,,,,,,,,,,,down,0,5.935,,0.161111111,0.037777778,1,0,0,1.183,0,137,137,171,1,aarzelen,images/br_aarzelen.png,images/cb_aarzelen.png,0,,,,,,,,,,,,,,,,,,,,,,
,,,,,,00089,2023-10-25_16h25.24.679,vbt_B1_day2,2022.2.4,MacIntel,58.82352941,,,,,,,,,,,,,,,,,,,,,,,,,,,down,0,1.968,,0.158888889,0.038888889,1,0,0,0.433,0,138,138,89,1,slapen,images/br_slapen.png,images/cb_slapen.png,0,,,,,,,,,,,,,,,,,,,,,,
,,,,,,00089,2023-10-25_16h25.24.679,vbt_B1_day2,2022.2.4,MacIntel,58.82352941,,,,,,,,,,,,,,,,,,,,,,,,,,,down,0,5.869,,0.158888889,0.038888889,1,0,0,0.583,0,139,139,164,1,anarchie,images/br_anarchie.png,images/cb_anarchie.png,0,,,,,,,,,,,,,,,,,,,,,,
,,,,,,00089,2023-10-25_16h25.24.679,vbt_B1_day2,2022.2.4,MacIntel,58.82352941,,,,,,,,,,,,,,,,,,,,,,,,,,,down,0,22.069,,0.293333333,0.056666667,1,0,0,0.883,0,140,140,179,1,woestijn,images/br_woestijn.png,images/cb_woestijn.png,1,woestijn,,,,,,,,,,,,,,,,,,,,,
,,,,,,00089,2023-10-25_16h25.24.679,vbt_B1_day2,2022.2.4,MacIntel,58.82352941,,,,,,,,,,,,,,,,,,,,,,,,,,,down,0,1.25,,0.291111111,0.06,1,0,0,0.566,0,141,141,100,1,geduld,images/br_geduld.png,images/cb_geduld.png,0,,,,,,,,,,,,,,,,,,,,,,
,,,,,,00089,2023-10-25_16h25.24.679,vbt_B1_day2,2022.2.4,MacIntel,58.82352941,,,,,,,,,,,,,,,,,,,,,,,,,,,down,0,3.584,,0.291111111,0.06,1,0,0,0.95,0,142,142,70,1,ijdel,images/br_ijdel.png,images/cb_ijdel.png,0,,,,,,,,,,,,,,,,,,,,,,
,,,,,,00089,2023-10-25_16h25.24.679,vbt_B1_day2,2022.2.4,MacIntel,58.82352941,,,,,,,,,,,,,,,,,,,,,,,,,,,down,0,9.301,,0.157777778,0.004444444,1,0,0,0.7,0,143,143,60,1,jasje,images/br_jasje.png,images/cb_jasje.png,0,,,,,,,,,,,,,,,,,,,,,,
,,,,,,00089,2023-10-25_16h25.24.679,vbt_B1_day2,2022.2.4,MacIntel,58.82352941,,,,,,,,,,,,,,,,,,,,,,,,,,,down,0,3.135,,0.133333333,0.006666667,1,0,0,9.451,0,144,144,49,1,laken,images/br_laken.png,images/cb_laken.png,0,,,,,,,,,,,,,,,,,,,,,,
,,,,,,00089,2023-10-25_16h25.24.679,vbt_B1_day2,2022.2.4,MacIntel,58.82352941,,,,,,,,,,,,,,,,,,,,,,,,,,,down,0,1.018,,0.126666667,0.007777778,1,0,0,1.083,0,145,145,39,1,laag,images/br_laag.png,images/cb_laag.png,0,,,,,,,,,,,,,,,,,,,,,,
,,,,,,00089,2023-10-25_16h25.24.679,vbt_B1_day2,2022.2.4,MacIntel,58.82352941,,,,,,,,,,,,,,,,,,,,,,,,,,,down,0,5.634,,0.127777778,0.006666667,1,0,0,0.7,0,146,146,5,1,blad,images/br_blad.png,images/cb_blad.png,0,,,,,,,,,,,,,,,,,,,,,,
,,,,,,00089,2023-10-25_16h25.24.679,vbt_B1_day2,2022.2.4,MacIntel,58.82352941,,,,,,,,,,,,,,,,,,,,,,,,,,,down,0,0.142,,0.127777778,0.006666667,1,0,0,0.566,0,147,147,110,1,zuster,images/br_zuster.png,images/cb_zuster.png,0,,,,,,,,,,,,,,,,,,,,,,
,,,,,,00089,2023-10-25_16h25.24.679,vbt_B1_day2,2022.2.4,MacIntel,58.82352941,,,,,,,,,,,,,,,,,,,,,,,,,,,down,0,3.273,,0.127777778,0.006666667,1,0,0,1.501,0,148,148,193,1,weeshuis,images/br_weeshuis.png,images/cb_weeshuis.png,0,,,,,,,,,,,,,,,,,,,,,,
,,,,,,00089,2023-10-25_16h25.24.679,vbt_B1_day2,2022.2.4,MacIntel,58.82352941,,,,,,,,,,,,,,,,,,,,,,,,,,,down,0,9.273,,0.127777778,0.006666667,1,0,0,0.467,0,149,149,86,1,woning,images/br_woning.png,images/cb_woning.png,0,,,,,,,,,,,,,,,,,,,,,,
,,,,,,00089,2023-10-25_16h25.24.679,vbt_B1_day2,2022.2.4,MacIntel,58.82352941,,,,,,,,,,,,,,,,,,,,,,,,,,,down,0,3.217,,0.126666667,0.006666667,1,0,0,1.9,0,150,150,95,1,vreten,images/br_vreten.png,images/cb_vreten.png,0,,,,,,,,,,,,,,,,,,,,,,
,,,,,,00089,2023-10-25_16h25.24.679,vbt_B1_day2,2022.2.4,MacIntel,58.82352941,,,,,,,,,,,,,,,,,,,,,,,,,,,down,0,1.237,,0.126666667,0.006666667,1,0,0,0.683,0,151,151,55,1,praat,images/br_praat.png,images/cb_praat.png,0,,,,,,,,,,,,,,,,,,,,,,
,,,,,,00089,2023-10-25_16h25.24.679,vbt_B1_day2,2022.2.4,MacIntel,58.82352941,,,,,,,,,,,,,,,,,,,,,,,,,,,down,0,4.852,,0.128888889,-0.015555556,1,0,0,1.267,0,152,152,84,1,lokken,images/br_lokken.png,images/cb_lokken.png,0,,,,,,,,,,,,,,,,,,,,,,
,,,,,,00089,2023-10-25_16h25.24.679,vbt_B1_day2,2022.2.4,MacIntel,58.82352941,,,,,,,,,,,,,,,,,,,,,,,,,,,down,0,3.704,,0.122222222,-0.011111111,1,0,0,0.417,0,153,153,1,1,zaal,images/br_zaal.png,images/cb_zaal.png,0,,,,,,,,,,,,,,,,,,,,,,
,,,,,,00089,2023-10-25_16h25.24.679,vbt_B1_day2,2022.2.4,MacIntel,58.82352941,,,,,,,,,,,,,,,,,,,,,,,,,,,down,0,11.442,,0.046666667,-0.003333333,1,0,0,0.566,0,154,154,37,1,mijn,images/br_mijn.png,images/cb_mijn.png,0,,,,,,,,,,,,,,,,,,,,,,
,,,,,,00089,2023-10-25_16h25.24.679,vbt_B1_day2,2022.2.4,MacIntel,58.82352941,,,,,,,,,,,,,,,,,,,,,,,,,,,down,0,6.168,,0.044444444,-0.002222222,1,0,0,0.434,0,155,155,167,1,eenhoorn,images/br_eenhoorn.png,images/cb_eenhoorn.png,0,,,,,,,,,,,,,,,,,,,,,,
,,,,,,00089,2023-10-25_16h25.24.679,vbt_B1_day2,2022.2.4,MacIntel,58.82352941,,,,,,,,,,,,,,,,,,,,,,,,,,,down,0,6.686,,0.042222222,-0.002222222,1,0,0,0.951,0,156,156,149,1,redding,images/br_redding.png,images/cb_redding.png,0,,,,,,,,,,,,,,,,,,,,,,
,,,,,,00089,2023-10-25_16h25.24.679,vbt_B1_day2,2022.2.4,MacIntel,58.82352941,,,,,,,,,,,,,,,,,,,,,,,,,,,down,0,1.151,,0.028888889,0.006666667,1,0,0,1.384,0,157,157,90,1,geluid,images/br_geluid.png,images/cb_geluid.png,0,,,,,,,,,,,,,,,,,,,,,,
,,,,,,00089,2023-10-25_16h25.24.679,vbt_B1_day2,2022.2.4,MacIntel,58.82352941,,,,,,,,,,,,,,,,,,,,,,,,,,,down,0,0.552,,0.028888889,0.006666667,1,0,0,0.501,0,158,158,43,1,klauw,images/br_klauw.png,images/cb_klauw.png,0,,,,,,,,,,,,,,,,,,,,,,
,,,,,,00089,2023-10-25_16h25.24.679,vbt_B1_day2,2022.2.4,MacIntel,58.82352941,,,,,,,,,,,,,,,,,,,,,,,,,,,down,0,11.852,,0.028888889,0.006666667,1,0,0,0.467,0,159,159,64,1,wegen,images/br_wegen.png,images/cb_wegen.png,0,,,,,,,,,,,,,,,,,,,,,,
,,,,,,00089,2023-10-25_16h25.24.679,vbt_B1_day2,2022.2.4,MacIntel,58.82352941,,,,,,,,,,,,,,,,,,,,,,,,,,,down,0,0.788,,0.103333333,0,1,0,0,0.551,0,160,160,27,1,dans,images/br_dans.png,images/cb_dans.png,0,,,,,,,,,,,,,,,,,,,,,,
,,,,,,00089,2023-10-25_16h25.24.679,vbt_B1_day2,2022.2.4,MacIntel,58.82352941,,,,,,,,,,,,,,,,,,,,,,,,,,,down,0,1.784,,0.097777778,0.004444444,1,0,0,5.367,0,161,161,140,1,blijven,images/br_blijven.png,images/cb_blijven.png,0,,,,,,,,,,,,,,,,,,,,,,
,,,,,,00089,2023-10-25_16h25.24.679,vbt_B1_day2,2022.2.4,MacIntel,58.82352941,,,,,,,,,,,,,,,,,,,,,,,,,,,down,0,0.816,,0.097777778,0.004444444,1,0,0,0.633,0,162,162,7,1,geld,images/br_geld.png,images/cb_geld.png,0,,,,,,,,,,,,,,,,,,,,,,
,,,,,,00089,2023-10-25_16h25.24.679,vbt_B1_day2,2022.2.4,MacIntel,58.82352941,,,,,,,,,,,,,,,,,,,,,,,,,,,down,0,1.435,,0.097777778,0.004444444,1,0,0,1.417,0,163,163,36,1,vuur,images/br_vuur.png,images/cb_vuur.png,0,,,,,,,,,,,,,,,,,,,,,,
,,,,,,00089,2023-10-25_16h25.24.679,vbt_B1_day2,2022.2.4,MacIntel,58.82352941,,,,,,,,,,,,,,,,,,,,,,,,,,,down,0,4.625,,0.097777778,0.004444444,1,0,0,27.102,0,164,164,2,1,jaar,images/br_jaar.png,images/cb_jaar.png,0,,,,,,,,,,,,,,,,,,,,,,
,,,,,,00089,2023-10-25_16h25.24.679,vbt_B1_day2,2022.2.4,MacIntel,58.82352941,,,,,,,,,,,,,,,,,,,,,,,,,,,down,0,11.65,,0,0.002222222,1,0,0,0.567,0,165,165,30,1,uien,images/br_uien.png,images/cb_uien.png,0,,,,,,,,,,,,,,,,,,,,,,
,,,,,,00089,2023-10-25_16h25.24.679,vbt_B1_day2,2022.2.4,MacIntel,58.82352941,,,,,,,,,,,,,,,,,,,,,,,,,,,down,0,1.015,,-0.007777778,-0.002222222,1,0,0,0.6,0,166,166,65,1,parel,images/br_parel.png,images/cb_parel.png,0,,,,,,,,,,,,,,,,,,,,,,
,,,,,,00089,2023-10-25_16h25.24.679,vbt_B1_day2,2022.2.4,MacIntel,58.82352941,,,,,,,,,,,,,,,,,,,,,,,,,,,down,0,5.101,,0.12,0.068888889,1,0,0,1.6,0,167,167,59,1,kring,images/br_kring.png,images/cb_kring.png,1,kring,,,,,,,,,,,,,,,,,,,,,
,,,,,,00089,2023-10-25_16h25.24.679,vbt_B1_day2,2022.2.4,MacIntel,58.82352941,,,,,,,,,,,,,,,,,,,,,,,,,,,down,0,7.12,,0.152222222,0.067777778,1,0,0,0.65,0,168,168,16,1,ziek,images/br_ziek.png,images/cb_ziek.png,1,ziek,,,,,,,,,,,,,,,,,,,,,
,,,,,,00089,2023-10-25_16h25.24.679,vbt_B1_day2,2022.2.4,MacIntel,58.82352941,,,,,,,,,,,,,,,,,,,,,,,,,,,down,0,1.501,,0.151111111,0.06,1,0,0,2.001,0,169,169,13,1,kaal,images/br_kaal.png,images/cb_kaal.png,0,,,,,,,,,,,,,,,,,,,,,,
,,,,,,00089,2023-10-25_16h25.24.679,vbt_B1_day2,2022.2.4,MacIntel,58.82352941,,,,,,,,,,,,,,,,,,,,,,,,,,,down,0,1.317,,0.151111111,0.06,1,0,0,0.767,0,170,170,85,1,heilig,images/br_heilig.png,images/cb_heilig.png,0,,,,,,,,,,,,,,,,,,,,,,
,,,,,,00089,2023-10-25_16h25.24.679,vbt_B1_day2,2022.2.4,MacIntel,58.82352941,,,,,,,,,,,,,,,,,,,,,,,,,,,down,0,0.654,,0.15,0.06,1,0,0,0.6,0,171,171,129,1,verhaal,images/br_verhaal.png,images/cb_verhaal.png,0,,,,,,,,,,,,,,,,,,,,,,
,,,,,,00089,2023-10-25_16h25.24.679,vbt_B1_day2,2022.2.4,MacIntel,58.82352941,,,,,,,,,,,,,,,,,,,,,,,,,,,down,0,1.355,,0.15,0.06,1,0,0,0.517,0,172,172,12,1,kust,images/br_kust.png,images/cb_kust.png,0,,,,,,,,,,,,,,,,,,,,,,
,,,,,,00089,2023-10-25_16h25.24.679,vbt_B1_day2,2022.2.4,MacIntel,58.82352941,,,,,,,,,,,,,,,,,,,,,,,,,,,down,0,5.369,,0.17,0.06,1,0,0,0.634,0,173,173,56,1,traag,images/br_traag.png,images/cb_traag.png,1,traag,,,,,,,,,,,,,,,,,,,,,
,,,,,,00089,2023-10-25_16h25.24.679,vbt_B1_day2,2022.2.4,MacIntel,58.82352941,,,,,,,,,,,,,,,,,,,,,,,,,,,down,0,4.95,,0.165555556,0.051111111,1,0,0,4.75,0,174,174,186,1,voorraad,images/br_voorraad.png,images/cb_voorraad.png,0,,,,,,,,,,,,,,,,,,,,,,
,,,,,,00089,2023-10-25_16h25.24.679,vbt_B1_day2,2022.2.4,MacIntel,58.82352941,,,,,,,,,,,,,,,,,,,,,,,,,,,down,0,1.034,,0.165555556,0.051111111,1,0,0,0.634,0,175,175,133,1,seizoen,images/br_seizoen.png,images/cb_seizoen.png,0,,,,,,,,,,,,,,,,,,,,,,
,,,,,,00089,2023-10-25_16h25.24.679,vbt_B1_day2,2022.2.4,MacIntel,58.82352941,,,,,,,,,,,,,,,,,,,,,,,,,,,down,0,12.818,,0.165555556,0.051111111,1,0,0,0.317,0,176,176,148,1,smullen,images/br_smullen.png,images/cb_smullen.png,0,,,,,,,,,,,,,,,,,,,,,,
,,,,,,00089,2023-10-25_16h25.24.679,vbt_B1_day2,2022.2.4,MacIntel,58.82352941,,,,,,,,,,,,,,,,,,,,,,,,,,,down,0,3.252,,0.165555556,0.051111111,1,0,0,1.367,0,177,177,94,1,oceaan,images/br_oceaan.png,images/cb_oceaan.png,0,,,,,,,,,,,,,,,,,,,,,,
,,,,,,00089,2023-10-25_16h25.24.679,vbt_B1_day2,2022.2.4,MacIntel,58.82352941,,,,,,,,,,,,,,,,,,,,,,,,,,,down,0,2.004,,0.165555556,0.051111111,1,0,0,1.317,0,178,178,184,1,aandelen,images/br_aandelen.png,images/cb_aandelen.png,0,,,,,,,,,,,,,,,,,,,,,,
,,,,,,00089,2023-10-25_16h25.24.679,vbt_B1_day2,2022.2.4,MacIntel,58.82352941,,,,,,,,,,,,,,,,,,,,,,,,,,,down,0,1.702,,0.038888889,0.011111111,1,0,0,0.55,0,179,179,45,1,piste,images/br_piste.png,images/cb_piste.png,0,,,,,,,,,,,,,,,,,,,,,,
,,,,,,00089,2023-10-25_16h25.24.679,vbt_B1_day2,2022.2.4,MacIntel,58.82352941,,,,,,,,,,,,,,,,,,,,,,,,,,,down,0,10.919,,-0.021111111,0.012222222,1,0,0,8.402,0,180,180,46,1,jagen,images/br_jagen.png,images/cb_jagen.png,0,,,,,,,,,,,,,,,,,,,,,,
,,,,,,00089,2023-10-25_16h25.24.679,vbt_B1_day2,2022.2.4,MacIntel,58.82352941,,,,,,,,,,,,,,,,,,,,,,,,,,,down,0,0.1,,-0.034444444,0.005555556,1,0,0,1.5,0,181,181,119,1,liefje,images/br_liefje.png,images/cb_liefje.png,0,,,,,,,,,,,,,,,,,,,,,,
,,,,,,00089,2023-10-25_16h25.24.679,vbt_B1_day2,2022.2.4,MacIntel,58.82352941,,,,,,,,,,,,,,,,,,,,,,,,,,,down,0,4.469,,0.055555556,0.026666667,1,0,0,0.567,0,182,182,19,1,geit,images/br_geit.png,images/cb_geit.png,1,geit,,,,,,,,,,,,,,,,,,,,,
,,,,,,00089,2023-10-25_16h25.24.679,vbt_B1_day2,2022.2.4,MacIntel,58.82352941,,,,,,,,,,,,,,,,,,,,,,,,,,,down,0,0.058,,0.055555556,0.025555556,1,0,0,3.201,0,183,183,22,1,stof,images/br_stof.png,images/cb_stof.png,0,,,,,,,,,,,,,,,,,,,,,,
,,,,,,00089,2023-10-25_16h25.24.679,vbt_B1_day2,2022.2.4,MacIntel,58.82352941,,,,,,,,,,,,,,,,,,,,,,,,,,,down,0,6.576,,-0.09,-0.005555556,1,0,0,2.334,0,184,184,103,1,joggen,images/br_joggen.png,images/cb_joggen.png,0,,,,,,,,,,,,,,,,,,,,,,
,,,,,,00089,2023-10-25_16h25.24.679,vbt_B1_day2,2022.2.4,MacIntel,58.82352941,,,,,,,,,,,,,,,,,,,,,,,,,,,down,0,4.421,,-0.223333333,0.005555556,1,0,0,2.583,0,185,185,143,1,hechten,images/br_hechten.png,images/cb_hechten.png,0,,,,,,,,,,,,,,,,,,,,,,
,,,,,,00089,2023-10-25_16h25.24.679,vbt_B1_day2,2022.2.4,MacIntel,58.82352941,,,,,,,,,,,,,,,,,,,,,,,,,,,down,0,0.684,,-0.223333333,0.005555556,1,0,0,0.95,0,186,186,33,1,vlek,images/br_vlek.png,images/cb_vlek.png,0,,,,,,,,,,,,,,,,,,,,,,
,,,,,,00089,2023-10-25_16h25.24.679,vbt_B1_day2,2022.2.4,MacIntel,58.82352941,,,,,,,,,,,,,,,,,,,,,,,,,,,down,0,4.989,,-0.223333333,0.005555556,1,0,0,0.466,0,187,187,47,1,kabel,images/br_kabel.png,images/cb_kabel.png,0,,,,,,,,,,,,,,,,,,,,,,
,,,,,,00089,2023-10-25_16h25.24.679,vbt_B1_day2,2022.2.4,MacIntel,58.82352941,,,,,,,,,,,,,,,,,,,,,,,,,,,down,0,2.151,,-0.223333333,0.005555556,1,0,0,0.683,0,188,188,63,1,flirt,images/br_flirt.png,images/cb_flirt.png,0,,,,,,,,,,,,,,,,,,,,,,
,,,,,,00089,2023-10-25_16h25.24.679,vbt_B1_day2,2022.2.4,MacIntel,58.82352941,,,,,,,,,,,,,,,,,,,,,,,,,,,down,0,7.255,,-0.223333333,0.005555556,1,0,0,0.567,0,189,189,180,1,openbaar,images/br_openbaar.png,images/cb_openbaar.png,0,,,,,,,,,,,,,,,,,,,,,,
,,,,,,00089,2023-10-25_16h25.24.679,vbt_B1_day2,2022.2.4,MacIntel,58.82352941,,,,,,,,,,,,,,,,,,,,,,,,,,,down,0,0.22,,-0.223333333,0.005555556,1,0,0,1.333,0,190,190,38,1,baai,images/br_baai.png,images/cb_baai.png,0,,,,,,,,,,,,,,,,,,,,,,
,,,,,,00089,2023-10-25_16h25.24.679,vbt_B1_day2,2022.2.4,MacIntel,58.82352941,,,,,,,,,,,,,,,,,,,,,,,,,,,down,0,5.917,,-0.223333333,0.005555556,1,0,0,1.65,0,191,191,195,1,middelen,images/br_middelen.png,images/cb_middelen.png,0,,,,,,,,,,,,,,,,,,,,,,
,,,,,,00089,2023-10-25_16h25.24.679,vbt_B1_day2,2022.2.4,MacIntel,58.82352941,,,,,,,,,,,,,,,,,,,,,,,,,,,down,0,1.033,,-0.223333333,0.005555556,1,0,0,1.834,0,192,192,35,1,lust,images/br_lust.png,images/cb_lust.png,0,,,,,,,,,,,,,,,,,,,,,,
,,,,,,00089,2023-10-25_16h25.24.679,vbt_B1_day2,2022.2.4,MacIntel,58.82352941,,,,,,,,,,,,,,,,,,,,,,,,,,,down,0,1.966,,-0.223333333,0.005555556,1,0,0,1.117,0,193,193,154,1,aflopen,images/br_aflopen.png,images/cb_aflopen.png,0,,,,,,,,,,,,,,,,,,,,,,
,,,,,,00089,2023-10-25_16h25.24.679,vbt_B1_day2,2022.2.4,MacIntel,58.82352941,,,,,,,,,,,,,,,,,,,,,,,,,,,down,0,12.506,,0.001111111,0.026666667,1,0,0,0.534,0,194,194,136,1,waarbij,images/br_waarbij.png,images/cb_waarbij.png,1,waarbij,,,,,,,,,,,,,,,,,,,,,
,,,,,,00089,2023-10-25_16h25.24.679,vbt_B1_day2,2022.2.4,MacIntel,58.82352941,,,,,,,,,,,,,,,,,,,,,,,,,,,down,0,0.534,,0.002222222,0.026666667,1,0,0,1.516,0,195,195,142,1,snuiven,images/br_snuiven.png,images/cb_snuiven.png,0,,,,,,,,,,,,,,,,,,,,,,
,,,,,,00089,2023-10-25_16h25.24.679,vbt_B1_day2,2022.2.4,MacIntel,58.82352941,,,,,,,,,,,,,,,,,,,,,,,,,,,down,0,3.534,,0.001111111,0.027777778,1,0,0,0.55,0,196,196,131,1,opzicht,images/br_opzicht.png,images/cb_opzicht.png,0,,,,,,,,,,,,,,,,,,,,,,
,,,,,,00089,2023-10-25_16h25.24.679,vbt_B1_day2,2022.2.4,MacIntel,58.82352941,,,,,,,,,,,,,,,,,,,,,,,,,,,down,0,2.617,,0.001111111,0.027777778,1,0,0,1.717,0,197,197,87,1,toeval,images/br_toeval.png,images/cb_toeval.png,0,,,,,,,,,,,,,,,,,,,,,,
,,,,,,00089,2023-10-25_16h25.24.679,vbt_B1_day2,2022.2.4,MacIntel,58.82352941,,,,,,,,,,,,,,,,,,,,,,,,,,,down,0,11.252,,0.262222222,0.021111111,1,0,0,0.8,0,198,198,98,1,kreeft,images/br_kreeft.png,images/cb_kreeft.png,1,kreeft,,,,,,,,,,,,,,,,,,,,,
,,,,,,00089,2023-10-25_16h25.24.679,vbt_B1_day2,2022.2.4,MacIntel,58.82352941,,,,,,,,,,,,,,,,,,,,,,,,,,,down,0,1.217,,0.207777778,-0.07,1,0,0,2.1,0,199,199,112,1,lukken,images/br_lukken.png,images/cb_lukken.png,0,,,,,,,,,,,,,,,,,,,,,,
,,,,,,00089,2023-10-25_16h25.24.679,vbt_B1_day2,2022.2.4,MacIntel,58.82352941,,,,,,,,,,,,,,,,,,,,,,,,,,,,,,,,,,,,,,,,,,,,,,,0.305555556,0.041111111,1,0,0,,,,,,,,,,,,,,,,
,,,,,,00089,2023-10-25_16h25.24.679,vbt_B1_day2,2022.2.4,MacIntel,58.82352941,,,,,,,,,,,,,,,,,,,,,,,,,,,,,,,,,,,,,,,,,,,,,,,,,,,,0.306666667,0.036666667,1,0,0,,,,,,,,,,,
,,,,,,00089,2023-10-25_16h25.24.679,vbt_B1_day2,2022.2.4,MacIntel,58.82352941,,,,,,,,,,,,,,,,,,,,,,,,,,,,,,,,,,,,,,,,,,manieren,images/br_manieren.png,images/cb_manieren.png,,manie...,,,,,,,,,,,0.325555556,0.045555556,1,0,0,manie...,0,0,0,56,1
,,,,,,00089,2023-10-25_16h25.24.679,vbt_B1_day2,2022.2.4,MacIntel,58.82352941,,,,,,,,,,,,,,,,,,,,,,,,,,,,,,,,,,,,,,,,,,eenhoorn,images/br_eenhoorn.png,images/cb_eenhoorn.png,,eenhoorn,,,,,,,,,,,0.385555556,0.034444444,1,0,0,eenhoorn,0,1,1,19,1
,,,,,,00089,2023-10-25_16h25.24.679,vbt_B1_day2,2022.2.4,MacIntel,58.82352941,,,,,,,,,,,,,,,,,,,,,,,,,,,,,,,,,,,,,,,,,,piste,images/br_piste.png,images/cb_piste.png,,piste,,,,,,,,,,,0.414444444,0.038888889,1,0,0,piste,0,2,2,5,1
,,,,,,00089,2023-10-25_16h25.24.679,vbt_B1_day2,2022.2.4,MacIntel,58.82352941,,,,,,,,,,,,,,,,,,,,,,,,,,,,,,,,,,,,,,,,,,joes,images/br_joes.png,images/cb_joes.png,,poes,,,,,,,,,,,0.344444444,0.055555556,1,0,0,poes,0,3,3,20,1
,,,,,,00089,2023-10-25_16h25.24.679,vbt_B1_day2,2022.2.4,MacIntel,58.82352941,,,,,,,,,,,,,,,,,,,,,,,,,,,,,,,,,,,,,,,,,,systeem,images/br_systeem.png,images/cb_systeem.png,,syst...,,,,,,,,,,,0.253333333,-0.115555556,1,0,0,syst...,0,4,4,54,1
,,,,,,00089,2023-10-25_16h25.24.679,vbt_B1_day2,2022.2.4,MacIntel,58.82352941,,,,,,,,,,,,,,,,,,,,,,,,,,,,,,,,,,,,,,,,,,clan,images/br_clan.png,images/cb_clan.png,,blan,,,,,,,,,,,0.34,-0.115555556,1,0,0,blan,0,5,5,40,1
,,,,,,00089,2023-10-25_16h25.24.679,vbt_B1_day2,2022.2.4,MacIntel,58.82352941,,,,,,,,,,,,,,,,,,,,,,,,,,,,,,,,,,,,,,,,,,sora,images/br_sora.png,images/cb_sora.png,,sora,,,,,,,,,,,0.343333333,-0.115555556,1,0,0,sora,0,6,6,22,1
,,,,,,00089,2023-10-25_16h25.24.679,vbt_B1_day2,2022.2.4,MacIntel,58.82352941,,,,,,,,,,,,,,,,,,,,,,,,,,,,,,,,,,,,,,,,,,zomers,images/br_zomers.png,images/cb_zomers.png,,zomie..,,,,,,,,,,,0.196666667,-0.094444444,1,0,0,zomie..,0,7,7,48,1
,,,,,,00089,2023-10-25_16h25.24.679,vbt_B1_day2,2022.2.4,MacIntel,58.82352941,,,,,,,,,,,,,,,,,,,,,,,,,,,,,,,,,,,,,,,,,,koorts,images/br_koorts.png,images/cb_koorts.png,,koorts,,,,,,,,,,,0.197777778,-0.094444444,1,0,0,koorts,0,8,8,50,1
,,,,,,00089,2023-10-25_16h25.24.679,vbt_B1_day2,2022.2.4,MacIntel,58.82352941,,,,,,,,,,,,,,,,,,,,,,,,,,,,,,,,,,,,,,,,,,dode,images/br_dode.png,images/cb_dode.png,,dode,,,,,,,,,,,0.191111111,-0.091111111,1,0,0,dode,0,9,9,41,1
,,,,,,00089,2023-10-25_16h25.24.679,vbt_B1_day2,2022.2.4,MacIntel,58.82352941,,,,,,,,,,,,,,,,,,,,,,,,,,,,,,,,,,,,,,,,,,zegel,images/br_zegel.png,images/cb_zegel.png,,zegel,,,,,,,,,,,0.218888889,-0.082222222,1,0,0,zegel,0,10,10,46,1
,,,,,,00089,2023-10-25_16h25.24.679,vbt_B1_day2,2022.2.4,MacIntel,58.82352941,,,,,,,,,,,,,,,,,,,,,,,,,,,,,,,,,,,,,,,,,,strikken,images/br_strikken.png,images/cb_strikken.png,,strem...,,,,,,,,,,,0.353333333,-0.003333333,1,0,0,strem...,0,11,11,18,1
,,,,,,00089,2023-10-25_16h25.24.679,vbt_B1_day2,2022.2.4,MacIntel,58.82352941,,,,,,,,,,,,,,,,,,,,,,,,,,,,,,,,,,,,,,,,,,thema,images/br_thema.png,images/cb_thema.png,,them...,,,,,,,,,,,0.332222222,0.018888889,1,0,0,them...,0,12,12,47,1
,,,,,,00089,2023-10-25_16h25.24.679,vbt_B1_day2,2022.2.4,MacIntel,58.82352941,,,,,,,,,,,,,,,,,,,,,,,,,,,,,,,,,,,,,,,,,,feestdag,images/br_feestdag.png,images/cb_feestdag.png,,"feest...
",,,,,,,,,,,0.333333333,0.018888889,1,0,0,"feest...
",0,13,13,17,1
,,,,,,00089,2023-10-25_16h25.24.679,vbt_B1_day2,2022.2.4,MacIntel,58.82352941,,,,,,,,,,,,,,,,,,,,,,,,,,,,,,,,,,,,,,,,,,prekken,images/br_prekken.png,images/cb_prekken.png,,prikken,,,,,,,,,,,0.371111111,0.034444444,1,0,0,prikken,0,14,14,34,1
,,,,,,00089,2023-10-25_16h25.24.679,vbt_B1_day2,2022.2.4,MacIntel,58.82352941,,,,,,,,,,,,,,,,,,,,,,,,,,,,,,,,,,,,,,,,,,welzijn,images/br_welzijn.png,images/cb_welzijn.png,,"welzijn
",,,,,,,,,,,0.461111111,-0.222222222,1,0,0,"welzijn
",0,15,15,52,1
,,,,,,00089,2023-10-25_16h25.24.679,vbt_B1_day2,2022.2.4,MacIntel,58.82352941,,,,,,,,,,,,,,,,,,,,,,,,,,,,,,,,,,,,,,,,,,lijnen,images/br_lijnen.png,images/cb_lijnen.png,,lijnen,,,,,,,,,,,0.478888889,-0.22,1,0,0,lijnen,0,16,16,51,1
,,,,,,00089,2023-10-25_16h25.24.679,vbt_B1_day2,2022.2.4,MacIntel,58.82352941,,,,,,,,,,,,,,,,,,,,,,,,,,,,,,,,,,,,,,,,,,tand,images/br_tand.png,images/cb_tand.png,,tand,,,,,,,,,,,0.396666667,-0.192222222,1,0,0,tand,0,17,17,42,1
,,,,,,00089,2023-10-25_16h25.24.679,vbt_B1_day2,2022.2.4,MacIntel,58.82352941,,,,,,,,,,,,,,,,,,,,,,,,,,,,,,,,,,,,,,,,,,geld,images/br_geld.png,images/cb_geld.png,,geld,,,,,,,,,,,0.396666667,-0.192222222,1,0,0,geld,0,18,18,3,1
,,,,,,00089,2023-10-25_16h25.24.679,vbt_B1_day2,2022.2.4,MacIntel,58.82352941,,,,,,,,,,,,,,,,,,,,,,,,,,,,,,,,,,,,,,,,,,sjijfel,images/br_sjijfel.png,images/cb_sjijfel.png,,sjij...,,,,,,,,,,,0.276666667,-0.25,1,0,0,sjij...,0,19,19,33,1
,,,,,,00089,2023-10-25_16h25.24.679,vbt_B1_day2,2022.2.4,MacIntel,58.82352941,,,,,,,,,,,,,,,,,,,,,,,,,,,,,,,,,,,,,,,,,,aanzien,images/br_aanzien.png,images/cb_aanzien.png,,aanze,,,,,,,,,,,0.222222222,-0.268888889,1,0,0,aanze,0,20,20,13,1
,,,,,,00089,2023-10-25_16h25.24.679,vbt_B1_day2,2022.2.4,MacIntel,58.82352941,,,,,,,,,,,,,,,,,,,,,,,,,,,,,,,,,,,,,,,,,,trots,images/br_trots.png,images/cb_trots.png,,trots,,,,,,,,,,,0.291111111,-0.242222222,1,0,0,trots,0,21,21,44,1
,,,,,,00089,2023-10-25_16h25.24.679,vbt_B1_day2,2022.2.4,MacIntel,58.82352941,,,,,,,,,,,,,,,,,,,,,,,,,,,,,,,,,,,,,,,,,,remel,images/br_remel.png,images/cb_remel.png,,remel,,,,,,,,,,,0.327777778,-0.242222222,1,0,0,remel,0,22,22,25,1
,,,,,,00089,2023-10-25_16h25.24.679,vbt_B1_day2,2022.2.4,MacIntel,58.82352941,,,,,,,,,,,,,,,,,,,,,,,,,,,,,,,,,,,,,,,,,,flits,images/br_flits.png,images/cb_flits.png,,flits,,,,,,,,,,,0.327777778,-0.242222222,1,0,0,flits,0,23,23,4,1
,,,,,,00089,2023-10-25_16h25.24.679,vbt_B1_day2,2022.2.4,MacIntel,58.82352941,,,,,,,,,,,,,,,,,,,,,,,,,,,,,,,,,,,,,,,,,,opdatten,images/br_opdatten.png,images/cb_opdatten.png,,op......,,,,,,,,,,,0.327777778,-0.242222222,1,0,0,op......,0,24,24,37,1
,,,,,,00089,2023-10-25_16h25.24.679,vbt_B1_day2,2022.2.4,MacIntel,58.82352941,,,,,,,,,,,,,,,,,,,,,,,,,,,,,,,,,,,,,,,,,,plannen,images/br_plannen.png,images/cb_plannen.png,,plannen,,,,,,,,,,,0.328888889,-0.242222222,1,0,0,plannen,0,25,25,55,1
,,,,,,00089,2023-10-25_16h25.24.679,vbt_B1_day2,2022.2.4,MacIntel,58.82352941,,,,,,,,,,,,,,,,,,,,,,,,,,,,,,,,,,,,,,,,,,stes,images/br_stes.png,images/cb_stes.png,,stes,,,,,,,,,,,0.332222222,-0.24,1,0,0,stes,0,26,26,21,1
,,,,,,00089,2023-10-25_16h25.24.679,vbt_B1_day2,2022.2.4,MacIntel,58.82352941,,,,,,,,,,,,,,,,,,,,,,,,,,,,,,,,,,,,,,,,,,moes,images/br_moes.png,images/cb_moes.png,,moes,,,,,,,,,,,0.326666667,-0.238888889,1,0,0,moes,0,27,27,0,1
,,,,,,00089,2023-10-25_16h25.24.679,vbt_B1_day2,2022.2.4,MacIntel,58.82352941,,,,,,,,,,,,,,,,,,,,,,,,,,,,,,,,,,,,,,,,,,zwager,images/br_zwager.png,images/cb_zwager.png,,zwa,,,,,,,,,,,0.348888889,-0.251111111,1,0,0,zwa,0,28,28,49,1
,,,,,,00089,2023-10-25_16h25.24.679,vbt_B1_day2,2022.2.4,MacIntel,58.82352941,,,,,,,,,,,,,,,,,,,,,,,,,,,,,,,,,,,,,,,,,,blad,images/br_blad.png,images/cb_blad.png,,blad,,,,,,,,,,,0.351111111,-0.251111111,1,0,0,blad,0,29,29,1,1
,,,,,,00089,2023-10-25_16h25.24.679,vbt_B1_day2,2022.2.4,MacIntel,58.82352941,,,,,,,,,,,,,,,,,,,,,,,,,,,,,,,,,,,,,,,,,,kijlen,images/br_kijlen.png,images/cb_kijlen.png,,kijl...,,,,,,,,,,,0.023333333,-0.248888889,1,0,0,kijl...,0,30,30,31,1
,,,,,,00089,2023-10-25_16h25.24.679,vbt_B1_day2,2022.2.4,MacIntel,58.82352941,,,,,,,,,,,,,,,,,,,,,,,,,,,,,,,,,,,,,,,,,,heilig,images/br_heilig.png,images/cb_heilig.png,,hiel...,,,,,,,,,,,0.085555556,-0.287777778,1,0,0,hiel...,0,31,31,9,1
,,,,,,00089,2023-10-25_16h25.24.679,vbt_B1_day2,2022.2.4,MacIntel,58.82352941,,,,,,,,,,,,,,,,,,,,,,,,,,,,,,,,,,,,,,,,,,toeval,images/br_toeval.png,images/cb_toeval.png,,toeval,,,,,,,,,,,0.118888889,-0.287777778,1,0,0,toeval,0,32,32,11,1
,,,,,,00089,2023-10-25_16h25.24.679,vbt_B1_day2,2022.2.4,MacIntel,58.82352941,,,,,,,,,,,,,,,,,,,,,,,,,,,,,,,,,,,,,,,,,,jagen,images/br_jagen.png,images/cb_jagen.png,,dagen,,,,,,,,,,,0.116666667,-0.294444444,1,0,0,dagen,0,33,33,6,1
,,,,,,00089,2023-10-25_16h25.24.679,vbt_B1_day2,2022.2.4,MacIntel,58.82352941,,,,,,,,,,,,,,,,,,,,,,,,,,,,,,,,,,,,,,,,,,diep,images/br_diep.png,images/cb_diep.png,,diep,,,,,,,,,,,0.208888889,-0.34,1,0,0,diep,0,34,34,2,1
,,,,,,00089,2023-10-25_16h25.24.679,vbt_B1_day2,2022.2.4,MacIntel,58.82352941,,,,,,,,,,,,,,,,,,,,,,,,,,,,,,,,,,,,,,,,,,tweeling,images/br_tweeling.png,images/cb_tweeling.png,,tweemaal,,,,,,,,,,,0.255555556,-0.297777778,1,0,0,tweemaal,0,35,35,58,1
,,,,,,00089,2023-10-25_16h25.24.679,vbt_B1_day2,2022.2.4,MacIntel,58.82352941,,,,,,,,,,,,,,,,,,,,,,,,,,,,,,,,,,,,,,,,,,sifferd,images/br_sifferd.png,images/cb_sifferd.png,,sif,,,,,,,,,,,0.304444444,-0.341111111,1,0,0,sif,0,36,36,32,1
,,,,,,00089,2023-10-25_16h25.24.679,vbt_B1_day2,2022.2.4,MacIntel,58.82352941,,,,,,,,,,,,,,,,,,,,,,,,,,,,,,,,,,,,,,,,,,inzicht,images/br_inzicht.png,images/cb_inzicht.png,,i,,,,,,,,,,,0.301111111,-0.343333333,1,0,0,i,0,37,37,53,1
,,,,,,00089,2023-10-25_16h25.24.679,vbt_B1_day2,2022.2.4,MacIntel,58.82352941,,,,,,,,,,,,,,,,,,,,,,,,,,,,,,,,,,,,,,,,,,breuk,images/br_breuk.png,images/cb_breuk.png,,bruik,,,,,,,,,,,0.106666667,-0.29,1,0,0,bruik,0,38,38,45,1
,,,,,,00089,2023-10-25_16h25.24.679,vbt_B1_day2,2022.2.4,MacIntel,58.82352941,,,,,,,,,,,,,,,,,,,,,,,,,,,,,,,,,,,,,,,,,,bereuwen,images/br_bereuwen.png,images/cb_bereuwen.png,,berui,,,,,,,,,,,0.112222222,-0.292222222,1,0,0,berui,0,39,39,39,1
,,,,,,00089,2023-10-25_16h25.24.679,vbt_B1_day2,2022.2.4,MacIntel,58.82352941,,,,,,,,,,,,,,,,,,,,,,,,,,,,,,,,,,,,,,,,,,lurgen,images/br_lurgen.png,images/cb_lurgen.png,,lurd,,,,,,,,,,,0.048888889,-0.294444444,1,0,0,lurd,0,40,40,29,1
,,,,,,00089,2023-10-25_16h25.24.679,vbt_B1_day2,2022.2.4,MacIntel,58.82352941,,,,,,,,,,,,,,,,,,,,,,,,,,,,,,,,,,,,,,,,,,kenzis,images/br_kenzis.png,images/cb_kenzis.png,,kenz,,,,,,,,,,,0.032222222,-0.283333333,1,0,0,kenz,0,41,41,30,1
,,,,,,00089,2023-10-25_16h25.24.679,vbt_B1_day2,2022.2.4,MacIntel,58.82352941,,,,,,,,,,,,,,,,,,,,,,,,,,,,,,,,,,,,,,,,,,ophuimen,images/br_ophuimen.png,images/cb_ophuimen.png,,ophu,,,,,,,,,,,0.02,-0.263333333,1,0,0,ophu,0,42,42,36,1
,,,,,,00089,2023-10-25_16h25.24.679,vbt_B1_day2,2022.2.4,MacIntel,58.82352941,,,,,,,,,,,,,,,,,,,,,,,,,,,,,,,,,,,,,,,,,,kasteel,images/br_kasteel.png,images/cb_kasteel.png,,kasteel,,,,,,,,,,,0.378888889,-0.263333333,1,0,0,kasteel,0,43,43,14,1
,,,,,,00089,2023-10-25_16h25.24.679,vbt_B1_day2,2022.2.4,MacIntel,58.82352941,,,,,,,,,,,,,,,,,,,,,,,,,,,,,,,,,,,,,,,,,,negel,images/br_negel.png,images/cb_negel.png,,negen ,,,,,,,,,,,0.315555556,-0.267777778,1,0,0,negen ,0,44,44,24,1
,,,,,,00089,2023-10-25_16h25.24.679,vbt_B1_day2,2022.2.4,MacIntel,58.82352941,,,,,,,,,,,,,,,,,,,,,,,,,,,,,,,,,,,,,,,,,,anarchie,images/br_anarchie.png,images/cb_anarchie.png,,ana,,,,,,,,,,,0.365555556,-0.217777778,1,0,0,ana,0,45,45,16,1
,,,,,,00089,2023-10-25_16h25.24.679,vbt_B1_day2,2022.2.4,MacIntel,58.82352941,,,,,,,,,,,,,,,,,,,,,,,,,,,,,,,,,,,,,,,,,,goon,images/br_goon.png,images/cb_goon.png,,goon,,,,,,,,,,,0.448888889,-0.213333333,1,0,0,goon,0,46,46,23,1
,,,,,,00089,2023-10-25_16h25.24.679,vbt_B1_day2,2022.2.4,MacIntel,58.82352941,,,,,,,,,,,,,,,,,,,,,,,,,,,,,,,,,,,,,,,,,,kabel,images/br_kabel.png,images/cb_kabel.png,,kabel,,,,,,,,,,,0.487777778,-0.104444444,1,0,0,kabel,0,47,47,7,1
,,,,,,00089,2023-10-25_16h25.24.679,vbt_B1_day2,2022.2.4,MacIntel,58.82352941,,,,,,,,,,,,,,,,,,,,,,,,,,,,,,,,,,,,,,,,,,wijve,images/br_wijve.png,images/cb_wijve.png,,wijlen,,,,,,,,,,,0.466666667,-0.124444444,1,0,0,wijlen,0,48,48,27,1
,,,,,,00089,2023-10-25_16h25.24.679,vbt_B1_day2,2022.2.4,MacIntel,58.82352941,,,,,,,,,,,,,,,,,,,,,,,,,,,,,,,,,,,,,,,,,,heengeen,images/br_heengeen.png,images/cb_heengeen.png,,heen,,,,,,,,,,,0.432222222,-0.114444444,1,0,0,heen,0,49,49,38,1
,,,,,,00089,2023-10-25_16h25.24.679,vbt_B1_day2,2022.2.4,MacIntel,58.82352941,,,,,,,,,,,,,,,,,,,,,,,,,,,,,,,,,,,,,,,,,,woning,images/br_woning.png,images/cb_woning.png,,woning,,,,,,,,,,,0.421111111,-0.106666667,1,0,0,woning,0,50,50,10,1
,,,,,,00089,2023-10-25_16h25.24.679,vbt_B1_day2,2022.2.4,MacIntel,58.82352941,,,,,,,,,,,,,,,,,,,,,,,,,,,,,,,,,,,,,,,,,,badon,images/br_badon.png,images/cb_badon.png,,baron,,,,,,,,,,,0.42,-0.105555556,1,0,0,baron,0,51,51,26,1
,,,,,,00089,2023-10-25_16h25.24.679,vbt_B1_day2,2022.2.4,MacIntel,58.82352941,,,,,,,,,,,,,,,,,,,,,,,,,,,,,,,,,,,,,,,,,,doodmoe,images/br_doodmoe.png,images/cb_doodmoe.png,,dood,,,,,,,,,,,0.406666667,-0.105555556,1,0,0,dood,0,52,52,15,1
,,,,,,00089,2023-10-25_16h25.24.679,vbt_B1_day2,2022.2.4,MacIntel,58.82352941,,,,,,,,,,,,,,,,,,,,,,,,,,,,,,,,,,,,,,,,,,krimmen,images/br_krimmen.png,images/cb_krimmen.png,,krimm,,,,,,,,,,,0.335555556,-0.143333333,1,0,0,krimm,0,53,53,35,1
,,,,,,00089,2023-10-25_16h25.24.679,vbt_B1_day2,2022.2.4,MacIntel,58.82352941,,,,,,,,,,,,,,,,,,,,,,,,,,,,,,,,,,,,,,,,,,jong,images/br_jong.png,images/cb_jong.png,,dong,,,,,,,,,,,0.335555556,-0.143333333,1,0,0,dong,0,54,54,43,1
,,,,,,00089,2023-10-25_16h25.24.679,vbt_B1_day2,2022.2.4,MacIntel,58.82352941,,,,,,,,,,,,,,,,,,,,,,,,,,,,,,,,,,,,,,,,,,aanvraag,images/br_aanvraag.png,images/cb_aanvraag.png,,aanvr,,,,,,,,,,,0.397777778,-0.193333333,1,0,0,aanvr,0,55,55,57,1
,,,,,,00089,2023-10-25_16h25.24.679,vbt_B1_day2,2022.2.4,MacIntel,58.82352941,,,,,,,,,,,,,,,,,,,,,,,,,,,,,,,,,,,,,,,,,,bloeien,images/br_bloeien.png,images/cb_bloeien.png,,bloeien,,,,,,,,,,,0.396666667,-0.193333333,1,0,0,bloeien,0,56,56,12,1
,,,,,,00089,2023-10-25_16h25.24.679,vbt_B1_day2,2022.2.4,MacIntel,58.82352941,,,,,,,,,,,,,,,,,,,,,,,,,,,,,,,,,,,,,,,,,,agressie,images/br_agressie.png,images/cb_agressie.png,,agressief ,,,,,,,,,,,0.396666667,-0.193333333,1,0,0,agressief ,0,57,57,59,1
,,,,,,00089,2023-10-25_16h25.24.679,vbt_B1_day2,2022.2.4,MacIntel,58.82352941,,,,,,,,,,,,,,,,,,,,,,,,,,,,,,,,,,,,,,,,,,ningen,images/br_ningen.png,images/cb_ningen.png,,ningen,,,,,,,,,,,0.201111111,-0.275555556,1,0,0,ningen,0,58,58,28,1
,,,,,,00089,2023-10-25_16h25.24.679,vbt_B1_day2,2022.2.4,MacIntel,58.82352941,,,,,,,,,,,,,,,,,,,,,,,,,,,,,,,,,,,,,,,,,,lokken,images/br_lokken.png,images/cb_lokken.png,,lokken,,,,,,,,,,,0.567777778,-0.173333333,1,0,0,lokken,0,59,59,8,1
,,,,,,00089,2023-10-25_16h25.24.679,vbt_B1_day2,2022.2.4,MacIntel,58.82352941,,,,,,,,,,,,,,,,,,,,,,,,,,,,,,,,,,,,,,,,,,,,,,,,,,,,,,,,,,,,,,,,,,,
