welcome_mouse.x,welcome_mouse.y,welcome_mouse.leftButton,welcome_mouse.midButton,welcome_mouse.rightButton,welcome_mouse.time,"ID",date,expName,psychopyVersion,OS,frameRate,refresh_mouse.x,refresh_mouse.y,refresh_mouse.leftButton,refresh_mouse.midButton,refresh_mouse.rightButton,refresh_mouse.time,braille_mouse.x,braille_mouse.y,braille_mouse.leftButton,braille_mouse.midButton,braille_mouse.rightButton,braille_mouse.time,trials.thisRepN,trials.thisTrialN,trials.thisN,trials.thisIndex,trials.ran,nlLet,brLet,cbLet,trainInstr_mouse.x,trainInstr_mouse.y,trainInstr_mouse.leftButton,trainInstr_mouse.midButton,trainInstr_mouse.rightButton,trainInstr_mouse.time,translation_key.keys,translation_key.corr,translation_key.rt,word_rsp.text,word_mouse.x,word_mouse.y,word_mouse.leftButton,word_mouse.midButton,word_mouse.rightButton,word_mouse.time,train_loop.thisRepN,train_loop.thisTrialN,train_loop.thisN,train_loop.thisIndex,train_loop.ran,nlWrd,brWrd,cbWrd,test,testResp,mouse.x,mouse.y,mouse.leftButton,mouse.midButton,mouse.rightButton,testInstr_mouse.x,testInstr_mouse.y,testInstr_mouse.leftButton,testInstr_mouse.midButton,testInstr_mouse.rightButton,test_mouse.x,test_mouse.y,test_mouse.leftButton,test_mouse.midButton,test_mouse.rightButton,test_response.text,test_loop.thisRepN,test_loop.thisTrialN,test_loop.thisN,test_loop.thisIndex,test_loop.ran
0.049680244,-0.096516791,1,0,0,15.7441,00081,2023-10-24_17h17.43.525,vbt_B1_day2,2022.2.4,MacIntel,59.99880002,,,,,,,,,,,,,,,,,,,,,,,,,,,,,,,,,,,,,,,,,,,,,,,,,,,,,,,,,,,,,,,,,,,
,,,,,,00081,2023-10-24_17h17.43.525,vbt_B1_day2,2022.2.4,MacIntel,59.99880002,0.1603852,-0.070602485,1,0,0,7.4296,,,,,,,,,,,,,,,,,,,,,,,,,,,,,,,,,,,,,,,,,,,,,,,,,,,,,,,,,,,,,
,,,,,,00081,2023-10-24_17h17.43.525,vbt_B1_day2,2022.2.4,MacIntel,59.99880002,,,,,,,0.186771512,0.008660075,1,0,0,3.0661,0,0,0,23,1,x,images/br_x.png,images/cb_x.png,,,,,,,,,,,,,,,,,,,,,,,,,,,,,,,,,,,,,,,,,,,,,,,
,,,,,,00081,2023-10-24_17h17.43.525,vbt_B1_day2,2022.2.4,MacIntel,59.99880002,,,,,,,0.186771512,0.008660075,1,0,0,0.0333,0,1,1,14,1,o,images/br_o.png,images/cb_o.png,,,,,,,,,,,,,,,,,,,,,,,,,,,,,,,,,,,,,,,,,,,,,,,
,,,,,,00081,2023-10-24_17h17.43.525,vbt_B1_day2,2022.2.4,MacIntel,59.99880002,,,,,,,0.047337714,0.046977743,1,0,0,1.5016,0,2,2,12,1,m,images/br_m.png,images/cb_m.png,,,,,,,,,,,,,,,,,,,,,,,,,,,,,,,,,,,,,,,,,,,,,,,
,,,,,,00081,2023-10-24_17h17.43.525,vbt_B1_day2,2022.2.4,MacIntel,59.99880002,,,,,,,0.047850342,0.070595567,1,0,0,1.8335,0,3,3,6,1,g,images/br_g.png,images/cb_g.png,,,,,,,,,,,,,,,,,,,,,,,,,,,,,,,,,,,,,,,,,,,,,,,
,,,,,,00081,2023-10-24_17h17.43.525,vbt_B1_day2,2022.2.4,MacIntel,59.99880002,,,,,,,0.201615736,0.196109212,1,0,0,3.2156,0,4,4,0,1,a,images/br_a.png,images/cb_a.png,,,,,,,,,,,,,,,,,,,,,,,,,,,,,,,,,,,,,,,,,,,,,,,
,,,,,,00081,2023-10-24_17h17.43.525,vbt_B1_day2,2022.2.4,MacIntel,59.99880002,,,,,,,0.19151001,0.203580661,1,0,0,10.6515,0,5,5,18,1,s,images/br_s.png,images/cb_s.png,,,,,,,,,,,,,,,,,,,,,,,,,,,,,,,,,,,,,,,,,,,,,,,
,,,,,,00081,2023-10-24_17h17.43.525,vbt_B1_day2,2022.2.4,MacIntel,59.99880002,,,,,,,0.002177192,-0.01232605,1,0,0,1.5995,0,6,6,24,1,y,images/br_y.png,images/cb_y.png,,,,,,,,,,,,,,,,,,,,,,,,,,,,,,,,,,,,,,,,,,,,,,,
,,,,,,00081,2023-10-24_17h17.43.525,vbt_B1_day2,2022.2.4,MacIntel,59.99880002,,,,,,,0.003268229,0.005664062,1,0,0,1.6842,0,7,7,19,1,t,images/br_t.png,images/cb_t.png,,,,,,,,,,,,,,,,,,,,,,,,,,,,,,,,,,,,,,,,,,,,,,,
,,,,,,00081,2023-10-24_17h17.43.525,vbt_B1_day2,2022.2.4,MacIntel,59.99880002,,,,,,,-0.073674384,0.032088623,1,0,0,3.6829,0,8,8,9,1,j,images/br_j.png,images/cb_j.png,,,,,,,,,,,,,,,,,,,,,,,,,,,,,,,,,,,,,,,,,,,,,,,
,,,,,,00081,2023-10-24_17h17.43.525,vbt_B1_day2,2022.2.4,MacIntel,59.99880002,,,,,,,0.227981364,0.183434855,1,0,0,1.3489,0,9,9,3,1,d,images/br_d.png,images/cb_d.png,,,,,,,,,,,,,,,,,,,,,,,,,,,,,,,,,,,,,,,,,,,,,,,
,,,,,,00081,2023-10-24_17h17.43.525,vbt_B1_day2,2022.2.4,MacIntel,59.99880002,,,,,,,0.228285862,0.183434855,1,0,0,0.182,0,10,10,22,1,w,images/br_w.png,images/cb_w.png,,,,,,,,,,,,,,,,,,,,,,,,,,,,,,,,,,,,,,,,,,,,,,,
,,,,,,00081,2023-10-24_17h17.43.525,vbt_B1_day2,2022.2.4,MacIntel,59.99880002,,,,,,,0.228285862,0.183434855,1,0,0,0.4516,0,11,11,16,1,q,images/br_q.png,images/cb_q.png,,,,,,,,,,,,,,,,,,,,,,,,,,,,,,,,,,,,,,,,,,,,,,,
,,,,,,00081,2023-10-24_17h17.43.525,vbt_B1_day2,2022.2.4,MacIntel,59.99880002,,,,,,,0.085018921,0.059356689,1,0,0,0.797,0,12,12,15,1,p,images/br_p.png,images/cb_p.png,,,,,,,,,,,,,,,,,,,,,,,,,,,,,,,,,,,,,,,,,,,,,,,
,,,,,,00081,2023-10-24_17h17.43.525,vbt_B1_day2,2022.2.4,MacIntel,59.99880002,,,,,,,0.085018921,0.062215101,1,0,0,0.9663,0,13,13,25,1,z,images/br_z.png,images/cb_z.png,,,,,,,,,,,,,,,,,,,,,,,,,,,,,,,,,,,,,,,,,,,,,,,
,,,,,,00081,2023-10-24_17h17.43.525,vbt_B1_day2,2022.2.4,MacIntel,59.99880002,,,,,,,0.010835097,0.064507107,1,0,0,1.1348,0,14,14,17,1,r,images/br_r.png,images/cb_r.png,,,,,,,,,,,,,,,,,,,,,,,,,,,,,,,,,,,,,,,,,,,,,,,
,,,,,,00081,2023-10-24_17h17.43.525,vbt_B1_day2,2022.2.4,MacIntel,59.99880002,,,,,,,0.003300713,-0.000414022,1,0,0,2.2166,0,15,15,5,1,f,images/br_f.png,images/cb_f.png,,,,,,,,,,,,,,,,,,,,,,,,,,,,,,,,,,,,,,,,,,,,,,,
,,,,,,00081,2023-10-24_17h17.43.525,vbt_B1_day2,2022.2.4,MacIntel,59.99880002,,,,,,,-0.033489176,-0.053747423,1,0,0,0.9682,0,16,16,10,1,k,images/br_k.png,images/cb_k.png,,,,,,,,,,,,,,,,,,,,,,,,,,,,,,,,,,,,,,,,,,,,,,,
,,,,,,00081,2023-10-24_17h17.43.525,vbt_B1_day2,2022.2.4,MacIntel,59.99880002,,,,,,,-0.033489176,-0.053747423,1,0,0,2.4812,0,17,17,2,1,c,images/br_c.png,images/cb_c.png,,,,,,,,,,,,,,,,,,,,,,,,,,,,,,,,,,,,,,,,,,,,,,,
,,,,,,00081,2023-10-24_17h17.43.525,vbt_B1_day2,2022.2.4,MacIntel,59.99880002,,,,,,,-0.033489176,-0.053747423,1,0,0,0.533,0,18,18,7,1,h,images/br_h.png,images/cb_h.png,,,,,,,,,,,,,,,,,,,,,,,,,,,,,,,,,,,,,,,,,,,,,,,
,,,,,,00081,2023-10-24_17h17.43.525,vbt_B1_day2,2022.2.4,MacIntel,59.99880002,,,,,,,0.116601698,-0.013650004,1,0,0,1.3159,0,19,19,21,1,v,images/br_v.png,images/cb_v.png,,,,,,,,,,,,,,,,,,,,,,,,,,,,,,,,,,,,,,,,,,,,,,,
,,,,,,00081,2023-10-24_17h17.43.525,vbt_B1_day2,2022.2.4,MacIntel,59.99880002,,,,,,,0.116601698,-0.013650004,1,0,0,0.1642,0,20,20,8,1,i,images/br_i.png,images/cb_i.png,,,,,,,,,,,,,,,,,,,,,,,,,,,,,,,,,,,,,,,,,,,,,,,
,,,,,,00081,2023-10-24_17h17.43.525,vbt_B1_day2,2022.2.4,MacIntel,59.99880002,,,,,,,0.031154175,-0.044012722,1,0,0,0.3491,0,21,21,20,1,u,images/br_u.png,images/cb_u.png,,,,,,,,,,,,,,,,,,,,,,,,,,,,,,,,,,,,,,,,,,,,,,,
,,,,,,00081,2023-10-24_17h17.43.525,vbt_B1_day2,2022.2.4,MacIntel,59.99880002,,,,,,,0.031154175,-0.044012722,1,0,0,0.9981,0,22,22,1,1,b,images/br_b.png,images/cb_b.png,,,,,,,,,,,,,,,,,,,,,,,,,,,,,,,,,,,,,,,,,,,,,,,
,,,,,,00081,2023-10-24_17h17.43.525,vbt_B1_day2,2022.2.4,MacIntel,59.99880002,,,,,,,0.031154175,-0.044012722,1,0,0,0.1334,0,23,23,11,1,l,images/br_l.png,images/cb_l.png,,,,,,,,,,,,,,,,,,,,,,,,,,,,,,,,,,,,,,,,,,,,,,,
,,,,,,00081,2023-10-24_17h17.43.525,vbt_B1_day2,2022.2.4,MacIntel,59.99880002,,,,,,,0.031154175,-0.044012722,1,0,0,0.6996,0,24,24,4,1,e,images/br_e.png,images/cb_e.png,,,,,,,,,,,,,,,,,,,,,,,,,,,,,,,,,,,,,,,,,,,,,,,
,,,,,,00081,2023-10-24_17h17.43.525,vbt_B1_day2,2022.2.4,MacIntel,59.99880002,,,,,,,-0.00933214,-0.132475315,1,0,0,10.2322,0,25,25,13,1,n,images/br_n.png,images/cb_n.png,,,,,,,,,,,,,,,,,,,,,,,,,,,,,,,,,,,,,,,,,,,,,,,
,,,,,,00081,2023-10-24_17h17.43.525,vbt_B1_day2,2022.2.4,MacIntel,59.99880002,,,,,,,,,,,,,,,,,,,,,0.007287394,-0.08874566,1,0,0,53.8692,,,,,,,,,,,,,,,,,,,,,,,,,,,,,,,,,,,,,,,,,
,,,,,,00081,2023-10-24_17h17.43.525,vbt_B1_day2,2022.2.4,MacIntel,59.99880002,,,,,,,,,,,,,,,,,,,,,,,,,,,down,0,7.1619,,0.007287394,-0.08874566,1,0,0,1.2791,0,0,0,38,1,baai,images/br_baai.png,images/cb_baai.png,0,,,,,,,,,,,,,,,,,,,,,,
,,,,,,00081,2023-10-24_17h17.43.525,vbt_B1_day2,2022.2.4,MacIntel,59.99880002,,,,,,,,,,,,,,,,,,,,,,,,,,,down,0,12.8723,,0.007287394,-0.08874566,1,0,0,0.9676,0,1,1,160,1,daarheen,images/br_daarheen.png,images/cb_daarheen.png,0,,,,,,,,,,,,,,,,,,,,,,
,,,,,,00081,2023-10-24_17h17.43.525,vbt_B1_day2,2022.2.4,MacIntel,59.99880002,,,,,,,,,,,,,,,,,,,,,,,,,,,down,0,10.4921,,-0.19335083,-0.000240987,1,0,0,1.1663,0,2,2,158,1,innemen,images/br_innemen.png,images/cb_innemen.png,0,,,,,,,,,,,,,,,,,,,,,,
,,,,,,00081,2023-10-24_17h17.43.525,vbt_B1_day2,2022.2.4,MacIntel,59.99880002,,,,,,,,,,,,,,,,,,,,,,,,,,,down,0,18.1897,,-0.19335083,-0.000240987,1,0,0,1.1164,0,3,3,198,1,bedoelen,images/br_bedoelen.png,images/cb_bedoelen.png,0,,,,,,,,,,,,,,,,,,,,,,
,,,,,,00081,2023-10-24_17h17.43.525,vbt_B1_day2,2022.2.4,MacIntel,59.99880002,,,,,,,,,,,,,,,,,,,,,,,,,,,down,0,20.4908,,0.084662137,-0.0065743,1,0,0,1.0529,0,4,4,181,1,toegeven,images/br_toegeven.png,images/cb_toegeven.png,0,,,,,,,,,,,,,,,,,,,,,,
,,,,,,00081,2023-10-24_17h17.43.525,vbt_B1_day2,2022.2.4,MacIntel,59.99880002,,,,,,,,,,,,,,,,,,,,,,,,,,,down,0,8.2058,,0.092951389,-0.013839993,1,0,0,0.6679,0,5,5,107,1,maling,images/br_maling.png,images/cb_maling.png,0,,,,,,,,,,,,,,,,,,,,,,
,,,,,,00081,2023-10-24_17h17.43.525,vbt_B1_day2,2022.2.4,MacIntel,59.99880002,,,,,,,,,,,,,,,,,,,,,,,,,,,down,0,4.1568,,0.092951389,-0.013839993,1,0,0,1.0988,0,6,6,28,1,stal,images/br_stal.png,images/cb_stal.png,0,,,,,,,,,,,,,,,,,,,,,,
,,,,,,00081,2023-10-24_17h17.43.525,vbt_B1_day2,2022.2.4,MacIntel,59.99880002,,,,,,,,,,,,,,,,,,,,,,,,,,,down,0,6.2547,,0.340618896,0.121140205,1,0,0,1.1178,0,7,7,22,1,stof,images/br_stof.png,images/cb_stof.png,0,,,,,,,,,,,,,,,,,,,,,,
,,,,,,00081,2023-10-24_17h17.43.525,vbt_B1_day2,2022.2.4,MacIntel,59.99880002,,,,,,,,,,,,,,,,,,,,,,,,,,,down,0,13.0399,,0.340618896,0.121140205,1,0,0,1.2518,0,8,8,154,1,aflopen,images/br_aflopen.png,images/cb_aflopen.png,0,,,,,,,,,,,,,,,,,,,,,,
,,,,,,00081,2023-10-24_17h17.43.525,vbt_B1_day2,2022.2.4,MacIntel,59.99880002,,,,,,,,,,,,,,,,,,,,,,,,,,,down,0,15.9715,,0.313160672,-0.064742872,1,0,0,0.5679,0,9,9,108,1,excuus,images/br_excuus.png,images/cb_excuus.png,0,,,,,,,,,,,,,,,,,,,,,,
,,,,,,00081,2023-10-24_17h17.43.525,vbt_B1_day2,2022.2.4,MacIntel,59.99880002,,,,,,,,,,,,,,,,,,,,,,,,,,,down,0,8.7568,,0.313160672,-0.064742872,1,0,0,2.3489,0,10,10,152,1,afnemen,images/br_afnemen.png,images/cb_afnemen.png,0,,,,,,,,,,,,,,,,,,,,,,
,,,,,,00081,2023-10-24_17h17.43.525,vbt_B1_day2,2022.2.4,MacIntel,59.99880002,,,,,,,,,,,,,,,,,,,,,,,,,,,down,0,15.4072,,0.451697456,-0.074718628,1,0,0,5.0328,0,11,11,176,1,techniek,images/br_techniek.png,images/cb_techniek.png,1,techniektechniek,,,,,,,,,,,,,,,,,,,,,
,,,,,,00081,2023-10-24_17h17.43.525,vbt_B1_day2,2022.2.4,MacIntel,59.99880002,,,,,,,,,,,,,,,,,,,,,,,,,,,down,0,12.1925,,0.451697456,-0.074718628,1,0,0,1.0997,0,12,12,83,1,mening,images/br_mening.png,images/cb_mening.png,0,,,,,,,,,,,,,,,,,,,,,,
,,,,,,00081,2023-10-24_17h17.43.525,vbt_B1_day2,2022.2.4,MacIntel,59.99880002,,,,,,,,,,,,,,,,,,,,,,,,,,,down,0,8.219,,0.469605849,-0.07780599,1,0,0,0.6814,0,13,13,14,1,rijp,images/br_rijp.png,images/cb_rijp.png,0,,,,,,,,,,,,,,,,,,,,,,
,,,,,,00081,2023-10-24_17h17.43.525,vbt_B1_day2,2022.2.4,MacIntel,59.99880002,,,,,,,,,,,,,,,,,,,,,,,,,,,down,0,8.9197,,0.439705811,0.185394287,1,0,0,0.9809,0,14,14,163,1,schuilen,images/br_schuilen.png,images/cb_schuilen.png,0,,,,,,,,,,,,,,,,,,,,,,
,,,,,,00081,2023-10-24_17h17.43.525,vbt_B1_day2,2022.2.4,MacIntel,59.99880002,,,,,,,,,,,,,,,,,,,,,,,,,,,down,0,4.5009,,0.439705811,0.185394287,1,0,0,1.5182,0,15,15,84,1,lokken,images/br_lokken.png,images/cb_lokken.png,0,,,,,,,,,,,,,,,,,,,,,,
,,,,,,00081,2023-10-24_17h17.43.525,vbt_B1_day2,2022.2.4,MacIntel,59.99880002,,,,,,,,,,,,,,,,,,,,,,,,,,,down,0,7.4265,,0.440314806,0.182535875,1,0,0,1.7673,0,16,16,180,1,openbaar,images/br_openbaar.png,images/cb_openbaar.png,0,,,,,,,,,,,,,,,,,,,,,,
,,,,,,00081,2023-10-24_17h17.43.525,vbt_B1_day2,2022.2.4,MacIntel,59.99880002,,,,,,,,,,,,,,,,,,,,,,,,,,,down,0,4.9647,,0.440314806,0.182535875,1,0,0,0.882,0,17,17,124,1,bloeien,images/br_bloeien.png,images/cb_bloeien.png,0,,,,,,,,,,,,,,,,,,,,,,
,,,,,,00081,2023-10-24_17h17.43.525,vbt_B1_day2,2022.2.4,MacIntel,59.99880002,,,,,,,,,,,,,,,,,,,,,,,,,,,down,0,23.5928,,0.007670831,0.096245049,1,0,0,11.2342,0,18,18,159,1,sufferd,images/br_sufferd.png,images/cb_sufferd.png,0,,,,,,,,,,,,,,,,,,,,,,
,,,,,,00081,2023-10-24_17h17.43.525,vbt_B1_day2,2022.2.4,MacIntel,59.99880002,,,,,,,,,,,,,,,,,,,,,,,,,,,down,0,4.4843,,0.088648139,-0.131988932,1,0,0,1.1316,0,19,19,138,1,akkoord,images/br_akkoord.png,images/cb_akkoord.png,1,akkoord,,,,,,,,,,,,,,,,,,,,,
,,,,,,00081,2023-10-24_17h17.43.525,vbt_B1_day2,2022.2.4,MacIntel,59.99880002,,,,,,,,,,,,,,,,,,,,,,,,,,,down,0,16.3542,,0.088648139,-0.131988932,1,0,0,1.2854,0,20,20,153,1,vervoer,images/br_vervoer.png,images/cb_vervoer.png,0,,,,,,,,,,,,,,,,,,,,,,
,,,,,,00081,2023-10-24_17h17.43.525,vbt_B1_day2,2022.2.4,MacIntel,59.99880002,,,,,,,,,,,,,,,,,,,,,,,,,,,down,0,8.6584,,0.088648139,-0.131988932,1,0,0,0.851,0,21,21,195,1,middelen,images/br_middelen.png,images/cb_middelen.png,0,,,,,,,,,,,,,,,,,,,,,,
,,,,,,00081,2023-10-24_17h17.43.525,vbt_B1_day2,2022.2.4,MacIntel,59.99880002,,,,,,,,,,,,,,,,,,,,,,,,,,,down,0,5.9657,,0.088648139,-0.131988932,1,0,0,0.8973,0,22,22,186,1,voorraad,images/br_voorraad.png,images/cb_voorraad.png,0,,,,,,,,,,,,,,,,,,,,,,
,,,,,,00081,2023-10-24_17h17.43.525,vbt_B1_day2,2022.2.4,MacIntel,59.99880002,,,,,,,,,,,,,,,,,,,,,,,,,,,down,0,10.1765,,0.088648139,-0.131988932,1,0,0,0.7836,0,23,23,156,1,rechten,images/br_rechten.png,images/cb_rechten.png,0,,,,,,,,,,,,,,,,,,,,,,
,,,,,,00081,2023-10-24_17h17.43.525,vbt_B1_day2,2022.2.4,MacIntel,59.99880002,,,,,,,,,,,,,,,,,,,,,,,,,,,down,0,2.2404,,0.088648139,-0.131988932,1,0,0,0.8346,0,24,24,26,1,leuk,images/br_leuk.png,images/cb_leuk.png,0,,,,,,,,,,,,,,,,,,,,,,
,,,,,,00081,2023-10-24_17h17.43.525,vbt_B1_day2,2022.2.4,MacIntel,59.99880002,,,,,,,,,,,,,,,,,,,,,,,,,,,down,0,4.6785,,0.088648139,-0.131988932,1,0,0,0.8503,0,25,25,155,1,gerucht,images/br_gerucht.png,images/cb_gerucht.png,0,,,,,,,,,,,,,,,,,,,,,,
,,,,,,00081,2023-10-24_17h17.43.525,vbt_B1_day2,2022.2.4,MacIntel,59.99880002,,,,,,,,,,,,,,,,,,,,,,,,,,,down,0,5.6034,,0.088648139,-0.131988932,1,0,0,0.914,0,26,26,40,1,schep,images/br_schep.png,images/cb_schep.png,0,,,,,,,,,,,,,,,,,,,,,,
,,,,,,00081,2023-10-24_17h17.43.525,vbt_B1_day2,2022.2.4,MacIntel,59.99880002,,,,,,,,,,,,,,,,,,,,,,,,,,,down,0,18.1588,,0.088648139,-0.131988932,1,0,0,1.017,0,27,27,73,1,volop,images/br_volop.png,images/cb_volop.png,0,,,,,,,,,,,,,,,,,,,,,,
,,,,,,00081,2023-10-24_17h17.43.525,vbt_B1_day2,2022.2.4,MacIntel,59.99880002,,,,,,,,,,,,,,,,,,,,,,,,,,,down,0,8.4183,,0.305442301,-0.182943522,1,0,0,0.8306,0,28,28,137,1,trekker,images/br_trekker.png,images/cb_trekker.png,1,trekker,,,,,,,,,,,,,,,,,,,,,
,,,,,,00081,2023-10-24_17h17.43.525,vbt_B1_day2,2022.2.4,MacIntel,59.99880002,,,,,,,,,,,,,,,,,,,,,,,,,,,down,0,6.9681,,0.305442301,-0.182943522,1,0,0,0.5519,0,29,29,24,1,jurk,images/br_jurk.png,images/cb_jurk.png,0,,,,,,,,,,,,,,,,,,,,,,
,,,,,,00081,2023-10-24_17h17.43.525,vbt_B1_day2,2022.2.4,MacIntel,59.99880002,,,,,,,,,,,,,,,,,,,,,,,,,,,down,0,8.5374,,0.305442301,-0.182943522,1,0,0,0.6476,0,30,30,15,1,soda,images/br_soda.png,images/cb_soda.png,0,,,,,,,,,,,,,,,,,,,,,,
,,,,,,00081,2023-10-24_17h17.43.525,vbt_B1_day2,2022.2.4,MacIntel,59.99880002,,,,,,,,,,,,,,,,,,,,,,,,,,,down,0,6.0208,,0.305442301,-0.182943522,1,0,0,0.8147,0,31,31,101,1,staren,images/br_staren.png,images/cb_staren.png,0,,,,,,,,,,,,,,,,,,,,,,
,,,,,,00081,2023-10-24_17h17.43.525,vbt_B1_day2,2022.2.4,MacIntel,59.99880002,,,,,,,,,,,,,,,,,,,,,,,,,,,down,0,5.3184,,0.305442301,-0.182943522,1,0,0,0.5976,0,32,32,95,1,vreten,images/br_vreten.png,images/cb_vreten.png,0,,,,,,,,,,,,,,,,,,,,,,
,,,,,,00081,2023-10-24_17h17.43.525,vbt_B1_day2,2022.2.4,MacIntel,59.99880002,,,,,,,,,,,,,,,,,,,,,,,,,,,down,0,9.0375,,0.305442301,-0.182943522,1,0,0,0.7187,0,33,33,140,1,blijven,images/br_blijven.png,images/cb_blijven.png,0,,,,,,,,,,,,,,,,,,,,,,
,,,,,,00081,2023-10-24_17h17.43.525,vbt_B1_day2,2022.2.4,MacIntel,59.99880002,,,,,,,,,,,,,,,,,,,,,,,,,,,down,0,4.0525,,0.305442301,-0.182943522,1,0,0,1.8336,0,34,34,72,1,strak,images/br_strak.png,images/cb_strak.png,0,,,,,,,,,,,,,,,,,,,,,,
,,,,,,00081,2023-10-24_17h17.43.525,vbt_B1_day2,2022.2.4,MacIntel,59.99880002,,,,,,,,,,,,,,,,,,,,,,,,,,,down,0,6.8275,,0.464507785,0.068723484,1,0,0,0.7166,0,35,35,25,1,plek,images/br_plek.png,images/cb_plek.png,0,,,,,,,,,,,,,,,,,,,,,,
,,,,,,00081,2023-10-24_17h17.43.525,vbt_B1_day2,2022.2.4,MacIntel,59.99880002,,,,,,,,,,,,,,,,,,,,,,,,,,,down,0,6.226,,0.464507785,0.068723484,1,0,0,0.6652,0,36,36,106,1,zingen,images/br_zingen.png,images/cb_zingen.png,0,,,,,,,,,,,,,,,,,,,,,,
,,,,,,00081,2023-10-24_17h17.43.525,vbt_B1_day2,2022.2.4,MacIntel,59.99880002,,,,,,,,,,,,,,,,,,,,,,,,,,,down,0,12.6428,,0.464507785,0.068723484,1,0,0,0.3996,0,37,37,141,1,knielen,images/br_knielen.png,images/cb_knielen.png,0,,,,,,,,,,,,,,,,,,,,,,
,,,,,,00081,2023-10-24_17h17.43.525,vbt_B1_day2,2022.2.4,MacIntel,59.99880002,,,,,,,,,,,,,,,,,,,,,,,,,,,down,0,6.0582,,0.464507785,0.068723484,1,0,0,0.5503,0,38,38,115,1,kleren,images/br_kleren.png,images/cb_kleren.png,0,,,,,,,,,,,,,,,,,,,,,,
,,,,,,00081,2023-10-24_17h17.43.525,vbt_B1_day2,2022.2.4,MacIntel,59.99880002,,,,,,,,,,,,,,,,,,,,,,,,,,,down,0,4.1349,,0.430062527,0.052426927,1,0,0,0.9465,0,39,39,11,1,mode,images/br_mode.png,images/cb_mode.png,0,,,,,,,,,,,,,,,,,,,,,,
,,,,,,00081,2023-10-24_17h17.43.525,vbt_B1_day2,2022.2.4,MacIntel,59.99880002,,,,,,,,,,,,,,,,,,,,,,,,,,,down,0,5.0156,,0.430062527,0.052426927,1,0,0,0.5489,0,40,40,47,1,kabel,images/br_kabel.png,images/cb_kabel.png,0,,,,,,,,,,,,,,,,,,,,,,
,,,,,,00081,2023-10-24_17h17.43.525,vbt_B1_day2,2022.2.4,MacIntel,59.99880002,,,,,,,,,,,,,,,,,,,,,,,,,,,down,0,7.6682,,0.430062527,0.052426927,1,0,0,0.6646,0,41,41,125,1,aanzien,images/br_aanzien.png,images/cb_aanzien.png,0,,,,,,,,,,,,,,,,,,,,,,
,,,,,,00081,2023-10-24_17h17.43.525,vbt_B1_day2,2022.2.4,MacIntel,59.99880002,,,,,,,,,,,,,,,,,,,,,,,,,,,down,0,7.2206,,0.430062527,0.052426927,1,0,0,0.7174,0,42,42,133,1,seizoen,images/br_seizoen.png,images/cb_seizoen.png,0,,,,,,,,,,,,,,,,,,,,,,
,,,,,,00081,2023-10-24_17h17.43.525,vbt_B1_day2,2022.2.4,MacIntel,59.99880002,,,,,,,,,,,,,,,,,,,,,,,,,,,down,0,7.3332,,0.430062527,0.052426927,1,0,0,0.5336,0,43,43,37,1,mijn,images/br_mijn.png,images/cb_mijn.png,0,,,,,,,,,,,,,,,,,,,,,,
,,,,,,00081,2023-10-24_17h17.43.525,vbt_B1_day2,2022.2.4,MacIntel,59.99880002,,,,,,,,,,,,,,,,,,,,,,,,,,,down,0,9.3441,,0.430062527,0.052426927,1,0,0,0.899,0,44,44,51,1,samen,images/br_samen.png,images/cb_samen.png,0,,,,,,,,,,,,,,,,,,,,,,
,,,,,,00081,2023-10-24_17h17.43.525,vbt_B1_day2,2022.2.4,MacIntel,59.99880002,,,,,,,,,,,,,,,,,,,,,,,,,,,down,0,6.1114,,0.430062527,0.052426927,1,0,0,0.533,0,45,45,146,1,opkomen,images/br_opkomen.png,images/cb_opkomen.png,0,,,,,,,,,,,,,,,,,,,,,,
,,,,,,00081,2023-10-24_17h17.43.525,vbt_B1_day2,2022.2.4,MacIntel,59.99880002,,,,,,,,,,,,,,,,,,,,,,,,,,,down,0,7.3243,,0.430062527,0.052426927,1,0,0,0.6837,0,46,46,148,1,smullen,images/br_smullen.png,images/cb_smullen.png,0,,,,,,,,,,,,,,,,,,,,,,
,,,,,,00081,2023-10-24_17h17.43.525,vbt_B1_day2,2022.2.4,MacIntel,59.99880002,,,,,,,,,,,,,,,,,,,,,,,,,,,down,0,11.2992,,0.430062527,0.052426927,1,0,0,0.7492,0,47,47,102,1,legaal,images/br_legaal.png,images/cb_legaal.png,0,,,,,,,,,,,,,,,,,,,,,,
,,,,,,00081,2023-10-24_17h17.43.525,vbt_B1_day2,2022.2.4,MacIntel,59.99880002,,,,,,,,,,,,,,,,,,,,,,,,,,,down,0,4.57,,0.430062527,0.052426927,1,0,0,0.7321,0,48,48,30,1,uien,images/br_uien.png,images/cb_uien.png,0,,,,,,,,,,,,,,,,,,,,,,
,,,,,,00081,2023-10-24_17h17.43.525,vbt_B1_day2,2022.2.4,MacIntel,59.99880002,,,,,,,,,,,,,,,,,,,,,,,,,,,down,0,4.2749,,0.430062527,0.052426927,1,0,0,0.8682,0,49,49,88,1,boeien,images/br_boeien.png,images/cb_boeien.png,0,,,,,,,,,,,,,,,,,,,,,,
,,,,,,00081,2023-10-24_17h17.43.525,vbt_B1_day2,2022.2.4,MacIntel,59.99880002,,,,,,,,,,,,,,,,,,,,,,,,,,,down,0,8.2656,,0.430062527,0.052426927,1,0,0,0.7973,0,50,50,63,1,flirt,images/br_flirt.png,images/cb_flirt.png,0,,,,,,,,,,,,,,,,,,,,,,
,,,,,,00081,2023-10-24_17h17.43.525,vbt_B1_day2,2022.2.4,MacIntel,59.99880002,,,,,,,,,,,,,,,,,,,,,,,,,,,down,0,11.0937,,0.430062527,0.052426927,1,0,0,1.0831,0,51,51,82,1,muziek,images/br_muziek.png,images/cb_muziek.png,0,,,,,,,,,,,,,,,,,,,,,,
,,,,,,00081,2023-10-24_17h17.43.525,vbt_B1_day2,2022.2.4,MacIntel,59.99880002,,,,,,,,,,,,,,,,,,,,,,,,,,,down,0,4.6482,,0.430062527,0.052426927,1,0,0,0.5488,0,52,52,64,1,wegen,images/br_wegen.png,images/cb_wegen.png,0,,,,,,,,,,,,,,,,,,,,,,
,,,,,,00081,2023-10-24_17h17.43.525,vbt_B1_day2,2022.2.4,MacIntel,59.99880002,,,,,,,,,,,,,,,,,,,,,,,,,,,down,0,6.1672,,0.430062527,0.052426927,1,0,0,0.5984,0,53,53,62,1,knaap,images/br_knaap.png,images/cb_knaap.png,0,,,,,,,,,,,,,,,,,,,,,,
,,,,,,00081,2023-10-24_17h17.43.525,vbt_B1_day2,2022.2.4,MacIntel,59.99880002,,,,,,,,,,,,,,,,,,,,,,,,,,,down,0,5.9839,,0.430062527,0.052426927,1,0,0,0.3504,0,54,54,144,1,eetlust,images/br_eetlust.png,images/cb_eetlust.png,0,,,,,,,,,,,,,,,,,,,,,,
,,,,,,00081,2023-10-24_17h17.43.525,vbt_B1_day2,2022.2.4,MacIntel,59.99880002,,,,,,,,,,,,,,,,,,,,,,,,,,,down,0,2.4341,,0.430062527,0.052426927,1,0,0,0.4,0,55,55,10,1,leek,images/br_leek.png,images/cb_leek.png,0,,,,,,,,,,,,,,,,,,,,,,
,,,,,,00081,2023-10-24_17h17.43.525,vbt_B1_day2,2022.2.4,MacIntel,59.99880002,,,,,,,,,,,,,,,,,,,,,,,,,,,down,0,2.7329,,0.430062527,0.052426927,1,0,0,0.3659,0,56,56,93,1,waarop,images/br_waarop.png,images/cb_waarop.png,0,,,,,,,,,,,,,,,,,,,,,,
,,,,,,00081,2023-10-24_17h17.43.525,vbt_B1_day2,2022.2.4,MacIntel,59.99880002,,,,,,,,,,,,,,,,,,,,,,,,,,,down,0,1.1399,,0.430062527,0.052426927,1,0,0,0.3982,0,57,57,29,1,baas,images/br_baas.png,images/cb_baas.png,0,,,,,,,,,,,,,,,,,,,,,,
,,,,,,00081,2023-10-24_17h17.43.525,vbt_B1_day2,2022.2.4,MacIntel,59.99880002,,,,,,,,,,,,,,,,,,,,,,,,,,,down,0,5.2878,,0.439735379,0.052426927,1,0,0,0.401,0,58,58,79,1,nodig,images/br_nodig.png,images/cb_nodig.png,0,,,,,,,,,,,,,,,,,,,,,,
,,,,,,00081,2023-10-24_17h17.43.525,vbt_B1_day2,2022.2.4,MacIntel,59.99880002,,,,,,,,,,,,,,,,,,,,,,,,,,,down,0,4.4011,,0.439735379,0.052426927,1,0,0,0.4148,0,59,59,65,1,parel,images/br_parel.png,images/cb_parel.png,0,,,,,,,,,,,,,,,,,,,,,,
,,,,,,00081,2023-10-24_17h17.43.525,vbt_B1_day2,2022.2.4,MacIntel,59.99880002,,,,,,,,,,,,,,,,,,,,,,,,,,,down,0,8.1661,,0.439735379,0.052426927,1,0,0,0.4991,0,60,60,70,1,ijdel,images/br_ijdel.png,images/cb_ijdel.png,0,,,,,,,,,,,,,,,,,,,,,,
,,,,,,00081,2023-10-24_17h17.43.525,vbt_B1_day2,2022.2.4,MacIntel,59.99880002,,,,,,,,,,,,,,,,,,,,,,,,,,,down,0,6.6928,,0.433983561,0.049399109,1,0,0,1.1999,0,61,61,81,1,dubbel,images/br_dubbel.png,images/cb_dubbel.png,0,,,,,,,,,,,,,,,,,,,,,,
,,,,,,00081,2023-10-24_17h17.43.525,vbt_B1_day2,2022.2.4,MacIntel,59.99880002,,,,,,,,,,,,,,,,,,,,,,,,,,,down,0,9.6936,,0.538071967,0.261880493,1,0,0,0.4169,0,62,62,32,1,palm,images/br_palm.png,images/cb_palm.png,0,,,,,,,,,,,,,,,,,,,,,,
,,,,,,00081,2023-10-24_17h17.43.525,vbt_B1_day2,2022.2.4,MacIntel,59.99880002,,,,,,,,,,,,,,,,,,,,,,,,,,,down,0,13.3702,,0.538071967,0.261880493,1,0,0,0.8003,0,63,63,122,1,waarvan,images/br_waarvan.png,images/cb_waarvan.png,0,,,,,,,,,,,,,,,,,,,,,,
,,,,,,00081,2023-10-24_17h17.43.525,vbt_B1_day2,2022.2.4,MacIntel,59.99880002,,,,,,,,,,,,,,,,,,,,,,,,,,,down,0,10.1246,,0.538071967,0.280433757,1,0,0,0.3834,0,64,64,143,1,hechten,images/br_hechten.png,images/cb_hechten.png,0,,,,,,,,,,,,,,,,,,,,,,
,,,,,,00081,2023-10-24_17h17.43.525,vbt_B1_day2,2022.2.4,MacIntel,59.99880002,,,,,,,,,,,,,,,,,,,,,,,,,,,down,0,12.2351,,0.538071967,0.280433757,1,0,0,0.4829,0,65,65,49,1,laken,images/br_laken.png,images/cb_laken.png,0,,,,,,,,,,,,,,,,,,,,,,
,,,,,,00081,2023-10-24_17h17.43.525,vbt_B1_day2,2022.2.4,MacIntel,59.99880002,,,,,,,,,,,,,,,,,,,,,,,,,,,down,0,5.5371,,0.538071967,0.280433757,1,0,0,0.4174,0,66,66,43,1,klauw,images/br_klauw.png,images/cb_klauw.png,0,,,,,,,,,,,,,,,,,,,,,,
,,,,,,00081,2023-10-24_17h17.43.525,vbt_B1_day2,2022.2.4,MacIntel,59.99880002,,,,,,,,,,,,,,,,,,,,,,,,,,,down,0,4.4893,,0.538071967,0.280433757,1,0,0,0.4493,0,67,67,90,1,geluid,images/br_geluid.png,images/cb_geluid.png,0,,,,,,,,,,,,,,,,,,,,,,
,,,,,,00081,2023-10-24_17h17.43.525,vbt_B1_day2,2022.2.4,MacIntel,59.99880002,,,,,,,,,,,,,,,,,,,,,,,,,,,down,0,3.7544,,0.538071967,0.280433757,1,0,0,0.3985,0,68,68,126,1,kasteel,images/br_kasteel.png,images/cb_kasteel.png,0,,,,,,,,,,,,,,,,,,,,,,
,,,,,,00081,2023-10-24_17h17.43.525,vbt_B1_day2,2022.2.4,MacIntel,59.99880002,,,,,,,,,,,,,,,,,,,,,,,,,,,down,0,2.1588,,0.538071967,0.280433757,1,0,0,0.3182,0,69,69,39,1,laag,images/br_laag.png,images/cb_laag.png,0,,,,,,,,,,,,,,,,,,,,,,
,,,,,,00081,2023-10-24_17h17.43.525,vbt_B1_day2,2022.2.4,MacIntel,59.99880002,,,,,,,,,,,,,,,,,,,,,,,,,,,down,0,2.3086,,0.538071967,0.280433757,1,0,0,0.3322,0,70,70,114,1,vullen,images/br_vullen.png,images/cb_vullen.png,0,,,,,,,,,,,,,,,,,,,,,,
,,,,,,00081,2023-10-24_17h17.43.525,vbt_B1_day2,2022.2.4,MacIntel,59.99880002,,,,,,,,,,,,,,,,,,,,,,,,,,,down,0,2.9622,,0.538071967,0.280433757,1,0,0,0.2969,0,71,71,3,1,mand,images/br_mand.png,images/cb_mand.png,0,,,,,,,,,,,,,,,,,,,,,,
,,,,,,00081,2023-10-24_17h17.43.525,vbt_B1_day2,2022.2.4,MacIntel,59.99880002,,,,,,,,,,,,,,,,,,,,,,,,,,,down,0,4.0677,,0.571457655,0.275029009,1,0,0,1.233,0,72,72,169,1,oprotten,images/br_oprotten.png,images/cb_oprotten.png,0,,,,,,,,,,,,,,,,,,,,,,
,,,,,,00081,2023-10-24_17h17.43.525,vbt_B1_day2,2022.2.4,MacIntel,59.99880002,,,,,,,,,,,,,,,,,,,,,,,,,,,down,0,7.3494,,0.571457655,0.275029009,1,0,0,0.4157,0,73,73,119,1,liefje,images/br_liefje.png,images/cb_liefje.png,0,,,,,,,,,,,,,,,,,,,,,,
,,,,,,00081,2023-10-24_17h17.43.525,vbt_B1_day2,2022.2.4,MacIntel,59.99880002,,,,,,,,,,,,,,,,,,,,,,,,,,,down,0,1.2368,,0.571457655,0.275029009,1,0,0,0.3499,0,74,74,53,1,baron,images/br_baron.png,images/cb_baron.png,0,,,,,,,,,,,,,,,,,,,,,,
,,,,,,00081,2023-10-24_17h17.43.525,vbt_B1_day2,2022.2.4,MacIntel,59.99880002,,,,,,,,,,,,,,,,,,,,,,,,,,,down,0,6.6378,,0.571457655,0.275029009,1,0,0,5.9153,0,75,75,131,1,opzicht,images/br_opzicht.png,images/cb_opzicht.png,0,,,,,,,,,,,,,,,,,,,,,,
,,,,,,00081,2023-10-24_17h17.43.525,vbt_B1_day2,2022.2.4,MacIntel,59.99880002,,,,,,,,,,,,,,,,,,,,,,,,,,,down,0,22.6446,,0.571457655,0.275029009,1,0,0,0.4507,0,76,76,145,1,invloed,images/br_invloed.png,images/cb_invloed.png,0,,,,,,,,,,,,,,,,,,,,,,
,,,,,,00081,2023-10-24_17h17.43.525,vbt_B1_day2,2022.2.4,MacIntel,59.99880002,,,,,,,,,,,,,,,,,,,,,,,,,,,down,0,7.9504,,0.571457655,0.275029009,1,0,0,0.5162,0,77,77,111,1,ticket,images/br_ticket.png,images/cb_ticket.png,0,,,,,,,,,,,,,,,,,,,,,,
,,,,,,00081,2023-10-24_17h17.43.525,vbt_B1_day2,2022.2.4,MacIntel,59.99880002,,,,,,,,,,,,,,,,,,,,,,,,,,,down,0,28.0099,,-0.048628472,-0.321469455,1,0,0,32.8356,0,78,78,157,1,uitlaat,images/br_uitlaat.png,images/cb_uitlaat.png,0,,,,,,,,,,,,,,,,,,,,,,
,,,,,,00081,2023-10-24_17h17.43.525,vbt_B1_day2,2022.2.4,MacIntel,59.99880002,,,,,,,,,,,,,,,,,,,,,,,,,,,down,0,9.3026,,-0.039336955,-0.328493991,1,0,0,0.4509,0,79,79,123,1,hiervan,images/br_hiervan.png,images/cb_hiervan.png,0,,,,,,,,,,,,,,,,,,,,,,
,,,,,,00081,2023-10-24_17h17.43.525,vbt_B1_day2,2022.2.4,MacIntel,59.99880002,,,,,,,,,,,,,,,,,,,,,,,,,,,down,0,18.286,,-0.039336955,-0.328493991,1,0,0,0.7637,0,80,80,104,1,zweven,images/br_zweven.png,images/cb_zweven.png,0,,,,,,,,,,,,,,,,,,,,,,
,,,,,,00081,2023-10-24_17h17.43.525,vbt_B1_day2,2022.2.4,MacIntel,59.99880002,,,,,,,,,,,,,,,,,,,,,,,,,,,down,0,4.6457,,-0.039336955,-0.328493991,1,0,0,0.6329,0,81,81,41,1,maken,images/br_maken.png,images/cb_maken.png,0,,,,,,,,,,,,,,,,,,,,,,
,,,,,,00081,2023-10-24_17h17.43.525,vbt_B1_day2,2022.2.4,MacIntel,59.99880002,,,,,,,,,,,,,,,,,,,,,,,,,,,down,0,2.444,,0.000396186,-0.02986223,1,0,0,0.5328,0,82,82,6,1,diep,images/br_diep.png,images/cb_diep.png,0,,,,,,,,,,,,,,,,,,,,,,
,,,,,,00081,2023-10-24_17h17.43.525,vbt_B1_day2,2022.2.4,MacIntel,59.99880002,,,,,,,,,,,,,,,,,,,,,,,,,,,down,0,6.1843,,0.000396186,-0.02986223,1,0,0,0.6157,0,83,83,46,1,jagen,images/br_jagen.png,images/cb_jagen.png,0,,,,,,,,,,,,,,,,,,,,,,
,,,,,,00081,2023-10-24_17h17.43.525,vbt_B1_day2,2022.2.4,MacIntel,59.99880002,,,,,,,,,,,,,,,,,,,,,,,,,,,down,0,5.5914,,0.000396186,-0.02986223,1,0,0,1.1198,0,84,84,170,1,schatten,images/br_schatten.png,images/cb_schatten.png,0,,,,,,,,,,,,,,,,,,,,,,
,,,,,,00081,2023-10-24_17h17.43.525,vbt_B1_day2,2022.2.4,MacIntel,59.99880002,,,,,,,,,,,,,,,,,,,,,,,,,,,down,0,2.5811,,0.020194634,0.02454149,1,0,0,0.6666,0,85,85,66,1,lever,images/br_lever.png,images/cb_lever.png,0,,,,,,,,,,,,,,,,,,,,,,
,,,,,,00081,2023-10-24_17h17.43.525,vbt_B1_day2,2022.2.4,MacIntel,59.99880002,,,,,,,,,,,,,,,,,,,,,,,,,,,down,0,4.0616,,0.08107883,-0.032480469,1,0,0,0.7156,0,86,86,57,1,steek,images/br_steek.png,images/cb_steek.png,1,steek,,,,,,,,,,,,,,,,,,,,,
,,,,,,00081,2023-10-24_17h17.43.525,vbt_B1_day2,2022.2.4,MacIntel,59.99880002,,,,,,,,,,,,,,,,,,,,,,,,,,,down,0,10.3353,,0.08107883,-0.032480469,1,0,0,0.6659,0,87,87,162,1,uitdelen,images/br_uitdelen.png,images/cb_uitdelen.png,0,,,,,,,,,,,,,,,,,,,,,,
,,,,,,00081,2023-10-24_17h17.43.525,vbt_B1_day2,2022.2.4,MacIntel,59.99880002,,,,,,,,,,,,,,,,,,,,,,,,,,,down,0,5.6508,,0.08107883,-0.032480469,1,0,0,0.7181,0,88,88,109,1,totaal,images/br_totaal.png,images/cb_totaal.png,0,,,,,,,,,,,,,,,,,,,,,,
,,,,,,00081,2023-10-24_17h17.43.525,vbt_B1_day2,2022.2.4,MacIntel,59.99880002,,,,,,,,,,,,,,,,,,,,,,,,,,,down,0,17.4499,,0.08107883,-0.032480469,1,0,0,0.4838,0,89,89,165,1,feestdag,images/br_feestdag.png,images/cb_feestdag.png,0,,,,,,,,,,,,,,,,,,,,,,
,,,,,,00081,2023-10-24_17h17.43.525,vbt_B1_day2,2022.2.4,MacIntel,59.99880002,,,,,,,,,,,,,,,,,,,,,,,,,,,down,0,4.9341,,0.08107883,-0.032480469,1,0,0,0.3663,0,90,90,110,1,zuster,images/br_zuster.png,images/cb_zuster.png,0,,,,,,,,,,,,,,,,,,,,,,
,,,,,,00081,2023-10-24_17h17.43.525,vbt_B1_day2,2022.2.4,MacIntel,59.99880002,,,,,,,,,,,,,,,,,,,,,,,,,,,down,0,10.2993,,0.08107883,-0.032480469,1,0,0,0.6687,0,91,91,135,1,gedicht,images/br_gedicht.png,images/cb_gedicht.png,0,,,,,,,,,,,,,,,,,,,,,,
,,,,,,00081,2023-10-24_17h17.43.525,vbt_B1_day2,2022.2.4,MacIntel,59.99880002,,,,,,,,,,,,,,,,,,,,,,,,,,,down,0,6.7169,,0.08107883,-0.032480469,1,0,0,0.4305,0,92,92,174,1,stemming,images/br_stemming.png,images/cb_stemming.png,0,,,,,,,,,,,,,,,,,,,,,,
,,,,,,00081,2023-10-24_17h17.43.525,vbt_B1_day2,2022.2.4,MacIntel,59.99880002,,,,,,,,,,,,,,,,,,,,,,,,,,,down,0,0.6991,,0.08107883,-0.032480469,1,0,0,1.9144,0,93,93,48,1,steel,images/br_steel.png,images/cb_steel.png,0,,,,,,,,,,,,,,,,,,,,,,
,,,,,,00081,2023-10-24_17h17.43.525,vbt_B1_day2,2022.2.4,MacIntel,59.99880002,,,,,,,,,,,,,,,,,,,,,,,,,,,down,0,4.9273,,0.08107883,-0.032480469,1,0,0,0.434,0,94,94,134,1,geliefd,images/br_geliefd.png,images/cb_geliefd.png,0,,,,,,,,,,,,,,,,,,,,,,
,,,,,,00081,2023-10-24_17h17.43.525,vbt_B1_day2,2022.2.4,MacIntel,59.99880002,,,,,,,,,,,,,,,,,,,,,,,,,,,down,0,6.6681,,0.08107883,-0.032480469,1,0,0,0.7331,0,95,95,52,1,wagon,images/br_wagon.png,images/cb_wagon.png,0,,,,,,,,,,,,,,,,,,,,,,
,,,,,,00081,2023-10-24_17h17.43.525,vbt_B1_day2,2022.2.4,MacIntel,59.99880002,,,,,,,,,,,,,,,,,,,,,,,,,,,down,0,1.2701,,0.08107883,-0.032480469,1,0,0,0.5166,0,96,96,2,1,jaar,images/br_jaar.png,images/cb_jaar.png,0,,,,,,,,,,,,,,,,,,,,,,
,,,,,,00081,2023-10-24_17h17.43.525,vbt_B1_day2,2022.2.4,MacIntel,59.99880002,,,,,,,,,,,,,,,,,,,,,,,,,,,down,0,2.3165,,0.08107883,-0.032480469,1,0,0,0.9826,0,97,97,21,1,mist,images/br_mist.png,images/cb_mist.png,0,,,,,,,,,,,,,,,,,,,,,,
,,,,,,00081,2023-10-24_17h17.43.525,vbt_B1_day2,2022.2.4,MacIntel,59.99880002,,,,,,,,,,,,,,,,,,,,,,,,,,,down,0,13.3067,,0.08107883,-0.032480469,1,0,0,1.5321,0,98,98,164,1,anarchie,images/br_anarchie.png,images/cb_anarchie.png,0,,,,,,,,,,,,,,,,,,,,,,
,,,,,,00081,2023-10-24_17h17.43.525,vbt_B1_day2,2022.2.4,MacIntel,59.99880002,,,,,,,,,,,,,,,,,,,,,,,,,,,down,0,24.78,,0.139468113,0.114608154,1,0,0,1.1495,0,99,99,196,1,nakijken,images/br_nakijken.png,images/cb_nakijken.png,0,,,,,,,,,,,,,,,,,,,,,,
,,,,,,00081,2023-10-24_17h17.43.525,vbt_B1_day2,2022.2.4,MacIntel,59.99880002,,,,,,,,,,,,,,,,,,,,,,,,,,,down,0,1.8021,,0.139468113,0.114608154,1,0,0,0.4841,0,100,100,33,1,vlek,images/br_vlek.png,images/cb_vlek.png,0,,,,,,,,,,,,,,,,,,,,,,
,,,,,,00081,2023-10-24_17h17.43.525,vbt_B1_day2,2022.2.4,MacIntel,59.99880002,,,,,,,,,,,,,,,,,,,,,,,,,,,down,0,8.3266,,0.139468113,0.114608154,1,0,0,0.6018,0,101,101,34,1,vorm,images/br_vorm.png,images/cb_vorm.png,0,,,,,,,,,,,,,,,,,,,,,,
,,,,,,00081,2023-10-24_17h17.43.525,vbt_B1_day2,2022.2.4,MacIntel,59.99880002,,,,,,,,,,,,,,,,,,,,,,,,,,,down,0,6.9608,,0.139468113,0.114608154,1,0,0,1.1673,0,102,102,132,1,grappen,images/br_grappen.png,images/cb_grappen.png,0,,,,,,,,,,,,,,,,,,,,,,
,,,,,,00081,2023-10-24_17h17.43.525,vbt_B1_day2,2022.2.4,MacIntel,59.99880002,,,,,,,,,,,,,,,,,,,,,,,,,,,down,0,8.3667,,0.473048774,-0.059389106,1,0,0,1.3181,0,103,103,178,1,huisdier,images/br_huisdier.png,images/cb_huisdier.png,1,huisdier,,,,,,,,,,,,,,,,,,,,,
,,,,,,00081,2023-10-24_17h17.43.525,vbt_B1_day2,2022.2.4,MacIntel,59.99880002,,,,,,,,,,,,,,,,,,,,,,,,,,,down,0,3.102,,0.473048774,-0.059389106,1,0,0,0.564,0,104,104,4,1,moes,images/br_moes.png,images/cb_moes.png,0,,,,,,,,,,,,,,,,,,,,,,
,,,,,,00081,2023-10-24_17h17.43.525,vbt_B1_day2,2022.2.4,MacIntel,59.99880002,,,,,,,,,,,,,,,,,,,,,,,,,,,down,0,18.2188,,0.473048774,-0.059389106,1,0,0,0.8656,0,105,105,197,1,spanning,images/br_spanning.png,images/cb_spanning.png,0,,,,,,,,,,,,,,,,,,,,,,
,,,,,,00081,2023-10-24_17h17.43.525,vbt_B1_day2,2022.2.4,MacIntel,59.99880002,,,,,,,,,,,,,,,,,,,,,,,,,,,down,0,0.8373,,0.473048774,-0.059389106,1,0,0,0.6166,0,106,106,13,1,kaal,images/br_kaal.png,images/cb_kaal.png,0,,,,,,,,,,,,,,,,,,,,,,
,,,,,,00081,2023-10-24_17h17.43.525,vbt_B1_day2,2022.2.4,MacIntel,59.99880002,,,,,,,,,,,,,,,,,,,,,,,,,,,down,0,21.5584,,0.473048774,-0.059389106,1,0,0,0.8012,0,107,107,130,1,keihard,images/br_keihard.png,images/cb_keihard.png,0,,,,,,,,,,,,,,,,,,,,,,
,,,,,,00081,2023-10-24_17h17.43.525,vbt_B1_day2,2022.2.4,MacIntel,59.99880002,,,,,,,,,,,,,,,,,,,,,,,,,,,down,0,11.7525,,0.475112169,-0.059389106,1,0,0,0.7186,0,108,108,44,1,flits,images/br_flits.png,images/cb_flits.png,0,,,,,,,,,,,,,,,,,,,,,,
,,,,,,00081,2023-10-24_17h17.43.525,vbt_B1_day2,2022.2.4,MacIntel,59.99880002,,,,,,,,,,,,,,,,,,,,,,,,,,,down,0,20.3192,,0.600668267,-0.185282932,1,0,0,0.6997,0,109,109,129,1,verhaal,images/br_verhaal.png,images/cb_verhaal.png,0,,,,,,,,,,,,,,,,,,,,,,
,,,,,,00081,2023-10-24_17h17.43.525,vbt_B1_day2,2022.2.4,MacIntel,59.99880002,,,,,,,,,,,,,,,,,,,,,,,,,,,down,0,10.6902,,0.600668267,-0.181780396,1,0,0,0.7334,0,110,110,80,1,kanjer,images/br_kanjer.png,images/cb_kanjer.png,0,,,,,,,,,,,,,,,,,,,,,,
,,,,,,00081,2023-10-24_17h17.43.525,vbt_B1_day2,2022.2.4,MacIntel,59.99880002,,,,,,,,,,,,,,,,,,,,,,,,,,,down,0,2.7045,,0.669236247,-0.201551649,1,0,0,0.8669,0,111,111,58,1,tekst,images/br_tekst.png,images/cb_tekst.png,1,tekst,,,,,,,,,,,,,,,,,,,,,
,,,,,,00081,2023-10-24_17h17.43.525,vbt_B1_day2,2022.2.4,MacIntel,59.99880002,,,,,,,,,,,,,,,,,,,,,,,,,,,down,0,15.906,,0.669236247,-0.201551649,1,0,0,1.0835,0,112,112,190,1,goedkoop,images/br_goedkoop.png,images/cb_goedkoop.png,0,,,,,,,,,,,,,,,,,,,,,,
,,,,,,00081,2023-10-24_17h17.43.525,vbt_B1_day2,2022.2.4,MacIntel,59.99880002,,,,,,,,,,,,,,,,,,,,,,,,,,,down,0,12.1001,,0.659046495,-0.201188015,1,0,0,0.484,0,113,113,183,1,getuigen,images/br_getuigen.png,images/cb_getuigen.png,0,,,,,,,,,,,,,,,,,,,,,,
,,,,,,00081,2023-10-24_17h17.43.525,vbt_B1_day2,2022.2.4,MacIntel,59.99880002,,,,,,,,,,,,,,,,,,,,,,,,,,,down,0,12.1948,,0.659046495,-0.203117269,1,0,0,0.584,0,114,114,191,1,opheffen,images/br_opheffen.png,images/cb_opheffen.png,0,,,,,,,,,,,,,,,,,,,,,,
,,,,,,00081,2023-10-24_17h17.43.525,vbt_B1_day2,2022.2.4,MacIntel,59.99880002,,,,,,,,,,,,,,,,,,,,,,,,,,,down,0,3.3547,,0.493530409,-0.116877713,1,0,0,2.0355,0,115,115,18,1,blik,images/br_blik.png,images/cb_blik.png,1,blik,,,,,,,,,,,,,,,,,,,,,
,,,,,,00081,2023-10-24_17h17.43.525,vbt_B1_day2,2022.2.4,MacIntel,59.99880002,,,,,,,,,,,,,,,,,,,,,,,,,,,down,0,14.9277,,0.137646756,0.00066196,1,0,0,0.6348,0,116,116,189,1,aanraden,images/br_aanraden.png,images/cb_aanraden.png,0,,,,,,,,,,,,,,,,,,,,,,
,,,,,,00081,2023-10-24_17h17.43.525,vbt_B1_day2,2022.2.4,MacIntel,59.99880002,,,,,,,,,,,,,,,,,,,,,,,,,,,down,0,11.3438,,-0.246822238,-0.060392693,1,0,0,0.402,0,117,117,67,1,zwart,images/br_zwart.png,images/cb_zwart.png,0,,,,,,,,,,,,,,,,,,,,,,
,,,,,,00081,2023-10-24_17h17.43.525,vbt_B1_day2,2022.2.4,MacIntel,59.99880002,,,,,,,,,,,,,,,,,,,,,,,,,,,down,0,7.4086,,0.670046929,-0.043283013,1,0,0,0.4356,0,118,118,121,1,twijfel,images/br_twijfel.png,images/cb_twijfel.png,0,,,,,,,,,,,,,,,,,,,,,,
,,,,,,00081,2023-10-24_17h17.43.525,vbt_B1_day2,2022.2.4,MacIntel,59.99880002,,,,,,,,,,,,,,,,,,,,,,,,,,,down,0,4.6686,,0.670046929,-0.043283013,1,0,0,0.3636,0,119,119,171,1,aarzelen,images/br_aarzelen.png,images/cb_aarzelen.png,0,,,,,,,,,,,,,,,,,,,,,,
,,,,,,00081,2023-10-24_17h17.43.525,vbt_B1_day2,2022.2.4,MacIntel,59.99880002,,,,,,,,,,,,,,,,,,,,,,,,,,,down,0,5.408,,0.670046929,-0.043283013,1,0,0,0.566,0,120,120,150,1,gegeven,images/br_gegeven.png,images/cb_gegeven.png,0,,,,,,,,,,,,,,,,,,,,,,
,,,,,,00081,2023-10-24_17h17.43.525,vbt_B1_day2,2022.2.4,MacIntel,59.99880002,,,,,,,,,,,,,,,,,,,,,,,,,,,down,0,3.3342,,0.670046929,-0.043283013,1,0,0,0.6343,0,121,121,87,1,toeval,images/br_toeval.png,images/cb_toeval.png,0,,,,,,,,,,,,,,,,,,,,,,
,,,,,,00081,2023-10-24_17h17.43.525,vbt_B1_day2,2022.2.4,MacIntel,59.99880002,,,,,,,,,,,,,,,,,,,,,,,,,,,down,0,6.7006,,0.697481147,0.033186849,1,0,0,0.5801,0,122,122,127,1,doodmoe,images/br_doodmoe.png,images/cb_doodmoe.png,0,,,,,,,,,,,,,,,,,,,,,,
,,,,,,00081,2023-10-24_17h17.43.525,vbt_B1_day2,2022.2.4,MacIntel,59.99880002,,,,,,,,,,,,,,,,,,,,,,,,,,,down,0,8.2863,,0.697481147,0.033186849,1,0,0,0.9329,0,123,123,147,1,komisch,images/br_komisch.png,images/cb_komisch.png,0,,,,,,,,,,,,,,,,,,,,,,
,,,,,,00081,2023-10-24_17h17.43.525,vbt_B1_day2,2022.2.4,MacIntel,59.99880002,,,,,,,,,,,,,,,,,,,,,,,,,,,down,0,4.1028,,0.697481147,0.033186849,1,0,0,0.6014,0,124,124,69,1,waken,images/br_waken.png,images/cb_waken.png,0,,,,,,,,,,,,,,,,,,,,,,
,,,,,,00081,2023-10-24_17h17.43.525,vbt_B1_day2,2022.2.4,MacIntel,59.99880002,,,,,,,,,,,,,,,,,,,,,,,,,,,down,0,7.3767,,0.697481147,0.033186849,1,0,0,0.8153,0,125,125,188,1,strekken,images/br_strekken.png,images/cb_strekken.png,0,,,,,,,,,,,,,,,,,,,,,,
,,,,,,00081,2023-10-24_17h17.43.525,vbt_B1_day2,2022.2.4,MacIntel,59.99880002,,,,,,,,,,,,,,,,,,,,,,,,,,,down,0,5.0546,,0.698803033,0.087987332,1,0,0,0.6844,0,126,126,45,1,piste,images/br_piste.png,images/cb_piste.png,0,,,,,,,,,,,,,,,,,,,,,,
,,,,,,00081,2023-10-24_17h17.43.525,vbt_B1_day2,2022.2.4,MacIntel,59.99880002,,,,,,,,,,,,,,,,,,,,,,,,,,,down,0,8.1541,,0.702321099,0.072723117,1,0,0,0.451,0,127,127,168,1,bisschop,images/br_bisschop.png,images/cb_bisschop.png,0,,,,,,,,,,,,,,,,,,,,,,
,,,,,,00081,2023-10-24_17h17.43.525,vbt_B1_day2,2022.2.4,MacIntel,59.99880002,,,,,,,,,,,,,,,,,,,,,,,,,,,down,0,6.7272,,0.108654582,0.006620212,1,0,0,0.5484,0,128,128,7,1,geld,images/br_geld.png,images/cb_geld.png,0,,,,,,,,,,,,,,,,,,,,,,
,,,,,,00081,2023-10-24_17h17.43.525,vbt_B1_day2,2022.2.4,MacIntel,59.99880002,,,,,,,,,,,,,,,,,,,,,,,,,,,down,0,30.6553,,0.05489841,0.015845269,1,0,0,0.4692,0,129,129,193,1,weeshuis,images/br_weeshuis.png,images/cb_weeshuis.png,0,,,,,,,,,,,,,,,,,,,,,,
,,,,,,00081,2023-10-24_17h17.43.525,vbt_B1_day2,2022.2.4,MacIntel,59.99880002,,,,,,,,,,,,,,,,,,,,,,,,,,,down,0,3.2375,,0.05489841,0.015845269,1,0,0,0.4849,0,130,130,23,1,zout,images/br_zout.png,images/cb_zout.png,0,,,,,,,,,,,,,,,,,,,,,,
,,,,,,00081,2023-10-24_17h17.43.525,vbt_B1_day2,2022.2.4,MacIntel,59.99880002,,,,,,,,,,,,,,,,,,,,,,,,,,,down,0,17.0596,,0.11427653,-0.025514865,1,0,0,0.4846,0,131,131,128,1,prikken,images/br_prikken.png,images/cb_prikken.png,0,,,,,,,,,,,,,,,,,,,,,,
,,,,,,00081,2023-10-24_17h17.43.525,vbt_B1_day2,2022.2.4,MacIntel,59.99880002,,,,,,,,,,,,,,,,,,,,,,,,,,,down,0,4.1422,,0.11427653,-0.025514865,1,0,0,1.835,0,132,132,12,1,kust,images/br_kust.png,images/cb_kust.png,0,,,,,,,,,,,,,,,,,,,,,,
,,,,,,00081,2023-10-24_17h17.43.525,vbt_B1_day2,2022.2.4,MacIntel,59.99880002,,,,,,,,,,,,,,,,,,,,,,,,,,,down,0,16.1396,,0.11427653,-0.025514865,1,0,0,0.4179,0,133,133,199,1,beseffen,images/br_beseffen.png,images/cb_beseffen.png,0,,,,,,,,,,,,,,,,,,,,,,
,,,,,,00081,2023-10-24_17h17.43.525,vbt_B1_day2,2022.2.4,MacIntel,59.99880002,,,,,,,,,,,,,,,,,,,,,,,,,,,down,0,34.4058,,0.11427653,-0.025514865,1,0,0,2.7677,0,134,134,172,1,weigeren,images/br_weigeren.png,images/cb_weigeren.png,0,,,,,,,,,,,,,,,,,,,,,,
,,,,,,00081,2023-10-24_17h17.43.525,vbt_B1_day2,2022.2.4,MacIntel,59.99880002,,,,,,,,,,,,,,,,,,,,,,,,,,,down,0,16.2409,,0.11427653,-0.025514865,1,0,0,0.3517,0,135,135,161,1,attentie,images/br_attentie.png,images/cb_attentie.png,0,,,,,,,,,,,,,,,,,,,,,,
,,,,,,00081,2023-10-24_17h17.43.525,vbt_B1_day2,2022.2.4,MacIntel,59.99880002,,,,,,,,,,,,,,,,,,,,,,,,,,,down,0,11.8195,,0.742800293,-0.021596612,1,0,0,0.4352,0,136,136,120,1,klimmen,images/br_klimmen.png,images/cb_klimmen.png,0,,,,,,,,,,,,,,,,,,,,,,
,,,,,,00081,2023-10-24_17h17.43.525,vbt_B1_day2,2022.2.4,MacIntel,59.99880002,,,,,,,,,,,,,,,,,,,,,,,,,,,down,0,7.5739,,0.742800293,-0.021596612,1,0,0,0.5004,0,137,137,184,1,aandelen,images/br_aandelen.png,images/cb_aandelen.png,0,,,,,,,,,,,,,,,,,,,,,,
,,,,,,00081,2023-10-24_17h17.43.525,vbt_B1_day2,2022.2.4,MacIntel,59.99880002,,,,,,,,,,,,,,,,,,,,,,,,,,,down,0,2.3678,,0.742800293,-0.021596612,1,0,0,0.6168,0,138,138,31,1,poes,images/br_poes.png,images/cb_poes.png,0,,,,,,,,,,,,,,,,,,,,,,
,,,,,,00081,2023-10-24_17h17.43.525,vbt_B1_day2,2022.2.4,MacIntel,59.99880002,,,,,,,,,,,,,,,,,,,,,,,,,,,down,0,6.5527,,0.734415554,0.023681912,1,0,0,0.9984,0,139,139,92,1,geheim,images/br_geheim.png,images/cb_geheim.png,0,,,,,,,,,,,,,,,,,,,,,,
,,,,,,00081,2023-10-24_17h17.43.525,vbt_B1_day2,2022.2.4,MacIntel,59.99880002,,,,,,,,,,,,,,,,,,,,,,,,,,,down,0,8.4263,,0.590256483,0.057360297,1,0,0,0.3998,0,140,140,118,1,vinger,images/br_vinger.png,images/cb_vinger.png,0,,,,,,,,,,,,,,,,,,,,,,
,,,,,,00081,2023-10-24_17h17.43.525,vbt_B1_day2,2022.2.4,MacIntel,59.99880002,,,,,,,,,,,,,,,,,,,,,,,,,,,down,0,4.0352,,0.636877848,-0.090521918,1,0,0,2.2516,0,141,141,96,1,slagen,images/br_slagen.png,images/cb_slagen.png,1,slagen,,,,,,,,,,,,,,,,,,,,,
,,,,,,00081,2023-10-24_17h17.43.525,vbt_B1_day2,2022.2.4,MacIntel,59.99880002,,,,,,,,,,,,,,,,,,,,,,,,,,,down,0,4.0354,,0.636877848,-0.088592665,1,0,0,0.6024,0,142,142,103,1,joggen,images/br_joggen.png,images/cb_joggen.png,0,,,,,,,,,,,,,,,,,,,,,,
,,,,,,00081,2023-10-24_17h17.43.525,vbt_B1_day2,2022.2.4,MacIntel,59.99880002,,,,,,,,,,,,,,,,,,,,,,,,,,,down,0,7.1687,,0.636877848,-0.088592665,1,0,0,0.4001,0,143,143,9,1,hier,images/br_hier.png,images/cb_hier.png,0,,,,,,,,,,,,,,,,,,,,,,
,,,,,,00081,2023-10-24_17h17.43.525,vbt_B1_day2,2022.2.4,MacIntel,59.99880002,,,,,,,,,,,,,,,,,,,,,,,,,,,down,0,2.7391,,0.636877848,-0.088592665,1,0,0,0.865,0,144,144,16,1,ziek,images/br_ziek.png,images/cb_ziek.png,1,ziek,,,,,,,,,,,,,,,,,,,,,
,,,,,,00081,2023-10-24_17h17.43.525,vbt_B1_day2,2022.2.4,MacIntel,59.99880002,,,,,,,,,,,,,,,,,,,,,,,,,,,down,0,10.6031,,0.485689155,-0.140768907,1,0,0,4.9688,0,145,145,99,1,koffie,images/br_koffie.png,images/cb_koffie.png,1,koddie,,,,,,,,,,,,,,,,,,,,,
,,,,,,00081,2023-10-24_17h17.43.525,vbt_B1_day2,2022.2.4,MacIntel,59.99880002,,,,,,,,,,,,,,,,,,,,,,,,,,,down,0,6.2553,,0.485689155,-0.140768907,1,0,0,0.451,0,146,146,86,1,woning,images/br_woning.png,images/cb_woning.png,0,,,,,,,,,,,,,,,,,,,,,,
,,,,,,00081,2023-10-24_17h17.43.525,vbt_B1_day2,2022.2.4,MacIntel,59.99880002,,,,,,,,,,,,,,,,,,,,,,,,,,,down,0,9.0929,,0.485689155,-0.140768907,1,0,0,0.4004,0,147,147,89,1,slapen,images/br_slapen.png,images/cb_slapen.png,0,,,,,,,,,,,,,,,,,,,,,,
,,,,,,00081,2023-10-24_17h17.43.525,vbt_B1_day2,2022.2.4,MacIntel,59.99880002,,,,,,,,,,,,,,,,,,,,,,,,,,,down,0,23.7396,,0.485689155,-0.140768907,1,0,0,0.4826,0,148,148,116,1,besmet,images/br_besmet.png,images/cb_besmet.png,0,,,,,,,,,,,,,,,,,,,,,,
,,,,,,00081,2023-10-24_17h17.43.525,vbt_B1_day2,2022.2.4,MacIntel,59.99880002,,,,,,,,,,,,,,,,,,,,,,,,,,,down,0,12.4009,,0.797491998,0.37308787,1,0,0,0.3171,0,149,149,27,1,dans,images/br_dans.png,images/cb_dans.png,0,,,,,,,,,,,,,,,,,,,,,,
,,,,,,00081,2023-10-24_17h17.43.525,vbt_B1_day2,2022.2.4,MacIntel,59.99880002,,,,,,,,,,,,,,,,,,,,,,,,,,,down,0,6.9373,,0.797069092,0.371514621,1,0,0,0.6483,0,150,150,36,1,vuur,images/br_vuur.png,images/cb_vuur.png,0,,,,,,,,,,,,,,,,,,,,,,
,,,,,,00081,2023-10-24_17h17.43.525,vbt_B1_day2,2022.2.4,MacIntel,59.99880002,,,,,,,,,,,,,,,,,,,,,,,,,,,down,0,6.6205,,0.117949287,0.040463867,1,0,0,0.6654,0,151,151,20,1,site,images/br_site.png,images/cb_site.png,0,,,,,,,,,,,,,,,,,,,,,,
,,,,,,00081,2023-10-24_17h17.43.525,vbt_B1_day2,2022.2.4,MacIntel,59.99880002,,,,,,,,,,,,,,,,,,,,,,,,,,,down,0,22.8766,,0.117949287,0.040463867,1,0,0,0.9337,0,152,152,173,1,apparaat,images/br_apparaat.png,images/cb_apparaat.png,0,,,,,,,,,,,,,,,,,,,,,,
,,,,,,00081,2023-10-24_17h17.43.525,vbt_B1_day2,2022.2.4,MacIntel,59.99880002,,,,,,,,,,,,,,,,,,,,,,,,,,,down,0,6.7828,,0.286934747,-0.198961724,1,0,0,2.099,0,153,153,177,1,maaltijd,images/br_maaltijd.png,images/cb_maaltijd.png,1,maaltijd,,,,,,,,,,,,,,,,,,,,,
,,,,,,00081,2023-10-24_17h17.43.525,vbt_B1_day2,2022.2.4,MacIntel,59.99880002,,,,,,,,,,,,,,,,,,,,,,,,,,,down,0,5.701,,0.286934747,-0.198961724,1,0,0,0.4167,0,154,154,50,1,stoom,images/br_stoom.png,images/cb_stoom.png,0,,,,,,,,,,,,,,,,,,,,,,
,,,,,,00081,2023-10-24_17h17.43.525,vbt_B1_day2,2022.2.4,MacIntel,59.99880002,,,,,,,,,,,,,,,,,,,,,,,,,,,down,0,7.9861,,0.286934747,-0.198961724,1,0,0,0.3842,0,155,155,192,1,schaamte,images/br_schaamte.png,images/cb_schaamte.png,0,,,,,,,,,,,,,,,,,,,,,,
,,,,,,00081,2023-10-24_17h17.43.525,vbt_B1_day2,2022.2.4,MacIntel,59.99880002,,,,,,,,,,,,,,,,,,,,,,,,,,,down,0,9.0209,,0.412205946,0.08785831,1,0,0,1.8014,0,156,156,61,1,groen,images/br_groen.png,images/cb_groen.png,0,,,,,,,,,,,,,,,,,,,,,,
,,,,,,00081,2023-10-24_17h17.43.525,vbt_B1_day2,2022.2.4,MacIntel,59.99880002,,,,,,,,,,,,,,,,,,,,,,,,,,,down,0,17.5775,,0.431691488,0.033053928,1,0,0,0.5668,0,157,157,167,1,eenhoorn,images/br_eenhoorn.png,images/cb_eenhoorn.png,0,,,,,,,,,,,,,,,,,,,,,,
,,,,,,00081,2023-10-24_17h17.43.525,vbt_B1_day2,2022.2.4,MacIntel,59.99880002,,,,,,,,,,,,,,,,,,,,,,,,,,,down,0,1.2711,,0.432604845,0.031227214,1,0,0,3.4829,0,158,158,19,1,geit,images/br_geit.png,images/cb_geit.png,1,geit,,,,,,,,,,,,,,,,,,,,,
,,,,,,00081,2023-10-24_17h17.43.525,vbt_B1_day2,2022.2.4,MacIntel,59.99880002,,,,,,,,,,,,,,,,,,,,,,,,,,,down,0,6.7821,,0.432604845,0.031227214,1,0,0,0.3825,0,159,159,151,1,aanzoek,images/br_aanzoek.png,images/cb_aanzoek.png,0,,,,,,,,,,,,,,,,,,,,,,
,,,,,,00081,2023-10-24_17h17.43.525,vbt_B1_day2,2022.2.4,MacIntel,59.99880002,,,,,,,,,,,,,,,,,,,,,,,,,,,down,0,17.4738,,0.432604845,0.024671224,1,0,0,0.5672,0,160,160,179,1,woestijn,images/br_woestijn.png,images/cb_woestijn.png,1,woestijn,,,,,,,,,,,,,,,,,,,,,
,,,,,,00081,2023-10-24_17h17.43.525,vbt_B1_day2,2022.2.4,MacIntel,59.99880002,,,,,,,,,,,,,,,,,,,,,,,,,,,down,0,12.7264,,0.432604845,0.021605496,1,0,0,0.6663,0,161,161,60,1,jasje,images/br_jasje.png,images/cb_jasje.png,0,,,,,,,,,,,,,,,,,,,,,,
,,,,,,00081,2023-10-24_17h17.43.525,vbt_B1_day2,2022.2.4,MacIntel,59.99880002,,,,,,,,,,,,,,,,,,,,,,,,,,,down,0,1.4102,,0.432604845,0.019505514,1,0,0,0.5348,0,162,162,55,1,praat,images/br_praat.png,images/cb_praat.png,0,,,,,,,,,,,,,,,,,,,,,,
,,,,,,00081,2023-10-24_17h17.43.525,vbt_B1_day2,2022.2.4,MacIntel,59.99880002,,,,,,,,,,,,,,,,,,,,,,,,,,,down,0,5.8003,,0.544507921,0.012328627,1,0,0,1.1345,0,163,163,59,1,kring,images/br_kring.png,images/cb_kring.png,1,kring,,,,,,,,,,,,,,,,,,,,,
,,,,,,00081,2023-10-24_17h17.43.525,vbt_B1_day2,2022.2.4,MacIntel,59.99880002,,,,,,,,,,,,,,,,,,,,,,,,,,,down,0,9.8393,,0.544507921,0.012328627,1,0,0,0.6685,0,164,164,68,1,schat,images/br_schat.png,images/cb_schat.png,0,,,,,,,,,,,,,,,,,,,,,,
,,,,,,00081,2023-10-24_17h17.43.525,vbt_B1_day2,2022.2.4,MacIntel,59.99880002,,,,,,,,,,,,,,,,,,,,,,,,,,,down,0,10.8586,,0.544507921,0.012328627,1,0,0,0.4664,0,165,165,105,1,wijlen,images/br_wijlen.png,images/cb_wijlen.png,0,,,,,,,,,,,,,,,,,,,,,,
,,,,,,00081,2023-10-24_17h17.43.525,vbt_B1_day2,2022.2.4,MacIntel,59.99880002,,,,,,,,,,,,,,,,,,,,,,,,,,,down,0,2.9032,,0.546630588,-0.028333605,1,0,0,0.4171,0,166,166,112,1,lukken,images/br_lukken.png,images/cb_lukken.png,0,,,,,,,,,,,,,,,,,,,,,,
,,,,,,00081,2023-10-24_17h17.43.525,vbt_B1_day2,2022.2.4,MacIntel,59.99880002,,,,,,,,,,,,,,,,,,,,,,,,,,,down,0,4.3521,,0.546630588,-0.028333605,1,0,0,0.3849,0,167,167,75,1,snoep,images/br_snoep.png,images/cb_snoep.png,0,,,,,,,,,,,,,,,,,,,,,,
,,,,,,00081,2023-10-24_17h17.43.525,vbt_B1_day2,2022.2.4,MacIntel,59.99880002,,,,,,,,,,,,,,,,,,,,,,,,,,,down,0,2.8546,,0.548389621,-0.02972897,1,0,0,1.0849,0,168,168,113,1,koppen,images/br_koppen.png,images/cb_koppen.png,0,,,,,,,,,,,,,,,,,,,,,,
,,,,,,00081,2023-10-24_17h17.43.525,vbt_B1_day2,2022.2.4,MacIntel,59.99880002,,,,,,,,,,,,,,,,,,,,,,,,,,,down,0,9.3192,,0.551062012,-0.04895518,1,0,0,0.5332,0,169,169,85,1,heilig,images/br_heilig.png,images/cb_heilig.png,0,,,,,,,,,,,,,,,,,,,,,,
,,,,,,00081,2023-10-24_17h17.43.525,vbt_B1_day2,2022.2.4,MacIntel,59.99880002,,,,,,,,,,,,,,,,,,,,,,,,,,,down,0,6.3825,,0.560589871,-0.039154934,1,0,0,0.841,0,170,170,94,1,oceaan,images/br_oceaan.png,images/cb_oceaan.png,0,,,,,,,,,,,,,,,,,,,,,,
,,,,,,00081,2023-10-24_17h17.43.525,vbt_B1_day2,2022.2.4,MacIntel,59.99880002,,,,,,,,,,,,,,,,,,,,,,,,,,,down,0,3.7623,,0.564463433,-0.041818983,1,0,0,0.568,0,171,171,35,1,lust,images/br_lust.png,images/cb_lust.png,0,,,,,,,,,,,,,,,,,,,,,,
,,,,,,00081,2023-10-24_17h17.43.525,vbt_B1_day2,2022.2.4,MacIntel,59.99880002,,,,,,,,,,,,,,,,,,,,,,,,,,,down,0,2.6497,,0.564463433,-0.057908698,1,0,0,0.3841,0,172,172,54,1,gebit,images/br_gebit.png,images/cb_gebit.png,0,,,,,,,,,,,,,,,,,,,,,,
,,,,,,00081,2023-10-24_17h17.43.525,vbt_B1_day2,2022.2.4,MacIntel,59.99880002,,,,,,,,,,,,,,,,,,,,,,,,,,,down,0,20.7042,,0.564463433,-0.057908698,1,0,0,0.6665,0,173,173,194,1,driemaal,images/br_driemaal.png,images/cb_driemaal.png,0,,,,,,,,,,,,,,,,,,,,,,
,,,,,,00081,2023-10-24_17h17.43.525,vbt_B1_day2,2022.2.4,MacIntel,59.99880002,,,,,,,,,,,,,,,,,,,,,,,,,,,down,0,5.8839,,0.564463433,-0.057908698,1,0,0,0.3826,0,174,174,5,1,blad,images/br_blad.png,images/cb_blad.png,0,,,,,,,,,,,,,,,,,,,,,,
,,,,,,00081,2023-10-24_17h17.43.525,vbt_B1_day2,2022.2.4,MacIntel,59.99880002,,,,,,,,,,,,,,,,,,,,,,,,,,,down,0,4.1822,,0.569551324,-0.128041314,1,0,0,0.332,0,175,175,77,1,woede,images/br_woede.png,images/cb_woede.png,0,,,,,,,,,,,,,,,,,,,,,,
,,,,,,00081,2023-10-24_17h17.43.525,vbt_B1_day2,2022.2.4,MacIntel,59.99880002,,,,,,,,,,,,,,,,,,,,,,,,,,,down,0,2.3539,,0.569551324,-0.123164537,1,0,0,0.4831,0,176,176,0,1,slak,images/br_slak.png,images/cb_slak.png,0,,,,,,,,,,,,,,,,,,,,,,
,,,,,,00081,2023-10-24_17h17.43.525,vbt_B1_day2,2022.2.4,MacIntel,59.99880002,,,,,,,,,,,,,,,,,,,,,,,,,,,down,0,3.7513,,0.569551324,-0.123164537,1,0,0,0.3837,0,177,177,78,1,leren,images/br_leren.png,images/cb_leren.png,0,,,,,,,,,,,,,,,,,,,,,,
,,,,,,00081,2023-10-24_17h17.43.525,vbt_B1_day2,2022.2.4,MacIntel,59.99880002,,,,,,,,,,,,,,,,,,,,,,,,,,,down,0,6.0009,,0.569551324,-0.123164537,1,0,0,0.4345,0,178,178,136,1,waarbij,images/br_waarbij.png,images/cb_waarbij.png,1,waarbij,,,,,,,,,,,,,,,,,,,,,
,,,,,,00081,2023-10-24_17h17.43.525,vbt_B1_day2,2022.2.4,MacIntel,59.99880002,,,,,,,,,,,,,,,,,,,,,,,,,,,down,0,18.5425,,0.327471313,-0.1615979,1,0,0,0.4533,0,179,179,187,1,opkijken,images/br_opkijken.png,images/cb_opkijken.png,0,,,,,,,,,,,,,,,,,,,,,,
,,,,,,00081,2023-10-24_17h17.43.525,vbt_B1_day2,2022.2.4,MacIntel,59.99880002,,,,,,,,,,,,,,,,,,,,,,,,,,,down,0,5.4278,,0.327471313,-0.148356052,1,0,0,0.6018,0,180,180,117,1,kennis,images/br_kennis.png,images/cb_kennis.png,0,,,,,,,,,,,,,,,,,,,,,,
,,,,,,00081,2023-10-24_17h17.43.525,vbt_B1_day2,2022.2.4,MacIntel,59.99880002,,,,,,,,,,,,,,,,,,,,,,,,,,,down,0,23.3114,,0.327471313,-0.148356052,1,0,0,0.4992,0,181,181,142,1,snuiven,images/br_snuiven.png,images/cb_snuiven.png,0,,,,,,,,,,,,,,,,,,,,,,
,,,,,,00081,2023-10-24_17h17.43.525,vbt_B1_day2,2022.2.4,MacIntel,59.99880002,,,,,,,,,,,,,,,,,,,,,,,,,,,down,0,4.5603,,0.327471313,-0.148356052,1,0,0,0.4172,0,182,182,166,1,strikken,images/br_strikken.png,images/cb_strikken.png,0,,,,,,,,,,,,,,,,,,,,,,
,,,,,,00081,2023-10-24_17h17.43.525,vbt_B1_day2,2022.2.4,MacIntel,59.99880002,,,,,,,,,,,,,,,,,,,,,,,,,,,down,0,9.4596,,0.327471313,-0.148356052,1,0,0,0.4182,0,183,183,100,1,geduld,images/br_geduld.png,images/cb_geduld.png,0,,,,,,,,,,,,,,,,,,,,,,
,,,,,,00081,2023-10-24_17h17.43.525,vbt_B1_day2,2022.2.4,MacIntel,59.99880002,,,,,,,,,,,,,,,,,,,,,,,,,,,down,0,1.8258,,0.329796346,-0.170081787,1,0,0,0.5503,0,184,184,17,1,taal,images/br_taal.png,images/cb_taal.png,1,taal,,,,,,,,,,,,,,,,,,,,,
,,,,,,00081,2023-10-24_17h17.43.525,vbt_B1_day2,2022.2.4,MacIntel,59.99880002,,,,,,,,,,,,,,,,,,,,,,,,,,,down,0,6.1691,,0.531414659,-0.309015299,1,0,0,0.7002,0,185,185,98,1,kreeft,images/br_kreeft.png,images/cb_kreeft.png,1,kreeft,,,,,,,,,,,,,,,,,,,,,
,,,,,,00081,2023-10-24_17h17.43.525,vbt_B1_day2,2022.2.4,MacIntel,59.99880002,,,,,,,,,,,,,,,,,,,,,,,,,,,down,0,16.5364,,0.531414659,-0.309015299,1,0,0,0.5526,0,186,186,185,1,mijnheer,images/br_mijnheer.png,images/cb_mijnheer.png,0,,,,,,,,,,,,,,,,,,,,,,
,,,,,,00081,2023-10-24_17h17.43.525,vbt_B1_day2,2022.2.4,MacIntel,59.99880002,,,,,,,,,,,,,,,,,,,,,,,,,,,down,0,9.587,,0.531414659,-0.309015299,1,0,0,0.7177,0,187,187,182,1,bijkomen,images/br_bijkomen.png,images/cb_bijkomen.png,0,,,,,,,,,,,,,,,,,,,,,,
,,,,,,00081,2023-10-24_17h17.43.525,vbt_B1_day2,2022.2.4,MacIntel,59.99880002,,,,,,,,,,,,,,,,,,,,,,,,,,,down,0,10.4208,,0.466548258,-0.254745687,1,0,0,0.6663,0,188,188,139,1,stiekem,images/br_stiekem.png,images/cb_stiekem.png,1,stiekem,,,,,,,,,,,,,,,,,,,,,
,,,,,,00081,2023-10-24_17h17.43.525,vbt_B1_day2,2022.2.4,MacIntel,59.99880002,,,,,,,,,,,,,,,,,,,,,,,,,,,down,0,2.8188,,0.541869982,-0.057971124,1,0,0,2.6003,0,189,189,56,1,traag,images/br_traag.png,images/cb_traag.png,1,traag,,,,,,,,,,,,,,,,,,,,,
,,,,,,00081,2023-10-24_17h17.43.525,vbt_B1_day2,2022.2.4,MacIntel,59.99880002,,,,,,,,,,,,,,,,,,,,,,,,,,,down,0,7.6545,,0.541869982,-0.057971124,1,0,0,0.583,0,190,190,8,1,knie,images/br_knie.png,images/cb_knie.png,0,,,,,,,,,,,,,,,,,,,,,,
,,,,,,00081,2023-10-24_17h17.43.525,vbt_B1_day2,2022.2.4,MacIntel,59.99880002,,,,,,,,,,,,,,,,,,,,,,,,,,,down,0,9.1827,,0.513019884,0.101874525,1,0,0,0.4022,0,191,191,149,1,redding,images/br_redding.png,images/cb_redding.png,0,,,,,,,,,,,,,,,,,,,,,,
,,,,,,00081,2023-10-24_17h17.43.525,vbt_B1_day2,2022.2.4,MacIntel,59.99880002,,,,,,,,,,,,,,,,,,,,,,,,,,,down,0,3.384,,0.513019884,0.101874525,1,0,0,0.482,0,192,192,71,1,bever,images/br_bever.png,images/cb_bever.png,0,,,,,,,,,,,,,,,,,,,,,,
,,,,,,00081,2023-10-24_17h17.43.525,vbt_B1_day2,2022.2.4,MacIntel,59.99880002,,,,,,,,,,,,,,,,,,,,,,,,,,,down,0,6.0357,,0.44479994,-0.205216404,1,0,0,0.6337,0,193,193,97,1,loyaal,images/br_loyaal.png,images/cb_loyaal.png,1,loyaal,,,,,,,,,,,,,,,,,,,,,
,,,,,,00081,2023-10-24_17h17.43.525,vbt_B1_day2,2022.2.4,MacIntel,59.99880002,,,,,,,,,,,,,,,,,,,,,,,,,,,down,0,4.7499,,0.44479994,-0.205216404,1,0,0,0.4344,0,194,194,76,1,afval,images/br_afval.png,images/cb_afval.png,0,,,,,,,,,,,,,,,,,,,,,,
,,,,,,00081,2023-10-24_17h17.43.525,vbt_B1_day2,2022.2.4,MacIntel,59.99880002,,,,,,,,,,,,,,,,,,,,,,,,,,,down,0,4.8254,,0.44479994,-0.205216404,1,0,0,0.4007,0,195,195,91,1,gezond,images/br_gezond.png,images/cb_gezond.png,0,,,,,,,,,,,,,,,,,,,,,,
,,,,,,00081,2023-10-24_17h17.43.525,vbt_B1_day2,2022.2.4,MacIntel,59.99880002,,,,,,,,,,,,,,,,,,,,,,,,,,,down,0,2.9401,,0.44479994,-0.205216404,1,0,0,0.3846,0,196,196,74,1,graaf,images/br_graaf.png,images/cb_graaf.png,0,,,,,,,,,,,,,,,,,,,,,,
,,,,,,00081,2023-10-24_17h17.43.525,vbt_B1_day2,2022.2.4,MacIntel,59.99880002,,,,,,,,,,,,,,,,,,,,,,,,,,,down,0,5.1187,,0.44479994,-0.205216404,1,0,0,0.3363,0,197,197,175,1,heengaan,images/br_heengaan.png,images/cb_heengaan.png,0,,,,,,,,,,,,,,,,,,,,,,
,,,,,,00081,2023-10-24_17h17.43.525,vbt_B1_day2,2022.2.4,MacIntel,59.99880002,,,,,,,,,,,,,,,,,,,,,,,,,,,down,0,1.931,,0.44479994,-0.205216404,1,0,0,0.3656,0,198,198,42,1,bleek,images/br_bleek.png,images/cb_bleek.png,0,,,,,,,,,,,,,,,,,,,,,,
,,,,,,00081,2023-10-24_17h17.43.525,vbt_B1_day2,2022.2.4,MacIntel,59.99880002,,,,,,,,,,,,,,,,,,,,,,,,,,,down,0,1.6021,,0.44479994,-0.205216404,1,0,0,0.2996,0,199,199,1,1,zaal,images/br_zaal.png,images/cb_zaal.png,0,,,,,,,,,,,,,,,,,,,,,,
,,,,,,00081,2023-10-24_17h17.43.525,vbt_B1_day2,2022.2.4,MacIntel,59.99880002,,,,,,,,,,,,,,,,,,,,,,,,,,,,,,,,,,,,,,,,,,,,,,,0.15834181,0.137141588,1,0,0,,,,,,,,,,,,,,,,
,,,,,,00081,2023-10-24_17h17.43.525,vbt_B1_day2,2022.2.4,MacIntel,59.99880002,,,,,,,,,,,,,,,,,,,,,,,,,,,,,,,,,,,,,,,,,,,,,,,,,,,,0.122011922,0.159546882,1,0,0,,,,,,,,,,,
,,,,,,00081,2023-10-24_17h17.43.525,vbt_B1_day2,2022.2.4,MacIntel,59.99880002,,,,,,,,,,,,,,,,,,,,,,,,,,,,,,,,,,,,,,,,,,negel,images/br_negel.png,images/cb_negel.png,,negel,,,,,,,,,,,0.336692573,0.158056369,1,0,0,negel,0,0,0,24,1
,,,,,,00081,2023-10-24_17h17.43.525,vbt_B1_day2,2022.2.4,MacIntel,59.99880002,,,,,,,,,,,,,,,,,,,,,,,,,,,,,,,,,,,,,,,,,,piste,images/br_piste.png,images/cb_piste.png,,piste,,,,,,,,,,,0.336692573,0.158056369,1,0,0,piste,0,1,1,5,1
,,,,,,00081,2023-10-24_17h17.43.525,vbt_B1_day2,2022.2.4,MacIntel,59.99880002,,,,,,,,,,,,,,,,,,,,,,,,,,,,,,,,,,,,,,,,,,lijnen,images/br_lijnen.png,images/cb_lijnen.png,,lijnen,,,,,,,,,,,0.597792019,0.101400214,1,0,0,lijnen,0,2,2,51,1
,,,,,,00081,2023-10-24_17h17.43.525,vbt_B1_day2,2022.2.4,MacIntel,59.99880002,,,,,,,,,,,,,,,,,,,,,,,,,,,,,,,,,,,,,,,,,,clan,images/br_clan.png,images/cb_clan.png,,clan,,,,,,,,,,,0.61429145,0.092963223,1,0,0,clan,0,3,3,40,1
,,,,,,00081,2023-10-24_17h17.43.525,vbt_B1_day2,2022.2.4,MacIntel,59.99880002,,,,,,,,,,,,,,,,,,,,,,,,,,,,,,,,,,,,,,,,,,geld,images/br_geld.png,images/cb_geld.png,,geld,,,,,,,,,,,0.614959446,0.09533115,1,0,0,geld,0,4,4,3,1
,,,,,,00081,2023-10-24_17h17.43.525,vbt_B1_day2,2022.2.4,MacIntel,59.99880002,,,,,,,,,,,,,,,,,,,,,,,,,,,,,,,,,,,,,,,,,,diep,images/br_diep.png,images/cb_diep.png,,diep,,,,,,,,,,,0.614959446,0.09533115,1,0,0,diep,0,5,5,2,1
,,,,,,00081,2023-10-24_17h17.43.525,vbt_B1_day2,2022.2.4,MacIntel,59.99880002,,,,,,,,,,,,,,,,,,,,,,,,,,,,,,,,,,,,,,,,,,bloeien,images/br_bloeien.png,images/cb_bloeien.png,,bloeien,,,,,,,,,,,0.614959446,0.09533115,1,0,0,bloeien,0,6,6,12,1
,,,,,,00081,2023-10-24_17h17.43.525,vbt_B1_day2,2022.2.4,MacIntel,59.99880002,,,,,,,,,,,,,,,,,,,,,,,,,,,,,,,,,,,,,,,,,,lurgen,images/br_lurgen.png,images/cb_lurgen.png,,lurgen,,,,,,,,,,,0.614959446,0.09533115,1,0,0,lurgen,0,7,7,29,1
,,,,,,00081,2023-10-24_17h17.43.525,vbt_B1_day2,2022.2.4,MacIntel,59.99880002,,,,,,,,,,,,,,,,,,,,,,,,,,,,,,,,,,,,,,,,,,dode,images/br_dode.png,images/cb_dode.png,,dode,,,,,,,,,,,0.614959446,0.09406233,1,0,0,dode,0,8,8,41,1
,,,,,,00081,2023-10-24_17h17.43.525,vbt_B1_day2,2022.2.4,MacIntel,59.99880002,,,,,,,,,,,,,,,,,,,,,,,,,,,,,,,,,,,,,,,,,,opdatten,images/br_opdatten.png,images/cb_opdatten.png,,opdatten,,,,,,,,,,,0.614959446,0.09406233,1,0,0,opdatten,0,9,9,37,1
,,,,,,00081,2023-10-24_17h17.43.525,vbt_B1_day2,2022.2.4,MacIntel,59.99880002,,,,,,,,,,,,,,,,,,,,,,,,,,,,,,,,,,,,,,,,,,koorts,images/br_koorts.png,images/cb_koorts.png,,koorts,,,,,,,,,,,0.614959446,0.09406233,1,0,0,koorts,0,10,10,50,1
,,,,,,00081,2023-10-24_17h17.43.525,vbt_B1_day2,2022.2.4,MacIntel,59.99880002,,,,,,,,,,,,,,,,,,,,,,,,,,,,,,,,,,,,,,,,,,kijlen,images/br_kijlen.png,images/cb_kijlen.png,,wijlen,,,,,,,,,,,0.700012343,0.081497803,1,0,0,wijlen,0,11,11,31,1
,,,,,,00081,2023-10-24_17h17.43.525,vbt_B1_day2,2022.2.4,MacIntel,59.99880002,,,,,,,,,,,,,,,,,,,,,,,,,,,,,,,,,,,,,,,,,,tweeling,images/br_tweeling.png,images/cb_tweeling.png,,tweeling,,,,,,,,,,,0.700012343,0.081497803,1,0,0,tweeling,0,12,12,58,1
,,,,,,00081,2023-10-24_17h17.43.525,vbt_B1_day2,2022.2.4,MacIntel,59.99880002,,,,,,,,,,,,,,,,,,,,,,,,,,,,,,,,,,,,,,,,,,zomers,images/br_zomers.png,images/cb_zomers.png,,zomers,,,,,,,,,,,0.700012343,0.081497803,1,0,0,zomers,0,13,13,48,1
,,,,,,00081,2023-10-24_17h17.43.525,vbt_B1_day2,2022.2.4,MacIntel,59.99880002,,,,,,,,,,,,,,,,,,,,,,,,,,,,,,,,,,,,,,,,,,kenzis,images/br_kenzis.png,images/cb_kenzis.png,,kenzis,,,,,,,,,,,0.700012343,0.081497803,1,0,0,kenzis,0,14,14,30,1
,,,,,,00081,2023-10-24_17h17.43.525,vbt_B1_day2,2022.2.4,MacIntel,59.99880002,,,,,,,,,,,,,,,,,,,,,,,,,,,,,,,,,,,,,,,,,,moes,images/br_moes.png,images/cb_moes.png,,moes,,,,,,,,,,,0.715104709,0.064068197,1,0,0,moes,0,15,15,0,1
,,,,,,00081,2023-10-24_17h17.43.525,vbt_B1_day2,2022.2.4,MacIntel,59.99880002,,,,,,,,,,,,,,,,,,,,,,,,,,,,,,,,,,,,,,,,,,inzicht,images/br_inzicht.png,images/cb_inzicht.png,,inzech.,,,,,,,,,,,0.715104709,0.064068197,1,0,0,inzech.,0,16,16,53,1
,,,,,,00081,2023-10-24_17h17.43.525,vbt_B1_day2,2022.2.4,MacIntel,59.99880002,,,,,,,,,,,,,,,,,,,,,,,,,,,,,,,,,,,,,,,,,,aanzien,images/br_aanzien.png,images/cb_aanzien.png,,aanzien,,,,,,,,,,,0.715104709,0.064068197,1,0,0,aanzien,0,17,17,13,1
,,,,,,00081,2023-10-24_17h17.43.525,vbt_B1_day2,2022.2.4,MacIntel,59.99880002,,,,,,,,,,,,,,,,,,,,,,,,,,,,,,,,,,,,,,,,,,kasteel,images/br_kasteel.png,images/cb_kasteel.png,,kasteel,,,,,,,,,,,0.715104709,0.064068197,1,0,0,kasteel,0,18,18,14,1
,,,,,,00081,2023-10-24_17h17.43.525,vbt_B1_day2,2022.2.4,MacIntel,59.99880002,,,,,,,,,,,,,,,,,,,,,,,,,,,,,,,,,,,,,,,,,,systeem,images/br_systeem.png,images/cb_systeem.png,,systeem,,,,,,,,,,,0.715104709,0.064068197,1,0,0,systeem,0,19,19,54,1
,,,,,,00081,2023-10-24_17h17.43.525,vbt_B1_day2,2022.2.4,MacIntel,59.99880002,,,,,,,,,,,,,,,,,,,,,,,,,,,,,,,,,,,,,,,,,,joes,images/br_joes.png,images/cb_joes.png,,joes,,,,,,,,,,,0.715104709,0.064068197,1,0,0,joes,0,20,20,20,1
,,,,,,00081,2023-10-24_17h17.43.525,vbt_B1_day2,2022.2.4,MacIntel,59.99880002,,,,,,,,,,,,,,,,,,,,,,,,,,,,,,,,,,,,,,,,,,woning,images/br_woning.png,images/cb_woning.png,,woning,,,,,,,,,,,0.712973497,0.056761475,1,0,0,woning,0,21,21,10,1
,,,,,,00081,2023-10-24_17h17.43.525,vbt_B1_day2,2022.2.4,MacIntel,59.99880002,,,,,,,,,,,,,,,,,,,,,,,,,,,,,,,,,,,,,,,,,,plannen,images/br_plannen.png,images/cb_plannen.png,,plannin,,,,,,,,,,,0.776242811,-0.010509881,1,0,0,plannin,0,22,22,55,1
,,,,,,00081,2023-10-24_17h17.43.525,vbt_B1_day2,2022.2.4,MacIntel,59.99880002,,,,,,,,,,,,,,,,,,,,,,,,,,,,,,,,,,,,,,,,,,ningen,images/br_ningen.png,images/cb_ningen.png,,ningen,,,,,,,,,,,0.776242811,-0.010509881,1,0,0,ningen,0,23,23,28,1
,,,,,,00081,2023-10-24_17h17.43.525,vbt_B1_day2,2022.2.4,MacIntel,59.99880002,,,,,,,,,,,,,,,,,,,,,,,,,,,,,,,,,,,,,,,,,,sjijfel,images/br_sjijfel.png,images/cb_sjijfel.png,,sjijf.,,,,,,,,,,,0.776242811,-0.010509881,1,0,0,sjijf.,0,24,24,33,1
,,,,,,00081,2023-10-24_17h17.43.525,vbt_B1_day2,2022.2.4,MacIntel,59.99880002,,,,,,,,,,,,,,,,,,,,,,,,,,,,,,,,,,,,,,,,,,sifferd,images/br_sifferd.png,images/cb_sifferd.png,,sifferd,,,,,,,,,,,0.776242811,-0.010509881,1,0,0,sifferd,0,25,25,32,1
,,,,,,00081,2023-10-24_17h17.43.525,vbt_B1_day2,2022.2.4,MacIntel,59.99880002,,,,,,,,,,,,,,,,,,,,,,,,,,,,,,,,,,,,,,,,,,ophuimen,images/br_ophuimen.png,images/cb_ophuimen.png,,ophuimen,,,,,,,,,,,0.776242811,-0.010509881,1,0,0,ophuimen,0,26,26,36,1
,,,,,,00081,2023-10-24_17h17.43.525,vbt_B1_day2,2022.2.4,MacIntel,59.99880002,,,,,,,,,,,,,,,,,,,,,,,,,,,,,,,,,,,,,,,,,,feestdag,images/br_feestdag.png,images/cb_feestdag.png,,feestda.,,,,,,,,,,,0.764424235,-0.013467102,1,0,0,feestda.,0,27,27,17,1
,,,,,,00081,2023-10-24_17h17.43.525,vbt_B1_day2,2022.2.4,MacIntel,59.99880002,,,,,,,,,,,,,,,,,,,,,,,,,,,,,,,,,,,,,,,,,,doodmoe,images/br_doodmoe.png,images/cb_doodmoe.png,,doodmoe,,,,,,,,,,,0.764424235,-0.013467102,1,0,0,doodmoe,0,28,28,15,1
,,,,,,00081,2023-10-24_17h17.43.525,vbt_B1_day2,2022.2.4,MacIntel,59.99880002,,,,,,,,,,,,,,,,,,,,,,,,,,,,,,,,,,,,,,,,,,badon,images/br_badon.png,images/cb_badon.png,,badon,,,,,,,,,,,0.709314372,-0.122624919,1,0,0,badon,0,29,29,26,1
,,,,,,00081,2023-10-24_17h17.43.525,vbt_B1_day2,2022.2.4,MacIntel,59.99880002,,,,,,,,,,,,,,,,,,,,,,,,,,,,,,,,,,,,,,,,,,anarchie,images/br_anarchie.png,images/cb_anarchie.png,,anarchie,,,,,,,,,,,0.709314372,-0.122624919,1,0,0,anarchie,0,30,30,16,1
,,,,,,00081,2023-10-24_17h17.43.525,vbt_B1_day2,2022.2.4,MacIntel,59.99880002,,,,,,,,,,,,,,,,,,,,,,,,,,,,,,,,,,,,,,,,,,heengeen,images/br_heengeen.png,images/cb_heengeen.png,,heengee.,,,,,,,,,,,0.709314372,-0.122624919,1,0,0,heengee.,0,31,31,38,1
,,,,,,00081,2023-10-24_17h17.43.525,vbt_B1_day2,2022.2.4,MacIntel,59.99880002,,,,,,,,,,,,,,,,,,,,,,,,,,,,,,,,,,,,,,,,,,stes,images/br_stes.png,images/cb_stes.png,,stes,,,,,,,,,,,0.709314372,-0.122624919,1,0,0,stes,0,32,32,21,1
,,,,,,00081,2023-10-24_17h17.43.525,vbt_B1_day2,2022.2.4,MacIntel,59.99880002,,,,,,,,,,,,,,,,,,,,,,,,,,,,,,,,,,,,,,,,,,sora,images/br_sora.png,images/cb_sora.png,,sora,,,,,,,,,,,0.709314372,-0.122624919,1,0,0,sora,0,33,33,22,1
,,,,,,00081,2023-10-24_17h17.43.525,vbt_B1_day2,2022.2.4,MacIntel,59.99880002,,,,,,,,,,,,,,,,,,,,,,,,,,,,,,,,,,,,,,,,,,zwager,images/br_zwager.png,images/cb_zwager.png,,zwager,,,,,,,,,,,0.709314372,-0.122624919,1,0,0,zwager,0,34,34,49,1
,,,,,,00081,2023-10-24_17h17.43.525,vbt_B1_day2,2022.2.4,MacIntel,59.99880002,,,,,,,,,,,,,,,,,,,,,,,,,,,,,,,,,,,,,,,,,,trots,images/br_trots.png,images/cb_trots.png,,trots,,,,,,,,,,,0.709314372,-0.122624919,1,0,0,trots,0,35,35,44,1
,,,,,,00081,2023-10-24_17h17.43.525,vbt_B1_day2,2022.2.4,MacIntel,59.99880002,,,,,,,,,,,,,,,,,,,,,,,,,,,,,,,,,,,,,,,,,,thema,images/br_thema.png,images/cb_thema.png,,thema,,,,,,,,,,,0.709314372,-0.122624919,1,0,0,thema,0,36,36,47,1
,,,,,,00081,2023-10-24_17h17.43.525,vbt_B1_day2,2022.2.4,MacIntel,59.99880002,,,,,,,,,,,,,,,,,,,,,,,,,,,,,,,,,,,,,,,,,,blad,images/br_blad.png,images/cb_blad.png,,blad,,,,,,,,,,,0.709314372,-0.122624919,1,0,0,blad,0,37,37,1,1
,,,,,,00081,2023-10-24_17h17.43.525,vbt_B1_day2,2022.2.4,MacIntel,59.99880002,,,,,,,,,,,,,,,,,,,,,,,,,,,,,,,,,,,,,,,,,,jagen,images/br_jagen.png,images/cb_jagen.png,,jagen,,,,,,,,,,,0.709314372,-0.122624919,1,0,0,jagen,0,38,38,6,1
,,,,,,00081,2023-10-24_17h17.43.525,vbt_B1_day2,2022.2.4,MacIntel,59.99880002,,,,,,,,,,,,,,,,,,,,,,,,,,,,,,,,,,,,,,,,,,toeval,images/br_toeval.png,images/cb_toeval.png,,toeval,,,,,,,,,,,0.709314372,-0.122624919,1,0,0,toeval,0,39,39,11,1
,,,,,,00081,2023-10-24_17h17.43.525,vbt_B1_day2,2022.2.4,MacIntel,59.99880002,,,,,,,,,,,,,,,,,,,,,,,,,,,,,,,,,,,,,,,,,,kabel,images/br_kabel.png,images/cb_kabel.png,,kabel,,,,,,,,,,,0.709314372,-0.124621039,1,0,0,kabel,0,40,40,7,1
,,,,,,00081,2023-10-24_17h17.43.525,vbt_B1_day2,2022.2.4,MacIntel,59.99880002,,,,,,,,,,,,,,,,,,,,,,,,,,,,,,,,,,,,,,,,,,wijve,images/br_wijve.png,images/cb_wijve.png,,wijve,,,,,,,,,,,0.709314372,-0.124621039,1,0,0,wijve,0,41,41,27,1
,,,,,,00081,2023-10-24_17h17.43.525,vbt_B1_day2,2022.2.4,MacIntel,59.99880002,,,,,,,,,,,,,,,,,,,,,,,,,,,,,,,,,,,,,,,,,,heilig,images/br_heilig.png,images/cb_heilig.png,,heilig,,,,,,,,,,,0.709314372,-0.124621039,1,0,0,heilig,0,42,42,9,1
,,,,,,00081,2023-10-24_17h17.43.525,vbt_B1_day2,2022.2.4,MacIntel,59.99880002,,,,,,,,,,,,,,,,,,,,,,,,,,,,,,,,,,,,,,,,,,breuk,images/br_breuk.png,images/cb_breuk.png,,breuk,,,,,,,,,,,0.709314372,-0.124621039,1,0,0,breuk,0,43,43,45,1
,,,,,,00081,2023-10-24_17h17.43.525,vbt_B1_day2,2022.2.4,MacIntel,59.99880002,,,,,,,,,,,,,,,,,,,,,,,,,,,,,,,,,,,,,,,,,,flits,images/br_flits.png,images/cb_flits.png,,flits,,,,,,,,,,,0.709314372,-0.124621039,1,0,0,flits,0,44,44,4,1
,,,,,,00081,2023-10-24_17h17.43.525,vbt_B1_day2,2022.2.4,MacIntel,59.99880002,,,,,,,,,,,,,,,,,,,,,,,,,,,,,,,,,,,,,,,,,,manieren,images/br_manieren.png,images/cb_manieren.png,,manieren,,,,,,,,,,,0.709314372,-0.124621039,1,0,0,manieren,0,45,45,56,1
,,,,,,00081,2023-10-24_17h17.43.525,vbt_B1_day2,2022.2.4,MacIntel,59.99880002,,,,,,,,,,,,,,,,,,,,,,,,,,,,,,,,,,,,,,,,,,zegel,images/br_zegel.png,images/cb_zegel.png,,zegel,,,,,,,,,,,0.70719184,-0.129170736,1,0,0,zegel,0,46,46,46,1
,,,,,,00081,2023-10-24_17h17.43.525,vbt_B1_day2,2022.2.4,MacIntel,59.99880002,,,,,,,,,,,,,,,,,,,,,,,,,,,,,,,,,,,,,,,,,,eenhoorn,images/br_eenhoorn.png,images/cb_eenhoorn.png,,eenhoorn,,,,,,,,,,,0.70719184,-0.129170736,1,0,0,eenhoorn,0,47,47,19,1
,,,,,,00081,2023-10-24_17h17.43.525,vbt_B1_day2,2022.2.4,MacIntel,59.99880002,,,,,,,,,,,,,,,,,,,,,,,,,,,,,,,,,,,,,,,,,,tand,images/br_tand.png,images/cb_tand.png,,tand,,,,,,,,,,,0.70719184,-0.129170736,1,0,0,tand,0,48,48,42,1
,,,,,,00081,2023-10-24_17h17.43.525,vbt_B1_day2,2022.2.4,MacIntel,59.99880002,,,,,,,,,,,,,,,,,,,,,,,,,,,,,,,,,,,,,,,,,,lokken,images/br_lokken.png,images/cb_lokken.png,,lokken,,,,,,,,,,,0.70719184,-0.129170736,1,0,0,lokken,0,49,49,8,1
,,,,,,00081,2023-10-24_17h17.43.525,vbt_B1_day2,2022.2.4,MacIntel,59.99880002,,,,,,,,,,,,,,,,,,,,,,,,,,,,,,,,,,,,,,,,,,jong,images/br_jong.png,images/cb_jong.png,,jong,,,,,,,,,,,0.70719184,-0.129170736,1,0,0,jong,0,50,50,43,1
,,,,,,00081,2023-10-24_17h17.43.525,vbt_B1_day2,2022.2.4,MacIntel,59.99880002,,,,,,,,,,,,,,,,,,,,,,,,,,,,,,,,,,,,,,,,,,bereuwen,images/br_bereuwen.png,images/cb_bereuwen.png,,bereuwen,,,,,,,,,,,0.70719184,-0.129170736,1,0,0,bereuwen,0,51,51,39,1
,,,,,,00081,2023-10-24_17h17.43.525,vbt_B1_day2,2022.2.4,MacIntel,59.99880002,,,,,,,,,,,,,,,,,,,,,,,,,,,,,,,,,,,,,,,,,,strikken,images/br_strikken.png,images/cb_strikken.png,,strikken,,,,,,,,,,,0.70719184,-0.129170736,1,0,0,strikken,0,52,52,18,1
,,,,,,00081,2023-10-24_17h17.43.525,vbt_B1_day2,2022.2.4,MacIntel,59.99880002,,,,,,,,,,,,,,,,,,,,,,,,,,,,,,,,,,,,,,,,,,goon,images/br_goon.png,images/cb_goon.png,,goon,,,,,,,,,,,0.70719184,-0.129170736,1,0,0,goon,0,53,53,23,1
,,,,,,00081,2023-10-24_17h17.43.525,vbt_B1_day2,2022.2.4,MacIntel,59.99880002,,,,,,,,,,,,,,,,,,,,,,,,,,,,,,,,,,,,,,,,,,aanvraag,images/br_aanvraag.png,images/cb_aanvraag.png,,aanvraag,,,,,,,,,,,0.713284234,-0.125794271,1,0,0,aanvraag,0,54,54,57,1
,,,,,,00081,2023-10-24_17h17.43.525,vbt_B1_day2,2022.2.4,MacIntel,59.99880002,,,,,,,,,,,,,,,,,,,,,,,,,,,,,,,,,,,,,,,,,,welzijn,images/br_welzijn.png,images/cb_welzijn.png,,welzijn,,,,,,,,,,,0.713284234,-0.125794271,1,0,0,welzijn,0,55,55,52,1
,,,,,,00081,2023-10-24_17h17.43.525,vbt_B1_day2,2022.2.4,MacIntel,59.99880002,,,,,,,,,,,,,,,,,,,,,,,,,,,,,,,,,,,,,,,,,,krimmen,images/br_krimmen.png,images/cb_krimmen.png,,klimmen,,,,,,,,,,,0.713284234,-0.125794271,1,0,0,klimmen,0,56,56,35,1
,,,,,,00081,2023-10-24_17h17.43.525,vbt_B1_day2,2022.2.4,MacIntel,59.99880002,,,,,,,,,,,,,,,,,,,,,,,,,,,,,,,,,,,,,,,,,,agressie,images/br_agressie.png,images/cb_agressie.png,,agressie,,,,,,,,,,,0.713284234,-0.125794271,1,0,0,agressie,0,57,57,59,1
,,,,,,00081,2023-10-24_17h17.43.525,vbt_B1_day2,2022.2.4,MacIntel,59.99880002,,,,,,,,,,,,,,,,,,,,,,,,,,,,,,,,,,,,,,,,,,remel,images/br_remel.png,images/cb_remel.png,,remel,,,,,,,,,,,0.713284234,-0.125794271,1,0,0,remel,0,58,58,25,1
,,,,,,00081,2023-10-24_17h17.43.525,vbt_B1_day2,2022.2.4,MacIntel,59.99880002,,,,,,,,,,,,,,,,,,,,,,,,,,,,,,,,,,,,,,,,,,prekken,images/br_prekken.png,images/cb_prekken.png,,prekken,,,,,,,,,,,0.713284234,-0.125794271,1,0,0,prekken,0,59,59,34,1
,,,,,,00081,2023-10-24_17h17.43.525,vbt_B1_day2,2022.2.4,MacIntel,59.99880002,,,,,,,,,,,,,,,,,,,,,,,,,,,,,,,,,,,,,,,,,,,,,,,,,,,,,,,,,,,,,,,,,,,
