welcome_mouse.x,welcome_mouse.y,welcome_mouse.leftButton,welcome_mouse.midButton,welcome_mouse.rightButton,welcome_mouse.time,"ID",date,expName,psychopyVersion,OS,frameRate,refresh_mouse.x,refresh_mouse.y,refresh_mouse.leftButton,refresh_mouse.midButton,refresh_mouse.rightButton,refresh_mouse.time,braille_mouse.x,braille_mouse.y,braille_mouse.leftButton,braille_mouse.midButton,braille_mouse.rightButton,braille_mouse.time,trials.thisRepN,trials.thisTrialN,trials.thisN,trials.thisIndex,trials.ran,nlLet,brLet,cbLet,trainInstr_mouse.x,trainInstr_mouse.y,trainInstr_mouse.leftButton,trainInstr_mouse.midButton,trainInstr_mouse.rightButton,trainInstr_mouse.time,translation_key.keys,translation_key.corr,translation_key.rt,word_rsp.text,word_mouse.x,word_mouse.y,word_mouse.leftButton,word_mouse.midButton,word_mouse.rightButton,word_mouse.time,train_loop.thisRepN,train_loop.thisTrialN,train_loop.thisN,train_loop.thisIndex,train_loop.ran,nlWrd,brWrd,cbWrd,test,testResp,mouse.x,mouse.y,mouse.leftButton,mouse.midButton,mouse.rightButton,testInstr_mouse.x,testInstr_mouse.y,testInstr_mouse.leftButton,testInstr_mouse.midButton,testInstr_mouse.rightButton,test_mouse.x,test_mouse.y,test_mouse.leftButton,test_mouse.midButton,test_mouse.rightButton,test_response.text,test_loop.thisRepN,test_loop.thisTrialN,test_loop.thisN,test_loop.thisIndex,test_loop.ran
0.488888917,0.046296296,1,0,0,6.2539,00082,2023-10-22_21h26.06.708,vbt_B1_day2,2022.2.4,Win32,60.0528465,,,,,,,,,,,,,,,,,,,,,,,,,,,,,,,,,,,,,,,,,,,,,,,,,,,,,,,,,,,,,,,,,,,
,,,,,,00082,2023-10-22_21h26.06.708,vbt_B1_day2,2022.2.4,Win32,60.0528465,0.488888917,0.046296296,1,0,0,5.1325,,,,,,,,,,,,,,,,,,,,,,,,,,,,,,,,,,,,,,,,,,,,,,,,,,,,,,,,,,,,,
,,,,,,00082,2023-10-22_21h26.06.708,vbt_B1_day2,2022.2.4,Win32,60.0528465,,,,,,,0.453703704,0.174999979,1,0,0,7.7105,0,0,0,16,1,q,images/br_q.png,images/cb_q.png,,,,,,,,,,,,,,,,,,,,,,,,,,,,,,,,,,,,,,,,,,,,,,,
,,,,,,00082,2023-10-22_21h26.06.708,vbt_B1_day2,2022.2.4,Win32,60.0528465,,,,,,,0.503703788,0.147222201,1,0,0,0.3166,0,1,1,11,1,l,images/br_l.png,images/cb_l.png,,,,,,,,,,,,,,,,,,,,,,,,,,,,,,,,,,,,,,,,,,,,,,,
,,,,,,00082,2023-10-22_21h26.06.708,vbt_B1_day2,2022.2.4,Win32,60.0528465,,,,,,,0.49537037,0.16111109,1,0,0,4.3696,0,2,2,7,1,h,images/br_h.png,images/cb_h.png,,,,,,,,,,,,,,,,,,,,,,,,,,,,,,,,,,,,,,,,,,,,,,,
,,,,,,00082,2023-10-22_21h26.06.708,vbt_B1_day2,2022.2.4,Win32,60.0528465,,,,,,,0.410185213,0.097222222,1,0,0,0.999,0,3,3,21,1,v,images/br_v.png,images/cb_v.png,,,,,,,,,,,,,,,,,,,,,,,,,,,,,,,,,,,,,,,,,,,,,,,
,,,,,,00082,2023-10-22_21h26.06.708,vbt_B1_day2,2022.2.4,Win32,60.0528465,,,,,,,0.389814871,0.1175926,1,0,0,3.0138,0,4,4,18,1,s,images/br_s.png,images/cb_s.png,,,,,,,,,,,,,,,,,,,,,,,,,,,,,,,,,,,,,,,,,,,,,,,
,,,,,,00082,2023-10-22_21h26.06.708,vbt_B1_day2,2022.2.4,Win32,60.0528465,,,,,,,0.389814871,0.1175926,1,0,0,0.5496,0,5,5,9,1,j,images/br_j.png,images/cb_j.png,,,,,,,,,,,,,,,,,,,,,,,,,,,,,,,,,,,,,,,,,,,,,,,
,,,,,,00082,2023-10-22_21h26.06.708,vbt_B1_day2,2022.2.4,Win32,60.0528465,,,,,,,0.464814787,0.094444452,1,0,0,7.9254,0,6,6,22,1,w,images/br_w.png,images/cb_w.png,,,,,,,,,,,,,,,,,,,,,,,,,,,,,,,,,,,,,,,,,,,,,,,
,,,,,,00082,2023-10-22_21h26.06.708,vbt_B1_day2,2022.2.4,Win32,60.0528465,,,,,,,0.252777806,-0.060185185,1,0,0,0.5765,0,7,7,6,1,g,images/br_g.png,images/cb_g.png,,,,,,,,,,,,,,,,,,,,,,,,,,,,,,,,,,,,,,,,,,,,,,,
,,,,,,00082,2023-10-22_21h26.06.708,vbt_B1_day2,2022.2.4,Win32,60.0528465,,,,,,,0.429629714,-0.019444466,1,0,0,1.7879,0,8,8,1,1,b,images/br_b.png,images/cb_b.png,,,,,,,,,,,,,,,,,,,,,,,,,,,,,,,,,,,,,,,,,,,,,,,
,,,,,,00082,2023-10-22_21h26.06.708,vbt_B1_day2,2022.2.4,Win32,60.0528465,,,,,,,0.354629658,0.025000007,1,0,0,4.7951,0,9,9,4,1,e,images/br_e.png,images/cb_e.png,,,,,,,,,,,,,,,,,,,,,,,,,,,,,,,,,,,,,,,,,,,,,,,
,,,,,,00082,2023-10-22_21h26.06.708,vbt_B1_day2,2022.2.4,Win32,60.0528465,,,,,,,0.382407436,0.147222201,1,0,0,0.6323,0,10,10,15,1,p,images/br_p.png,images/cb_p.png,,,,,,,,,,,,,,,,,,,,,,,,,,,,,,,,,,,,,,,,,,,,,,,
,,,,,,00082,2023-10-22_21h26.06.708,vbt_B1_day2,2022.2.4,Win32,60.0528465,,,,,,,0.386111083,0.112037023,1,0,0,0.0833,0,11,11,23,1,x,images/br_x.png,images/cb_x.png,,,,,,,,,,,,,,,,,,,,,,,,,,,,,,,,,,,,,,,,,,,,,,,
,,,,,,00082,2023-10-22_21h26.06.708,vbt_B1_day2,2022.2.4,Win32,60.0528465,,,,,,,0.325925898,0.060185185,1,0,0,3.4133,0,12,12,25,1,z,images/br_z.png,images/cb_z.png,,,,,,,,,,,,,,,,,,,,,,,,,,,,,,,,,,,,,,,,,,,,,,,
,,,,,,00082,2023-10-22_21h26.06.708,vbt_B1_day2,2022.2.4,Win32,60.0528465,,,,,,,0.325925898,0.060185185,1,0,0,0.8491,0,13,13,8,1,i,images/br_i.png,images/cb_i.png,,,,,,,,,,,,,,,,,,,,,,,,,,,,,,,,,,,,,,,,,,,,,,,
,,,,,,00082,2023-10-22_21h26.06.708,vbt_B1_day2,2022.2.4,Win32,60.0528465,,,,,,,0.300000085,0.048148155,1,0,0,1.848,0,14,14,20,1,u,images/br_u.png,images/cb_u.png,,,,,,,,,,,,,,,,,,,,,,,,,,,,,,,,,,,,,,,,,,,,,,,
,,,,,,00082,2023-10-22_21h26.06.708,vbt_B1_day2,2022.2.4,Win32,60.0528465,,,,,,,0.299074102,0.056481467,1,0,0,0.6327,0,15,15,19,1,t,images/br_t.png,images/cb_t.png,,,,,,,,,,,,,,,,,,,,,,,,,,,,,,,,,,,,,,,,,,,,,,,
,,,,,,00082,2023-10-22_21h26.06.708,vbt_B1_day2,2022.2.4,Win32,60.0528465,,,,,,,0.369444529,0.012962942,1,0,0,0.999,0,16,16,14,1,o,images/br_o.png,images/cb_o.png,,,,,,,,,,,,,,,,,,,,,,,,,,,,,,,,,,,,,,,,,,,,,,,
,,,,,,00082,2023-10-22_21h26.06.708,vbt_B1_day2,2022.2.4,Win32,60.0528465,,,,,,,0.36018527,0.01944443,1,0,0,1.7651,0,17,17,10,1,k,images/br_k.png,images/cb_k.png,,,,,,,,,,,,,,,,,,,,,,,,,,,,,,,,,,,,,,,,,,,,,,,
,,,,,,00082,2023-10-22_21h26.06.708,vbt_B1_day2,2022.2.4,Win32,60.0528465,,,,,,,0.352777834,0.01203703,1,0,0,14.4024,0,18,18,12,1,m,images/br_m.png,images/cb_m.png,,,,,,,,,,,,,,,,,,,,,,,,,,,,,,,,,,,,,,,,,,,,,,,
,,,,,,00082,2023-10-22_21h26.06.708,vbt_B1_day2,2022.2.4,Win32,60.0528465,,,,,,,0.385185242,0.025925919,1,0,0,1.132,0,19,19,0,1,a,images/br_a.png,images/cb_a.png,,,,,,,,,,,,,,,,,,,,,,,,,,,,,,,,,,,,,,,,,,,,,,,
,,,,,,00082,2023-10-22_21h26.06.708,vbt_B1_day2,2022.2.4,Win32,60.0528465,,,,,,,0.381481453,-0.012962977,1,0,0,1.7816,0,20,20,5,1,f,images/br_f.png,images/cb_f.png,,,,,,,,,,,,,,,,,,,,,,,,,,,,,,,,,,,,,,,,,,,,,,,
,,,,,,00082,2023-10-22_21h26.06.708,vbt_B1_day2,2022.2.4,Win32,60.0528465,,,,,,,0.381481453,-0.012962977,1,0,0,1.2653,0,21,21,13,1,n,images/br_n.png,images/cb_n.png,,,,,,,,,,,,,,,,,,,,,,,,,,,,,,,,,,,,,,,,,,,,,,,
,,,,,,00082,2023-10-22_21h26.06.708,vbt_B1_day2,2022.2.4,Win32,60.0528465,,,,,,,0.431481538,-0.015740748,1,0,0,0.0167,0,22,22,17,1,r,images/br_r.png,images/cb_r.png,,,,,,,,,,,,,,,,,,,,,,,,,,,,,,,,,,,,,,,,,,,,,,,
,,,,,,00082,2023-10-22_21h26.06.708,vbt_B1_day2,2022.2.4,Win32,60.0528465,,,,,,,0.431481538,-0.015740748,1,0,0,0.8825,0,23,23,3,1,d,images/br_d.png,images/cb_d.png,,,,,,,,,,,,,,,,,,,,,,,,,,,,,,,,,,,,,,,,,,,,,,,
,,,,,,00082,2023-10-22_21h26.06.708,vbt_B1_day2,2022.2.4,Win32,60.0528465,,,,,,,0.431481538,-0.015740748,1,0,0,1.149,0,24,24,24,1,y,images/br_y.png,images/cb_y.png,,,,,,,,,,,,,,,,,,,,,,,,,,,,,,,,,,,,,,,,,,,,,,,
,,,,,,00082,2023-10-22_21h26.06.708,vbt_B1_day2,2022.2.4,Win32,60.0528465,,,,,,,0.346296381,-0.052777785,1,0,0,0.6495,0,25,25,2,1,c,images/br_c.png,images/cb_c.png,,,,,,,,,,,,,,,,,,,,,,,,,,,,,,,,,,,,,,,,,,,,,,,
,,,,,,00082,2023-10-22_21h26.06.708,vbt_B1_day2,2022.2.4,Win32,60.0528465,,,,,,,,,,,,,,,,,,,,,0.395370342,-0.035185178,1,0,0,78.2212,,,,,,,,,,,,,,,,,,,,,,,,,,,,,,,,,,,,,,,,,
,,,,,,00082,2023-10-22_21h26.06.708,vbt_B1_day2,2022.2.4,Win32,60.0528465,,,,,,,,,,,,,,,,,,,,,,,,,,,down,0,15.632,,0.388888889,0.092592593,1,0,0,10.0732,0,0,0,174,1,stemming,images/br_stemming.png,images/cb_stemming.png,0,,,,,,,,,,,,,,,,,,,,,,
,,,,,,00082,2023-10-22_21h26.06.708,vbt_B1_day2,2022.2.4,Win32,60.0528465,,,,,,,,,,,,,,,,,,,,,,,,,,,down,0,20.2026,,0.393518519,0.296296296,1,0,0,12.1546,0,1,1,158,1,innemen,images/br_innemen.png,images/cb_innemen.png,0,,,,,,,,,,,,,,,,,,,,,,
,,,,,,00082,2023-10-22_21h26.06.708,vbt_B1_day2,2022.2.4,Win32,60.0528465,,,,,,,,,,,,,,,,,,,,,,,,,,,down,0,12.2881,,0.644444501,0.101851852,1,0,0,11.1885,0,2,2,191,1,opheffen,images/br_opheffen.png,images/cb_opheffen.png,0,,,,,,,,,,,,,,,,,,,,,,
,,,,,,00082,2023-10-22_21h26.06.708,vbt_B1_day2,2022.2.4,Win32,60.0528465,,,,,,,,,,,,,,,,,,,,,,,,,,,down,0,34.3872,,0.160185213,0.026851831,1,0,0,12.1879,0,3,3,184,1,aandelen,images/br_aandelen.png,images/cb_aandelen.png,0,,,,,,,,,,,,,,,,,,,,,,
,,,,,,00082,2023-10-22_21h26.06.708,vbt_B1_day2,2022.2.4,Win32,60.0528465,,,,,,,,,,,,,,,,,,,,,,,,,,,down,0,8.3024,,0.335185157,0.103703711,1,0,0,1.1823,0,4,4,11,1,mode,images/br_mode.png,images/cb_mode.png,0,,,,,,,,,,,,,,,,,,,,,,
,,,,,,00082,2023-10-22_21h26.06.708,vbt_B1_day2,2022.2.4,Win32,60.0528465,,,,,,,,,,,,,,,,,,,,,,,,,,,down,0,5.971,,0.335185157,0.103703711,1,0,0,1.8148,0,5,5,2,1,jaar,images/br_jaar.png,images/cb_jaar.png,0,,,,,,,,,,,,,,,,,,,,,,
,,,,,,00082,2023-10-22_21h26.06.708,vbt_B1_day2,2022.2.4,Win32,60.0528465,,,,,,,,,,,,,,,,,,,,,,,,,,,down,0,3.4242,,0.33148151,0.102777764,1,0,0,1.1818,0,6,6,13,1,kaal,images/br_kaal.png,images/cb_kaal.png,0,,,,,,,,,,,,,,,,,,,,,,
,,,,,,00082,2023-10-22_21h26.06.708,vbt_B1_day2,2022.2.4,Win32,60.0528465,,,,,,,,,,,,,,,,,,,,,,,,,,,down,0,4.9372,,0.33148151,0.102777764,1,0,0,5.1445,0,7,7,79,1,nodig,images/br_nodig.png,images/cb_nodig.png,0,,,,,,,,,,,,,,,,,,,,,,
,,,,,,00082,2023-10-22_21h26.06.708,vbt_B1_day2,2022.2.4,Win32,60.0528465,,,,,,,,,,,,,,,,,,,,,,,,,,,down,0,6.7959,,0.327777863,0.1175926,1,0,0,5.5616,0,8,8,77,1,woede,images/br_woede.png,images/cb_woede.png,0,,,,,,,,,,,,,,,,,,,,,,
,,,,,,00082,2023-10-22_21h26.06.708,vbt_B1_day2,2022.2.4,Win32,60.0528465,,,,,,,,,,,,,,,,,,,,,,,,,,,down,0,10.2742,,0.327777863,0.1175926,1,0,0,9.3071,0,9,9,170,1,schatten,images/br_schatten.png,images/cb_schatten.png,0,,,,,,,,,,,,,,,,,,,,,,
,,,,,,00082,2023-10-22_21h26.06.708,vbt_B1_day2,2022.2.4,Win32,60.0528465,,,,,,,,,,,,,,,,,,,,,,,,,,,down,0,17.1433,,0.327777863,0.1175926,1,0,0,1.7982,0,10,10,195,1,middelen,images/br_middelen.png,images/cb_middelen.png,0,,,,,,,,,,,,,,,,,,,,,,
,,,,,,00082,2023-10-22_21h26.06.708,vbt_B1_day2,2022.2.4,Win32,60.0528465,,,,,,,,,,,,,,,,,,,,,,,,,,,down,0,8.463,,0.327777863,0.1175926,1,0,0,0.8323,0,11,11,115,1,kleren,images/br_kleren.png,images/cb_kleren.png,0,,,,,,,,,,,,,,,,,,,,,,
,,,,,,00082,2023-10-22_21h26.06.708,vbt_B1_day2,2022.2.4,Win32,60.0528465,,,,,,,,,,,,,,,,,,,,,,,,,,,down,0,3.0186,,0.327777863,0.1175926,1,0,0,0.7158,0,12,12,31,1,poes,images/br_poes.png,images/cb_poes.png,0,,,,,,,,,,,,,,,,,,,,,,
,,,,,,00082,2023-10-22_21h26.06.708,vbt_B1_day2,2022.2.4,Win32,60.0528465,,,,,,,,,,,,,,,,,,,,,,,,,,,down,0,5.0027,,0.327777863,0.1175926,1,0,0,0.7159,0,13,13,0,1,slak,images/br_slak.png,images/cb_slak.png,0,,,,,,,,,,,,,,,,,,,,,,
,,,,,,00082,2023-10-22_21h26.06.708,vbt_B1_day2,2022.2.4,Win32,60.0528465,,,,,,,,,,,,,,,,,,,,,,,,,,,down,0,12.1391,,0.373148176,-0.00462963,1,0,0,0.6662,0,14,14,126,1,kasteel,images/br_kasteel.png,images/cb_kasteel.png,0,,,,,,,,,,,,,,,,,,,,,,
,,,,,,00082,2023-10-22_21h26.06.708,vbt_B1_day2,2022.2.4,Win32,60.0528465,,,,,,,,,,,,,,,,,,,,,,,,,,,down,0,5.129,,0.227777764,-0.014814836,1,0,0,1.948,0,15,15,53,1,baron,images/br_baron.png,images/cb_baron.png,0,,,,,,,,,,,,,,,,,,,,,,
,,,,,,00082,2023-10-22_21h26.06.708,vbt_B1_day2,2022.2.4,Win32,60.0528465,,,,,,,,,,,,,,,,,,,,,,,,,,,down,0,7.7433,,0.227777764,-0.014814836,1,0,0,0.6993,0,16,16,85,1,heilig,images/br_heilig.png,images/cb_heilig.png,0,,,,,,,,,,,,,,,,,,,,,,
,,,,,,00082,2023-10-22_21h26.06.708,vbt_B1_day2,2022.2.4,Win32,60.0528465,,,,,,,,,,,,,,,,,,,,,,,,,,,down,0,13.8046,,0.227777764,-0.014814836,1,0,0,8.475,0,17,17,153,1,vervoer,images/br_vervoer.png,images/cb_vervoer.png,0,,,,,,,,,,,,,,,,,,,,,,
,,,,,,00082,2023-10-22_21h26.06.708,vbt_B1_day2,2022.2.4,Win32,60.0528465,,,,,,,,,,,,,,,,,,,,,,,,,,,down,0,43.6782,,0.227777764,-0.014814836,1,0,0,9.3409,0,18,18,52,1,wagon,images/br_wagon.png,images/cb_wagon.png,0,,,,,,,,,,,,,,,,,,,,,,
,,,,,,00082,2023-10-22_21h26.06.708,vbt_B1_day2,2022.2.4,Win32,60.0528465,,,,,,,,,,,,,,,,,,,,,,,,,,,down,0,17.1908,,0.227777764,-0.014814836,1,0,0,22.411,0,19,19,35,1,lust,images/br_lust.png,images/cb_lust.png,0,,,,,,,,,,,,,,,,,,,,,,
,,,,,,00082,2023-10-22_21h26.06.708,vbt_B1_day2,2022.2.4,Win32,60.0528465,,,,,,,,,,,,,,,,,,,,,,,,,,,down,0,22.462,,0.227777764,-0.014814836,1,0,0,4.6122,0,20,20,98,1,kreeft,images/br_kreeft.png,images/cb_kreeft.png,1,kreeftkreeft,,,,,,,,,,,,,,,,,,,,,
,,,,,,00082,2023-10-22_21h26.06.708,vbt_B1_day2,2022.2.4,Win32,60.0528465,,,,,,,,,,,,,,,,,,,,,,,,,,,down,0,9.4117,,0.305555556,-0.051851873,1,0,0,1.3828,0,21,21,139,1,stiekem,images/br_stiekem.png,images/cb_stiekem.png,1,stiekem,,,,,,,,,,,,,,,,,,,,,
,,,,,,00082,2023-10-22_21h26.06.708,vbt_B1_day2,2022.2.4,Win32,60.0528465,,,,,,,,,,,,,,,,,,,,,,,,,,,down,0,5.471,,0.42777775,-0.116666653,1,0,0,3.2634,0,22,22,25,1,plek,images/br_plek.png,images/cb_plek.png,0,,,,,,,,,,,,,,,,,,,,,,
,,,,,,00082,2023-10-22_21h26.06.708,vbt_B1_day2,2022.2.4,Win32,60.0528465,,,,,,,,,,,,,,,,,,,,,,,,,,,down,0,17.6683,,0.53333339,0.00462963,1,0,0,1.132,0,23,23,185,1,mijnheer,images/br_mijnheer.png,images/cb_mijnheer.png,0,,,,,,,,,,,,,,,,,,,,,,
,,,,,,00082,2023-10-22_21h26.06.708,vbt_B1_day2,2022.2.4,Win32,60.0528465,,,,,,,,,,,,,,,,,,,,,,,,,,,down,0,18.4822,,0.524074131,0.086111104,1,0,0,1.2483,0,24,24,92,1,geheim,images/br_geheim.png,images/cb_geheim.png,0,,,,,,,,,,,,,,,,,,,,,,
,,,,,,00082,2023-10-22_21h26.06.708,vbt_B1_day2,2022.2.4,Win32,60.0528465,,,,,,,,,,,,,,,,,,,,,,,,,,,down,0,8.7831,,0.524999972,0.092592593,1,0,0,0.982,0,25,25,169,1,oprotten,images/br_oprotten.png,images/cb_oprotten.png,0,,,,,,,,,,,,,,,,,,,,,,
,,,,,,00082,2023-10-22_21h26.06.708,vbt_B1_day2,2022.2.4,Win32,60.0528465,,,,,,,,,,,,,,,,,,,,,,,,,,,down,0,12.3297,,0.531481566,0.100925905,1,0,0,1.0656,0,26,26,45,1,piste,images/br_piste.png,images/cb_piste.png,0,,,,,,,,,,,,,,,,,,,,,,
,,,,,,00082,2023-10-22_21h26.06.708,vbt_B1_day2,2022.2.4,Win32,60.0528465,,,,,,,,,,,,,,,,,,,,,,,,,,,down,0,6.071,,0.529629601,0.102777764,1,0,0,0.5661,0,27,27,68,1,schat,images/br_schat.png,images/cb_schat.png,0,,,,,,,,,,,,,,,,,,,,,,
,,,,,,00082,2023-10-22_21h26.06.708,vbt_B1_day2,2022.2.4,Win32,60.0528465,,,,,,,,,,,,,,,,,,,,,,,,,,,down,0,32.0774,,0.531481566,0.102777764,1,0,0,1.0826,0,28,28,145,1,invloed,images/br_invloed.png,images/cb_invloed.png,0,,,,,,,,,,,,,,,,,,,,,,
,,,,,,00082,2023-10-22_21h26.06.708,vbt_B1_day2,2022.2.4,Win32,60.0528465,,,,,,,,,,,,,,,,,,,,,,,,,,,down,0,14.6033,,0.531481566,0.102777764,1,0,0,0.7824,0,29,29,154,1,aflopen,images/br_aflopen.png,images/cb_aflopen.png,0,,,,,,,,,,,,,,,,,,,,,,
,,,,,,00082,2023-10-22_21h26.06.708,vbt_B1_day2,2022.2.4,Win32,60.0528465,,,,,,,,,,,,,,,,,,,,,,,,,,,down,0,9.8601,,0.531481566,0.102777764,1,0,0,1.099,0,30,30,136,1,waarbij,images/br_waarbij.png,images/cb_waarbij.png,1,waarbij,,,,,,,,,,,,,,,,,,,,,
,,,,,,00082,2023-10-22_21h26.06.708,vbt_B1_day2,2022.2.4,Win32,60.0528465,,,,,,,,,,,,,,,,,,,,,,,,,,,down,0,7.3773,,0.531481566,0.102777764,1,0,0,0.7492,0,31,31,180,1,openbaar,images/br_openbaar.png,images/cb_openbaar.png,0,,,,,,,,,,,,,,,,,,,,,,
,,,,,,00082,2023-10-22_21h26.06.708,vbt_B1_day2,2022.2.4,Win32,60.0528465,,,,,,,,,,,,,,,,,,,,,,,,,,,down,0,9.08,,0.531481566,0.102777764,1,0,0,2.0979,0,32,32,44,1,flits,images/br_flits.png,images/cb_flits.png,0,,,,,,,,,,,,,,,,,,,,,,
,,,,,,00082,2023-10-22_21h26.06.708,vbt_B1_day2,2022.2.4,Win32,60.0528465,,,,,,,,,,,,,,,,,,,,,,,,,,,down,0,86.0657,,0.531481566,0.102777764,1,0,0,0.7492,0,33,33,75,1,snoep,images/br_snoep.png,images/cb_snoep.png,0,,,,,,,,,,,,,,,,,,,,,,
,,,,,,00082,2023-10-22_21h26.06.708,vbt_B1_day2,2022.2.4,Win32,60.0528465,,,,,,,,,,,,,,,,,,,,,,,,,,,down,0,11.7752,,0.531481566,0.102777764,1,0,0,0.8489,0,34,34,157,1,uitlaat,images/br_uitlaat.png,images/cb_uitlaat.png,0,,,,,,,,,,,,,,,,,,,,,,
,,,,,,00082,2023-10-22_21h26.06.708,vbt_B1_day2,2022.2.4,Win32,60.0528465,,,,,,,,,,,,,,,,,,,,,,,,,,,down,0,7.8704,,0.531481566,0.102777764,1,0,0,0.7325,0,35,35,133,1,seizoen,images/br_seizoen.png,images/cb_seizoen.png,0,,,,,,,,,,,,,,,,,,,,,,
,,,,,,00082,2023-10-22_21h26.06.708,vbt_B1_day2,2022.2.4,Win32,60.0528465,,,,,,,,,,,,,,,,,,,,,,,,,,,down,0,6.6272,,0.531481566,0.102777764,1,0,0,1.0155,0,36,36,34,1,vorm,images/br_vorm.png,images/cb_vorm.png,0,,,,,,,,,,,,,,,,,,,,,,
,,,,,,00082,2023-10-22_21h26.06.708,vbt_B1_day2,2022.2.4,Win32,60.0528465,,,,,,,,,,,,,,,,,,,,,,,,,,,down,0,17.8868,,0.36018527,0.052777785,1,0,0,2.0313,0,37,37,74,1,graaf,images/br_graaf.png,images/cb_graaf.png,0,,,,,,,,,,,,,,,,,,,,,,
,,,,,,00082,2023-10-22_21h26.06.708,vbt_B1_day2,2022.2.4,Win32,60.0528465,,,,,,,,,,,,,,,,,,,,,,,,,,,down,0,27.8732,,0.36018527,0.052777785,1,0,0,2.732,0,38,38,9,1,hier,images/br_hier.png,images/cb_hier.png,0,,,,,,,,,,,,,,,,,,,,,,
,,,,,,00082,2023-10-22_21h26.06.708,vbt_B1_day2,2022.2.4,Win32,60.0528465,,,,,,,,,,,,,,,,,,,,,,,,,,,down,0,20.131,,0.306481538,0.118518511,1,0,0,1.0157,0,39,39,156,1,rechten,images/br_rechten.png,images/cb_rechten.png,0,,,,,,,,,,,,,,,,,,,,,,
,,,,,,00082,2023-10-22_21h26.06.708,vbt_B1_day2,2022.2.4,Win32,60.0528465,,,,,,,,,,,,,,,,,,,,,,,,,,,down,0,7.833,,0.306481538,0.118518511,1,0,0,0.9318,0,40,40,190,1,goedkoop,images/br_goedkoop.png,images/cb_goedkoop.png,0,,,,,,,,,,,,,,,,,,,,,,
,,,,,,00082,2023-10-22_21h26.06.708,vbt_B1_day2,2022.2.4,Win32,60.0528465,,,,,,,,,,,,,,,,,,,,,,,,,,,down,0,9.4079,,0.306481538,0.118518511,1,0,0,2.0644,0,41,41,65,1,parel,images/br_parel.png,images/cb_parel.png,0,,,,,,,,,,,,,,,,,,,,,,
,,,,,,00082,2023-10-22_21h26.06.708,vbt_B1_day2,2022.2.4,Win32,60.0528465,,,,,,,,,,,,,,,,,,,,,,,,,,,down,0,6.8443,,0.306481538,0.118518511,1,0,0,0.6827,0,42,42,109,1,totaal,images/br_totaal.png,images/cb_totaal.png,0,,,,,,,,,,,,,,,,,,,,,,
,,,,,,00082,2023-10-22_21h26.06.708,vbt_B1_day2,2022.2.4,Win32,60.0528465,,,,,,,,,,,,,,,,,,,,,,,,,,,down,0,3.9214,,0.306481538,0.118518511,1,0,0,0.6325,0,43,43,188,1,strekken,images/br_strekken.png,images/cb_strekken.png,0,,,,,,,,,,,,,,,,,,,,,,
,,,,,,00082,2023-10-22_21h26.06.708,vbt_B1_day2,2022.2.4,Win32,60.0528465,,,,,,,,,,,,,,,,,,,,,,,,,,,down,0,7.8315,,0.306481538,0.118518511,1,0,0,3.0633,0,44,44,99,1,koffie,images/br_koffie.png,images/cb_koffie.png,1,koffie,,,,,,,,,,,,,,,,,,,,,
,,,,,,00082,2023-10-22_21h26.06.708,vbt_B1_day2,2022.2.4,Win32,60.0528465,,,,,,,,,,,,,,,,,,,,,,,,,,,down,0,4.0136,,0.306481538,0.118518511,1,0,0,0.7323,0,45,45,84,1,lokken,images/br_lokken.png,images/cb_lokken.png,0,,,,,,,,,,,,,,,,,,,,,,
,,,,,,00082,2023-10-22_21h26.06.708,vbt_B1_day2,2022.2.4,Win32,60.0528465,,,,,,,,,,,,,,,,,,,,,,,,,,,down,0,0.6679,,0.306481538,0.118518511,1,0,0,0.7491,0,46,46,39,1,laag,images/br_laag.png,images/cb_laag.png,0,,,,,,,,,,,,,,,,,,,,,,
,,,,,,00082,2023-10-22_21h26.06.708,vbt_B1_day2,2022.2.4,Win32,60.0528465,,,,,,,,,,,,,,,,,,,,,,,,,,,down,0,8.6271,,0.306481538,0.118518511,1,0,0,0.9823,0,47,47,168,1,bisschop,images/br_bisschop.png,images/cb_bisschop.png,0,,,,,,,,,,,,,,,,,,,,,,
,,,,,,00082,2023-10-22_21h26.06.708,vbt_B1_day2,2022.2.4,Win32,60.0528465,,,,,,,,,,,,,,,,,,,,,,,,,,,down,0,23.6775,,0.306481538,0.118518511,1,0,0,15.3681,0,48,48,193,1,weeshuis,images/br_weeshuis.png,images/cb_weeshuis.png,0,,,,,,,,,,,,,,,,,,,,,,
,,,,,,00082,2023-10-22_21h26.06.708,vbt_B1_day2,2022.2.4,Win32,60.0528465,,,,,,,,,,,,,,,,,,,,,,,,,,,down,0,7.3245,,0.306481538,0.118518511,1,0,0,5.5776,0,49,49,107,1,maling,images/br_maling.png,images/cb_maling.png,0,,,,,,,,,,,,,,,,,,,,,,
,,,,,,00082,2023-10-22_21h26.06.708,vbt_B1_day2,2022.2.4,Win32,60.0528465,,,,,,,,,,,,,,,,,,,,,,,,,,,down,0,3.4308,,0.306481538,0.118518511,1,0,0,0.899,0,50,50,112,1,lukken,images/br_lukken.png,images/cb_lukken.png,0,,,,,,,,,,,,,,,,,,,,,,
,,,,,,00082,2023-10-22_21h26.06.708,vbt_B1_day2,2022.2.4,Win32,60.0528465,,,,,,,,,,,,,,,,,,,,,,,,,,,down,0,13.1437,,0.306481538,0.118518511,1,0,0,1.1323,0,51,51,163,1,schuilen,images/br_schuilen.png,images/cb_schuilen.png,0,,,,,,,,,,,,,,,,,,,,,,
,,,,,,00082,2023-10-22_21h26.06.708,vbt_B1_day2,2022.2.4,Win32,60.0528465,,,,,,,,,,,,,,,,,,,,,,,,,,,down,0,5.7044,,0.306481538,0.118518511,1,0,0,0.8152,0,52,52,167,1,eenhoorn,images/br_eenhoorn.png,images/cb_eenhoorn.png,0,,,,,,,,,,,,,,,,,,,,,,
,,,,,,00082,2023-10-22_21h26.06.708,vbt_B1_day2,2022.2.4,Win32,60.0528465,,,,,,,,,,,,,,,,,,,,,,,,,,,down,0,9.3241,,0.347222222,0.077777757,1,0,0,7.3426,0,53,53,147,1,komisch,images/br_komisch.png,images/cb_komisch.png,0,,,,,,,,,,,,,,,,,,,,,,
,,,,,,00082,2023-10-22_21h26.06.708,vbt_B1_day2,2022.2.4,Win32,60.0528465,,,,,,,,,,,,,,,,,,,,,,,,,,,down,0,5.5796,,0.347222222,0.077777757,1,0,0,0.7158,0,54,54,128,1,prikken,images/br_prikken.png,images/cb_prikken.png,0,,,,,,,,,,,,,,,,,,,,,,
,,,,,,00082,2023-10-22_21h26.06.708,vbt_B1_day2,2022.2.4,Win32,60.0528465,,,,,,,,,,,,,,,,,,,,,,,,,,,down,0,1.4849,,0.347222222,0.077777757,1,0,0,0.7323,0,55,55,89,1,slapen,images/br_slapen.png,images/cb_slapen.png,0,,,,,,,,,,,,,,,,,,,,,,
,,,,,,00082,2023-10-22_21h26.06.708,vbt_B1_day2,2022.2.4,Win32,60.0528465,,,,,,,,,,,,,,,,,,,,,,,,,,,down,0,3.623,,0.347222222,0.077777757,1,0,0,1.2156,0,56,56,173,1,apparaat,images/br_apparaat.png,images/cb_apparaat.png,0,,,,,,,,,,,,,,,,,,,,,,
,,,,,,00082,2023-10-22_21h26.06.708,vbt_B1_day2,2022.2.4,Win32,60.0528465,,,,,,,,,,,,,,,,,,,,,,,,,,,down,0,3.588,,0.347222222,0.077777757,1,0,0,5.8608,0,57,57,46,1,jagen,images/br_jagen.png,images/cb_jagen.png,0,,,,,,,,,,,,,,,,,,,,,,
,,,,,,00082,2023-10-22_21h26.06.708,vbt_B1_day2,2022.2.4,Win32,60.0528465,,,,,,,,,,,,,,,,,,,,,,,,,,,down,0,9.6608,,0.347222222,0.077777757,1,0,0,1.1822,0,58,58,186,1,voorraad,images/br_voorraad.png,images/cb_voorraad.png,0,,,,,,,,,,,,,,,,,,,,,,
,,,,,,00082,2023-10-22_21h26.06.708,vbt_B1_day2,2022.2.4,Win32,60.0528465,,,,,,,,,,,,,,,,,,,,,,,,,,,down,0,3.5979,,0.347222222,0.077777757,1,0,0,1.1651,0,59,59,91,1,gezond,images/br_gezond.png,images/cb_gezond.png,0,,,,,,,,,,,,,,,,,,,,,,
,,,,,,00082,2023-10-22_21h26.06.708,vbt_B1_day2,2022.2.4,Win32,60.0528465,,,,,,,,,,,,,,,,,,,,,,,,,,,down,0,7.4995,,0.347222222,0.077777757,1,0,0,2.5143,0,60,60,179,1,woestijn,images/br_woestijn.png,images/cb_woestijn.png,1,woestijn,,,,,,,,,,,,,,,,,,,,,
,,,,,,00082,2023-10-22_21h26.06.708,vbt_B1_day2,2022.2.4,Win32,60.0528465,,,,,,,,,,,,,,,,,,,,,,,,,,,down,0,5.4047,,0.347222222,0.077777757,1,0,0,0.8657,0,61,61,104,1,zweven,images/br_zweven.png,images/cb_zweven.png,0,,,,,,,,,,,,,,,,,,,,,,
,,,,,,00082,2023-10-22_21h26.06.708,vbt_B1_day2,2022.2.4,Win32,60.0528465,,,,,,,,,,,,,,,,,,,,,,,,,,,down,0,2.9001,,0.344444416,0.056481467,1,0,0,0.9822,0,62,62,103,1,joggen,images/br_joggen.png,images/cb_joggen.png,0,,,,,,,,,,,,,,,,,,,,,,
,,,,,,00082,2023-10-22_21h26.06.708,vbt_B1_day2,2022.2.4,Win32,60.0528465,,,,,,,,,,,,,,,,,,,,,,,,,,,down,0,1.6707,,0.344444416,0.056481467,1,0,0,0.8654,0,63,63,28,1,stal,images/br_stal.png,images/cb_stal.png,0,,,,,,,,,,,,,,,,,,,,,,
,,,,,,00082,2023-10-22_21h26.06.708,vbt_B1_day2,2022.2.4,Win32,60.0528465,,,,,,,,,,,,,,,,,,,,,,,,,,,down,0,7.793,,0.344444416,0.056481467,1,0,0,0.8324,0,64,64,175,1,heengaan,images/br_heengaan.png,images/cb_heengaan.png,0,,,,,,,,,,,,,,,,,,,,,,
,,,,,,00082,2023-10-22_21h26.06.708,vbt_B1_day2,2022.2.4,Win32,60.0528465,,,,,,,,,,,,,,,,,,,,,,,,,,,down,0,3.4307,,0.342592593,0.046296296,1,0,0,0.8322,0,65,65,7,1,geld,images/br_geld.png,images/cb_geld.png,0,,,,,,,,,,,,,,,,,,,,,,
,,,,,,00082,2023-10-22_21h26.06.708,vbt_B1_day2,2022.2.4,Win32,60.0528465,,,,,,,,,,,,,,,,,,,,,,,,,,,down,0,7.3439,,0.342592593,0.046296296,1,0,0,0.8491,0,66,66,160,1,daarheen,images/br_daarheen.png,images/cb_daarheen.png,0,,,,,,,,,,,,,,,,,,,,,,
,,,,,,00082,2023-10-22_21h26.06.708,vbt_B1_day2,2022.2.4,Win32,60.0528465,,,,,,,,,,,,,,,,,,,,,,,,,,,down,0,11.7978,,0.342592593,0.046296296,1,0,0,3.0139,0,67,67,86,1,woning,images/br_woning.png,images/cb_woning.png,0,,,,,,,,,,,,,,,,,,,,,,
,,,,,,00082,2023-10-22_21h26.06.708,vbt_B1_day2,2022.2.4,Win32,60.0528465,,,,,,,,,,,,,,,,,,,,,,,,,,,down,0,13.688,,0.348148205,-0.042592614,1,0,0,37.746,0,68,68,159,1,sufferd,images/br_sufferd.png,images/cb_sufferd.png,0,,,,,,,,,,,,,,,,,,,,,,
,,,,,,00082,2023-10-22_21h26.06.708,vbt_B1_day2,2022.2.4,Win32,60.0528465,,,,,,,,,,,,,,,,,,,,,,,,,,,down,0,5.6783,,0.348148205,-0.042592614,1,0,0,0.6825,0,69,69,93,1,waarop,images/br_waarop.png,images/cb_waarop.png,0,,,,,,,,,,,,,,,,,,,,,,
,,,,,,00082,2023-10-22_21h26.06.708,vbt_B1_day2,2022.2.4,Win32,60.0528465,,,,,,,,,,,,,,,,,,,,,,,,,,,down,0,4.2641,,0.348148205,-0.042592614,1,0,0,0.9322,0,70,70,118,1,vinger,images/br_vinger.png,images/cb_vinger.png,0,,,,,,,,,,,,,,,,,,,,,,
,,,,,,00082,2023-10-22_21h26.06.708,vbt_B1_day2,2022.2.4,Win32,60.0528465,,,,,,,,,,,,,,,,,,,,,,,,,,,down,0,4.1884,,0.348148205,-0.042592614,1,0,0,1.1989,0,71,71,61,1,groen,images/br_groen.png,images/cb_groen.png,0,,,,,,,,,,,,,,,,,,,,,,
,,,,,,00082,2023-10-22_21h26.06.708,vbt_B1_day2,2022.2.4,Win32,60.0528465,,,,,,,,,,,,,,,,,,,,,,,,,,,down,0,1.5704,,0.348148205,-0.042592614,1,0,0,0.2828,0,72,72,1,1,zaal,images/br_zaal.png,images/cb_zaal.png,0,,,,,,,,,,,,,,,,,,,,,,
,,,,,,00082,2023-10-22_21h26.06.708,vbt_B1_day2,2022.2.4,Win32,60.0528465,,,,,,,,,,,,,,,,,,,,,,,,,,,down,0,12.5398,,0.348148205,-0.042592614,1,0,0,0.7158,0,73,73,3,1,mand,images/br_mand.png,images/cb_mand.png,0,,,,,,,,,,,,,,,,,,,,,,
,,,,,,00082,2023-10-22_21h26.06.708,vbt_B1_day2,2022.2.4,Win32,60.0528465,,,,,,,,,,,,,,,,,,,,,,,,,,,down,0,3.6496,,0.320370427,-0.040740755,1,0,0,0.616,0,74,74,64,1,wegen,images/br_wegen.png,images/cb_wegen.png,0,,,,,,,,,,,,,,,,,,,,,,
,,,,,,00082,2023-10-22_21h26.06.708,vbt_B1_day2,2022.2.4,Win32,60.0528465,,,,,,,,,,,,,,,,,,,,,,,,,,,down,0,10.3069,,0.319444444,-0.040740755,1,0,0,0.5826,0,75,75,162,1,uitdelen,images/br_uitdelen.png,images/cb_uitdelen.png,0,,,,,,,,,,,,,,,,,,,,,,
,,,,,,00082,2023-10-22_21h26.06.708,vbt_B1_day2,2022.2.4,Win32,60.0528465,,,,,,,,,,,,,,,,,,,,,,,,,,,down,0,5.5329,,0.426851908,-0.060185185,1,0,0,4.7121,0,76,76,138,1,akkoord,images/br_akkoord.png,images/cb_akkoord.png,1,akkoord,,,,,,,,,,,,,,,,,,,,,
,,,,,,00082,2023-10-22_21h26.06.708,vbt_B1_day2,2022.2.4,Win32,60.0528465,,,,,,,,,,,,,,,,,,,,,,,,,,,down,0,14.5715,,0.416666667,-0.059259273,1,0,0,0.899,0,77,77,60,1,jasje,images/br_jasje.png,images/cb_jasje.png,0,,,,,,,,,,,,,,,,,,,,,,
,,,,,,00082,2023-10-22_21h26.06.708,vbt_B1_day2,2022.2.4,Win32,60.0528465,,,,,,,,,,,,,,,,,,,,,,,,,,,down,0,5.1035,,0.416666667,-0.059259273,1,0,0,1.0654,0,78,78,43,1,klauw,images/br_klauw.png,images/cb_klauw.png,0,,,,,,,,,,,,,,,,,,,,,,
,,,,,,00082,2023-10-22_21h26.06.708,vbt_B1_day2,2022.2.4,Win32,60.0528465,,,,,,,,,,,,,,,,,,,,,,,,,,,down,0,2.0822,,0.416666667,-0.059259273,1,0,0,0.6992,0,79,79,33,1,vlek,images/br_vlek.png,images/cb_vlek.png,0,,,,,,,,,,,,,,,,,,,,,,
,,,,,,00082,2023-10-22_21h26.06.708,vbt_B1_day2,2022.2.4,Win32,60.0528465,,,,,,,,,,,,,,,,,,,,,,,,,,,down,0,7.443,,0.416666667,-0.059259273,1,0,0,0.6161,0,80,80,141,1,knielen,images/br_knielen.png,images/cb_knielen.png,0,,,,,,,,,,,,,,,,,,,,,,
,,,,,,00082,2023-10-22_21h26.06.708,vbt_B1_day2,2022.2.4,Win32,60.0528465,,,,,,,,,,,,,,,,,,,,,,,,,,,down,0,6.3683,,0.416666667,-0.059259273,1,0,0,1.1156,0,81,81,192,1,schaamte,images/br_schaamte.png,images/cb_schaamte.png,0,,,,,,,,,,,,,,,,,,,,,,
,,,,,,00082,2023-10-22_21h26.06.708,vbt_B1_day2,2022.2.4,Win32,60.0528465,,,,,,,,,,,,,,,,,,,,,,,,,,,down,0,4.0465,,0.416666667,-0.059259273,1,0,0,0.6897,0,82,82,102,1,legaal,images/br_legaal.png,images/cb_legaal.png,0,,,,,,,,,,,,,,,,,,,,,,
,,,,,,00082,2023-10-22_21h26.06.708,vbt_B1_day2,2022.2.4,Win32,60.0528465,,,,,,,,,,,,,,,,,,,,,,,,,,,down,0,16.1383,,0.371296353,-0.059259273,1,0,0,0.749,0,83,83,80,1,kanjer,images/br_kanjer.png,images/cb_kanjer.png,0,,,,,,,,,,,,,,,,,,,,,,
,,,,,,00082,2023-10-22_21h26.06.708,vbt_B1_day2,2022.2.4,Win32,60.0528465,,,,,,,,,,,,,,,,,,,,,,,,,,,down,0,4.6891,,0.371296353,-0.059259273,1,0,0,0.5994,0,84,84,148,1,smullen,images/br_smullen.png,images/cb_smullen.png,0,,,,,,,,,,,,,,,,,,,,,,
,,,,,,00082,2023-10-22_21h26.06.708,vbt_B1_day2,2022.2.4,Win32,60.0528465,,,,,,,,,,,,,,,,,,,,,,,,,,,down,0,8.5328,,0.371296353,-0.059259273,1,0,0,0.999,0,85,85,194,1,driemaal,images/br_driemaal.png,images/cb_driemaal.png,0,,,,,,,,,,,,,,,,,,,,,,
,,,,,,00082,2023-10-22_21h26.06.708,vbt_B1_day2,2022.2.4,Win32,60.0528465,,,,,,,,,,,,,,,,,,,,,,,,,,,down,0,5.862,,0.371296353,-0.059259273,1,0,0,0.899,0,86,86,22,1,stof,images/br_stof.png,images/cb_stof.png,0,,,,,,,,,,,,,,,,,,,,,,
,,,,,,00082,2023-10-22_21h26.06.708,vbt_B1_day2,2022.2.4,Win32,60.0528465,,,,,,,,,,,,,,,,,,,,,,,,,,,down,0,8.7757,,0.371296353,-0.059259273,1,0,0,0.6162,0,87,87,27,1,dans,images/br_dans.png,images/cb_dans.png,0,,,,,,,,,,,,,,,,,,,,,,
,,,,,,00082,2023-10-22_21h26.06.708,vbt_B1_day2,2022.2.4,Win32,60.0528465,,,,,,,,,,,,,,,,,,,,,,,,,,,down,0,11.1565,,0.371296353,-0.059259273,1,0,0,2.2976,0,88,88,111,1,ticket,images/br_ticket.png,images/cb_ticket.png,0,,,,,,,,,,,,,,,,,,,,,,
,,,,,,00082,2023-10-22_21h26.06.708,vbt_B1_day2,2022.2.4,Win32,60.0528465,,,,,,,,,,,,,,,,,,,,,,,,,,,down,0,24.6833,,0.350000028,-0.029629637,1,0,0,4.7957,0,89,89,135,1,gedicht,images/br_gedicht.png,images/cb_gedicht.png,0,,,,,,,,,,,,,,,,,,,,,,
,,,,,,00082,2023-10-22_21h26.06.708,vbt_B1_day2,2022.2.4,Win32,60.0528465,,,,,,,,,,,,,,,,,,,,,,,,,,,down,0,7.3602,,0.350000028,-0.029629637,1,0,0,0.6325,0,90,90,83,1,mening,images/br_mening.png,images/cb_mening.png,0,,,,,,,,,,,,,,,,,,,,,,
,,,,,,00082,2023-10-22_21h26.06.708,vbt_B1_day2,2022.2.4,Win32,60.0528465,,,,,,,,,,,,,,,,,,,,,,,,,,,down,0,5.0466,,0.350000028,-0.029629637,1,0,0,0.7659,0,91,91,26,1,leuk,images/br_leuk.png,images/cb_leuk.png,0,,,,,,,,,,,,,,,,,,,,,,
,,,,,,00082,2023-10-22_21h26.06.708,vbt_B1_day2,2022.2.4,Win32,60.0528465,,,,,,,,,,,,,,,,,,,,,,,,,,,down,0,6.8868,,0.350000028,-0.029629637,1,0,0,6.1103,0,92,92,187,1,opkijken,images/br_opkijken.png,images/cb_opkijken.png,0,,,,,,,,,,,,,,,,,,,,,,
,,,,,,00082,2023-10-22_21h26.06.708,vbt_B1_day2,2022.2.4,Win32,60.0528465,,,,,,,,,,,,,,,,,,,,,,,,,,,down,0,1.9594,,0.350000028,-0.029629637,1,0,0,2.2811,0,93,93,70,1,ijdel,images/br_ijdel.png,images/cb_ijdel.png,0,,,,,,,,,,,,,,,,,,,,,,
,,,,,,00082,2023-10-22_21h26.06.708,vbt_B1_day2,2022.2.4,Win32,60.0528465,,,,,,,,,,,,,,,,,,,,,,,,,,,down,0,1.8911,,0.350000028,-0.029629637,1,0,0,0.666,0,94,94,78,1,leren,images/br_leren.png,images/cb_leren.png,0,,,,,,,,,,,,,,,,,,,,,,
,,,,,,00082,2023-10-22_21h26.06.708,vbt_B1_day2,2022.2.4,Win32,60.0528465,,,,,,,,,,,,,,,,,,,,,,,,,,,down,0,4.9987,,0.350000028,-0.064814815,1,0,0,1.4484,0,95,95,140,1,blijven,images/br_blijven.png,images/cb_blijven.png,0,,,,,,,,,,,,,,,,,,,,,,
,,,,,,00082,2023-10-22_21h26.06.708,vbt_B1_day2,2022.2.4,Win32,60.0528465,,,,,,,,,,,,,,,,,,,,,,,,,,,down,0,4.4903,,0.051851838,-0.178703732,1,0,0,0.6322,0,96,96,122,1,waarvan,images/br_waarvan.png,images/cb_waarvan.png,0,,,,,,,,,,,,,,,,,,,,,,
,,,,,,00082,2023-10-22_21h26.06.708,vbt_B1_day2,2022.2.4,Win32,60.0528465,,,,,,,,,,,,,,,,,,,,,,,,,,,down,0,2.9189,,0.467592593,0.022222201,1,0,0,0.7658,0,97,97,32,1,palm,images/br_palm.png,images/cb_palm.png,0,,,,,,,,,,,,,,,,,,,,,,
,,,,,,00082,2023-10-22_21h26.06.708,vbt_B1_day2,2022.2.4,Win32,60.0528465,,,,,,,,,,,,,,,,,,,,,,,,,,,down,0,6.5273,,0.477777834,-0.003703718,1,0,0,2.1148,0,98,98,129,1,verhaal,images/br_verhaal.png,images/cb_verhaal.png,0,,,,,,,,,,,,,,,,,,,,,,
,,,,,,00082,2023-10-22_21h26.06.708,vbt_B1_day2,2022.2.4,Win32,60.0528465,,,,,,,,,,,,,,,,,,,,,,,,,,,down,0,5.6883,,0.478703675,-0.006481489,1,0,0,0.9324,0,99,99,165,1,feestdag,images/br_feestdag.png,images/cb_feestdag.png,0,,,,,,,,,,,,,,,,,,,,,,
,,,,,,00082,2023-10-22_21h26.06.708,vbt_B1_day2,2022.2.4,Win32,60.0528465,,,,,,,,,,,,,,,,,,,,,,,,,,,down,0,4.3801,,0.565740797,0.242592582,1,0,0,0.7824,0,100,100,183,1,getuigen,images/br_getuigen.png,images/cb_getuigen.png,0,,,,,,,,,,,,,,,,,,,,,,
,,,,,,00082,2023-10-22_21h26.06.708,vbt_B1_day2,2022.2.4,Win32,60.0528465,,,,,,,,,,,,,,,,,,,,,,,,,,,down,0,3.0334,,0.376851824,0.225925922,1,0,0,0.6993,0,101,101,38,1,baai,images/br_baai.png,images/cb_baai.png,0,,,,,,,,,,,,,,,,,,,,,,
,,,,,,00082,2023-10-22_21h26.06.708,vbt_B1_day2,2022.2.4,Win32,60.0528465,,,,,,,,,,,,,,,,,,,,,,,,,,,down,0,8.5426,,0.376851824,0.225925922,1,0,0,1.5982,0,102,102,24,1,jurk,images/br_jurk.png,images/cb_jurk.png,0,,,,,,,,,,,,,,,,,,,,,,
,,,,,,00082,2023-10-22_21h26.06.708,vbt_B1_day2,2022.2.4,Win32,60.0528465,,,,,,,,,,,,,,,,,,,,,,,,,,,down,0,3.7369,,0.376851824,0.225925922,1,0,0,1.1821,0,103,103,6,1,diep,images/br_diep.png,images/cb_diep.png,0,,,,,,,,,,,,,,,,,,,,,,
,,,,,,00082,2023-10-22_21h26.06.708,vbt_B1_day2,2022.2.4,Win32,60.0528465,,,,,,,,,,,,,,,,,,,,,,,,,,,down,0,11.1912,,0.376851824,0.225925922,1,0,0,0.8992,0,104,104,20,1,site,images/br_site.png,images/cb_site.png,0,,,,,,,,,,,,,,,,,,,,,,
,,,,,,00082,2023-10-22_21h26.06.708,vbt_B1_day2,2022.2.4,Win32,60.0528465,,,,,,,,,,,,,,,,,,,,,,,,,,,down,0,7.5298,,0.376851824,0.225925922,1,0,0,0.6826,0,105,105,123,1,hiervan,images/br_hiervan.png,images/cb_hiervan.png,0,,,,,,,,,,,,,,,,,,,,,,
,,,,,,00082,2023-10-22_21h26.06.708,vbt_B1_day2,2022.2.4,Win32,60.0528465,,,,,,,,,,,,,,,,,,,,,,,,,,,down,0,6.4275,,0.432407379,0.198148127,1,0,0,0.8327,0,106,106,189,1,aanraden,images/br_aanraden.png,images/cb_aanraden.png,0,,,,,,,,,,,,,,,,,,,,,,
,,,,,,00082,2023-10-22_21h26.06.708,vbt_B1_day2,2022.2.4,Win32,60.0528465,,,,,,,,,,,,,,,,,,,,,,,,,,,down,0,10.2645,,0.433333362,0.195370356,1,0,0,0.6494,0,107,107,146,1,opkomen,images/br_opkomen.png,images/cb_opkomen.png,0,,,,,,,,,,,,,,,,,,,,,,
,,,,,,00082,2023-10-22_21h26.06.708,vbt_B1_day2,2022.2.4,Win32,60.0528465,,,,,,,,,,,,,,,,,,,,,,,,,,,down,0,4.3532,,0.433333362,0.195370356,1,0,0,1.1157,0,108,108,54,1,gebit,images/br_gebit.png,images/cb_gebit.png,0,,,,,,,,,,,,,,,,,,,,,,
,,,,,,00082,2023-10-22_21h26.06.708,vbt_B1_day2,2022.2.4,Win32,60.0528465,,,,,,,,,,,,,,,,,,,,,,,,,,,down,0,3.8969,,0.433333362,0.195370356,1,0,0,0.9489,0,109,109,67,1,zwart,images/br_zwart.png,images/cb_zwart.png,0,,,,,,,,,,,,,,,,,,,,,,
,,,,,,00082,2023-10-22_21h26.06.708,vbt_B1_day2,2022.2.4,Win32,60.0528465,,,,,,,,,,,,,,,,,,,,,,,,,,,down,0,4.7675,,0.433333362,0.195370356,1,0,0,0.7488,0,110,110,161,1,attentie,images/br_attentie.png,images/cb_attentie.png,0,,,,,,,,,,,,,,,,,,,,,,
,,,,,,00082,2023-10-22_21h26.06.708,vbt_B1_day2,2022.2.4,Win32,60.0528465,,,,,,,,,,,,,,,,,,,,,,,,,,,down,0,8.3922,,0.433333362,0.195370356,1,0,0,0.9656,0,111,111,116,1,besmet,images/br_besmet.png,images/cb_besmet.png,0,,,,,,,,,,,,,,,,,,,,,,
,,,,,,00082,2023-10-22_21h26.06.708,vbt_B1_day2,2022.2.4,Win32,60.0528465,,,,,,,,,,,,,,,,,,,,,,,,,,,down,0,1.2995,,0.433333362,0.195370356,1,0,0,1.7314,0,112,112,21,1,mist,images/br_mist.png,images/cb_mist.png,0,,,,,,,,,,,,,,,,,,,,,,
,,,,,,00082,2023-10-22_21h26.06.708,vbt_B1_day2,2022.2.4,Win32,60.0528465,,,,,,,,,,,,,,,,,,,,,,,,,,,down,0,7.9107,,0.433333362,0.195370356,1,0,0,0.866,0,113,113,182,1,bijkomen,images/br_bijkomen.png,images/cb_bijkomen.png,0,,,,,,,,,,,,,,,,,,,,,,
,,,,,,00082,2023-10-22_21h26.06.708,vbt_B1_day2,2022.2.4,Win32,60.0528465,,,,,,,,,,,,,,,,,,,,,,,,,,,down,0,7.7601,,0.339814787,0.150000007,1,0,0,0.6666,0,114,114,110,1,zuster,images/br_zuster.png,images/cb_zuster.png,0,,,,,,,,,,,,,,,,,,,,,,
,,,,,,00082,2023-10-22_21h26.06.708,vbt_B1_day2,2022.2.4,Win32,60.0528465,,,,,,,,,,,,,,,,,,,,,,,,,,,down,0,3.5638,,0.339814787,0.150000007,1,0,0,3.7297,0,115,115,16,1,ziek,images/br_ziek.png,images/cb_ziek.png,1,ziek,,,,,,,,,,,,,,,,,,,,,
,,,,,,00082,2023-10-22_21h26.06.708,vbt_B1_day2,2022.2.4,Win32,60.0528465,,,,,,,,,,,,,,,,,,,,,,,,,,,down,0,2.3503,,0.376851824,0.102777764,1,0,0,0.7498,0,116,116,114,1,vullen,images/br_vullen.png,images/cb_vullen.png,0,,,,,,,,,,,,,,,,,,,,,,
,,,,,,00082,2023-10-22_21h26.06.708,vbt_B1_day2,2022.2.4,Win32,60.0528465,,,,,,,,,,,,,,,,,,,,,,,,,,,down,0,2.8482,,0.37962963,0.098148134,1,0,0,0.8991,0,117,117,57,1,steek,images/br_steek.png,images/cb_steek.png,1,steek,,,,,,,,,,,,,,,,,,,,,
,,,,,,00082,2023-10-22_21h26.06.708,vbt_B1_day2,2022.2.4,Win32,60.0528465,,,,,,,,,,,,,,,,,,,,,,,,,,,down,0,4.2963,,0.37962963,0.098148134,1,0,0,0.8324,0,118,118,12,1,kust,images/br_kust.png,images/cb_kust.png,0,,,,,,,,,,,,,,,,,,,,,,
,,,,,,00082,2023-10-22_21h26.06.708,vbt_B1_day2,2022.2.4,Win32,60.0528465,,,,,,,,,,,,,,,,,,,,,,,,,,,down,0,40.3603,,0.37962963,0.098148134,1,0,0,0.6328,0,119,119,142,1,snuiven,images/br_snuiven.png,images/cb_snuiven.png,0,,,,,,,,,,,,,,,,,,,,,,
,,,,,,00082,2023-10-22_21h26.06.708,vbt_B1_day2,2022.2.4,Win32,60.0528465,,,,,,,,,,,,,,,,,,,,,,,,,,,down,0,4.7357,,0.37962963,0.098148134,1,0,0,0.5658,0,120,120,51,1,samen,images/br_samen.png,images/cb_samen.png,0,,,,,,,,,,,,,,,,,,,,,,
,,,,,,00082,2023-10-22_21h26.06.708,vbt_B1_day2,2022.2.4,Win32,60.0528465,,,,,,,,,,,,,,,,,,,,,,,,,,,down,0,4.855,,0.275000042,0.194444444,1,0,0,0.566,0,121,121,62,1,knaap,images/br_knaap.png,images/cb_knaap.png,0,,,,,,,,,,,,,,,,,,,,,,
,,,,,,00082,2023-10-22_21h26.06.708,vbt_B1_day2,2022.2.4,Win32,60.0528465,,,,,,,,,,,,,,,,,,,,,,,,,,,down,0,3.7711,,0.275000042,0.194444444,1,0,0,0.7661,0,122,122,58,1,tekst,images/br_tekst.png,images/cb_tekst.png,1,tekst,,,,,,,,,,,,,,,,,,,,,
,,,,,,00082,2023-10-22_21h26.06.708,vbt_B1_day2,2022.2.4,Win32,60.0528465,,,,,,,,,,,,,,,,,,,,,,,,,,,down,0,9.5982,,0.275000042,0.194444444,1,0,0,0.7498,0,123,123,121,1,twijfel,images/br_twijfel.png,images/cb_twijfel.png,0,,,,,,,,,,,,,,,,,,,,,,
,,,,,,00082,2023-10-22_21h26.06.708,vbt_B1_day2,2022.2.4,Win32,60.0528465,,,,,,,,,,,,,,,,,,,,,,,,,,,down,0,3.4279,,0.275000042,0.194444444,1,0,0,0.5327,0,124,124,73,1,volop,images/br_volop.png,images/cb_volop.png,0,,,,,,,,,,,,,,,,,,,,,,
,,,,,,00082,2023-10-22_21h26.06.708,vbt_B1_day2,2022.2.4,Win32,60.0528465,,,,,,,,,,,,,,,,,,,,,,,,,,,down,0,9.0134,,0.275000042,0.194444444,1,0,0,0.8491,0,125,125,151,1,aanzoek,images/br_aanzoek.png,images/cb_aanzoek.png,0,,,,,,,,,,,,,,,,,,,,,,
,,,,,,00082,2023-10-22_21h26.06.708,vbt_B1_day2,2022.2.4,Win32,60.0528465,,,,,,,,,,,,,,,,,,,,,,,,,,,down,0,28.7892,,0.275000042,0.194444444,1,0,0,0.9487,0,126,126,50,1,stoom,images/br_stoom.png,images/cb_stoom.png,0,,,,,,,,,,,,,,,,,,,,,,
,,,,,,00082,2023-10-22_21h26.06.708,vbt_B1_day2,2022.2.4,Win32,60.0528465,,,,,,,,,,,,,,,,,,,,,,,,,,,down,0,9.8573,,0.223148134,0.1175926,1,0,0,0.5827,0,127,127,55,1,praat,images/br_praat.png,images/cb_praat.png,0,,,,,,,,,,,,,,,,,,,,,,
,,,,,,00082,2023-10-22_21h26.06.708,vbt_B1_day2,2022.2.4,Win32,60.0528465,,,,,,,,,,,,,,,,,,,,,,,,,,,down,0,6.9439,,0.243518547,0.137962942,1,0,0,1.6481,0,128,128,131,1,opzicht,images/br_opzicht.png,images/cb_opzicht.png,0,,,,,,,,,,,,,,,,,,,,,,
,,,,,,00082,2023-10-22_21h26.06.708,vbt_B1_day2,2022.2.4,Win32,60.0528465,,,,,,,,,,,,,,,,,,,,,,,,,,,down,0,5.0456,,0.243518547,0.137962942,1,0,0,1.465,0,129,129,120,1,klimmen,images/br_klimmen.png,images/cb_klimmen.png,0,,,,,,,,,,,,,,,,,,,,,,
,,,,,,00082,2023-10-22_21h26.06.708,vbt_B1_day2,2022.2.4,Win32,60.0528465,,,,,,,,,,,,,,,,,,,,,,,,,,,down,0,15.6375,,0.463888945,0.080555563,1,0,0,6.4934,0,130,130,94,1,oceaan,images/br_oceaan.png,images/cb_oceaan.png,0,,,,,,,,,,,,,,,,,,,,,,
,,,,,,00082,2023-10-22_21h26.06.708,vbt_B1_day2,2022.2.4,Win32,60.0528465,,,,,,,,,,,,,,,,,,,,,,,,,,,down,0,11.4459,,0.460185157,0.099074081,1,0,0,0.799,0,131,131,105,1,wijlen,images/br_wijlen.png,images/cb_wijlen.png,0,,,,,,,,,,,,,,,,,,,,,,
,,,,,,00082,2023-10-22_21h26.06.708,vbt_B1_day2,2022.2.4,Win32,60.0528465,,,,,,,,,,,,,,,,,,,,,,,,,,,down,0,12.6074,,0.630555612,0.146296289,1,0,0,0.9993,0,132,132,199,1,beseffen,images/br_beseffen.png,images/cb_beseffen.png,0,,,,,,,,,,,,,,,,,,,,,,
,,,,,,00082,2023-10-22_21h26.06.708,vbt_B1_day2,2022.2.4,Win32,60.0528465,,,,,,,,,,,,,,,,,,,,,,,,,,,down,0,4.3852,,0.630555612,0.15370369,1,0,0,0.9323,0,133,133,97,1,loyaal,images/br_loyaal.png,images/cb_loyaal.png,1,loyaal,,,,,,,,,,,,,,,,,,,,,
,,,,,,00082,2023-10-22_21h26.06.708,vbt_B1_day2,2022.2.4,Win32,60.0528465,,,,,,,,,,,,,,,,,,,,,,,,,,,down,0,5.9658,,0.624074159,0.133333312,1,0,0,0.6658,0,134,134,63,1,flirt,images/br_flirt.png,images/cb_flirt.png,0,,,,,,,,,,,,,,,,,,,,,,
,,,,,,00082,2023-10-22_21h26.06.708,vbt_B1_day2,2022.2.4,Win32,60.0528465,,,,,,,,,,,,,,,,,,,,,,,,,,,down,0,9.3238,,0.624074159,0.133333312,1,0,0,0.6328,0,135,135,41,1,maken,images/br_maken.png,images/cb_maken.png,0,,,,,,,,,,,,,,,,,,,,,,
,,,,,,00082,2023-10-22_21h26.06.708,vbt_B1_day2,2022.2.4,Win32,60.0528465,,,,,,,,,,,,,,,,,,,,,,,,,,,down,0,1.1496,,0.625925982,0.188888868,1,0,0,4.4957,0,136,136,117,1,kennis,images/br_kennis.png,images/cb_kennis.png,0,,,,,,,,,,,,,,,,,,,,,,
,,,,,,00082,2023-10-22_21h26.06.708,vbt_B1_day2,2022.2.4,Win32,60.0528465,,,,,,,,,,,,,,,,,,,,,,,,,,,down,0,8.7614,,0.564814815,0.119444423,1,0,0,0.8658,0,137,137,108,1,excuus,images/br_excuus.png,images/cb_excuus.png,0,,,,,,,,,,,,,,,,,,,,,,
,,,,,,00082,2023-10-22_21h26.06.708,vbt_B1_day2,2022.2.4,Win32,60.0528465,,,,,,,,,,,,,,,,,,,,,,,,,,,down,0,4.0146,,0.564814815,0.119444423,1,0,0,0.4325,0,138,138,4,1,moes,images/br_moes.png,images/cb_moes.png,0,,,,,,,,,,,,,,,,,,,,,,
,,,,,,00082,2023-10-22_21h26.06.708,vbt_B1_day2,2022.2.4,Win32,60.0528465,,,,,,,,,,,,,,,,,,,,,,,,,,,down,0,4.9798,,0.564814815,0.119444423,1,0,0,0.5494,0,139,139,181,1,toegeven,images/br_toegeven.png,images/cb_toegeven.png,0,,,,,,,,,,,,,,,,,,,,,,
,,,,,,00082,2023-10-22_21h26.06.708,vbt_B1_day2,2022.2.4,Win32,60.0528465,,,,,,,,,,,,,,,,,,,,,,,,,,,down,0,7.7622,,0.550925926,0.087962963,1,0,0,2.8471,0,140,140,134,1,geliefd,images/br_geliefd.png,images/cb_geliefd.png,0,,,,,,,,,,,,,,,,,,,,,,
,,,,,,00082,2023-10-22_21h26.06.708,vbt_B1_day2,2022.2.4,Win32,60.0528465,,,,,,,,,,,,,,,,,,,,,,,,,,,down,0,0.7029,,0.550925926,0.087962963,1,0,0,0.4328,0,141,141,29,1,baas,images/br_baas.png,images/cb_baas.png,0,,,,,,,,,,,,,,,,,,,,,,
,,,,,,00082,2023-10-22_21h26.06.708,vbt_B1_day2,2022.2.4,Win32,60.0528465,,,,,,,,,,,,,,,,,,,,,,,,,,,down,0,4.3988,,0.550925926,0.087962963,1,0,0,0.4328,0,142,142,81,1,dubbel,images/br_dubbel.png,images/cb_dubbel.png,0,,,,,,,,,,,,,,,,,,,,,,
,,,,,,00082,2023-10-22_21h26.06.708,vbt_B1_day2,2022.2.4,Win32,60.0528465,,,,,,,,,,,,,,,,,,,,,,,,,,,down,0,4.4561,,0.550925926,0.087962963,1,0,0,0.4162,0,143,143,113,1,koppen,images/br_koppen.png,images/cb_koppen.png,0,,,,,,,,,,,,,,,,,,,,,,
,,,,,,00082,2023-10-22_21h26.06.708,vbt_B1_day2,2022.2.4,Win32,60.0528465,,,,,,,,,,,,,,,,,,,,,,,,,,,down,0,4.5343,,0.550925926,0.087962963,1,0,0,0.7159,0,144,144,171,1,aarzelen,images/br_aarzelen.png,images/cb_aarzelen.png,0,,,,,,,,,,,,,,,,,,,,,,
,,,,,,00082,2023-10-22_21h26.06.708,vbt_B1_day2,2022.2.4,Win32,60.0528465,,,,,,,,,,,,,,,,,,,,,,,,,,,down,0,15.2912,,0.511111083,0.015740748,1,0,0,8.1584,0,145,145,76,1,afval,images/br_afval.png,images/cb_afval.png,0,,,,,,,,,,,,,,,,,,,,,,
,,,,,,00082,2023-10-22_21h26.06.708,vbt_B1_day2,2022.2.4,Win32,60.0528465,,,,,,,,,,,,,,,,,,,,,,,,,,,down,0,6.2113,,0.450925898,0.1175926,1,0,0,0.7324,0,146,146,172,1,weigeren,images/br_weigeren.png,images/cb_weigeren.png,0,,,,,,,,,,,,,,,,,,,,,,
,,,,,,00082,2023-10-22_21h26.06.708,vbt_B1_day2,2022.2.4,Win32,60.0528465,,,,,,,,,,,,,,,,,,,,,,,,,,,down,0,3.3988,,0.473148205,0.088888875,1,0,0,1.3827,0,147,147,96,1,slagen,images/br_slagen.png,images/cb_slagen.png,1,slagen,,,,,,,,,,,,,,,,,,,,,
,,,,,,00082,2023-10-22_21h26.06.708,vbt_B1_day2,2022.2.4,Win32,60.0528465,,,,,,,,,,,,,,,,,,,,,,,,,,,down,0,3.1374,,0.473148205,0.088888875,1,0,0,0.7826,0,148,148,56,1,traag,images/br_traag.png,images/cb_traag.png,1,traag,,,,,,,,,,,,,,,,,,,,,
,,,,,,00082,2023-10-22_21h26.06.708,vbt_B1_day2,2022.2.4,Win32,60.0528465,,,,,,,,,,,,,,,,,,,,,,,,,,,down,0,2.2722,,0.473148205,0.088888875,1,0,0,0.2996,0,149,149,49,1,laken,images/br_laken.png,images/cb_laken.png,0,,,,,,,,,,,,,,,,,,,,,,
,,,,,,00082,2023-10-22_21h26.06.708,vbt_B1_day2,2022.2.4,Win32,60.0528465,,,,,,,,,,,,,,,,,,,,,,,,,,,down,0,1.0206,,0.473148205,0.088888875,1,0,0,0.4495,0,150,150,17,1,taal,images/br_taal.png,images/cb_taal.png,1,taal,,,,,,,,,,,,,,,,,,,,,
,,,,,,00082,2023-10-22_21h26.06.708,vbt_B1_day2,2022.2.4,Win32,60.0528465,,,,,,,,,,,,,,,,,,,,,,,,,,,down,0,12.2585,,0.473148205,0.088888875,1,0,0,32.4342,0,151,151,178,1,huisdier,images/br_huisdier.png,images/cb_huisdier.png,1,huisdier,,,,,,,,,,,,,,,,,,,,,
,,,,,,00082,2023-10-22_21h26.06.708,vbt_B1_day2,2022.2.4,Win32,60.0528465,,,,,,,,,,,,,,,,,,,,,,,,,,,down,0,9.2151,,0.545370455,0.065740727,1,0,0,0.6232,0,152,152,19,1,geit,images/br_geit.png,images/cb_geit.png,1,geit,,,,,,,,,,,,,,,,,,,,,
,,,,,,00082,2023-10-22_21h26.06.708,vbt_B1_day2,2022.2.4,Win32,60.0528465,,,,,,,,,,,,,,,,,,,,,,,,,,,down,0,4.5873,,0.387037065,0.074074074,1,0,0,0.6493,0,153,153,100,1,geduld,images/br_geduld.png,images/cb_geduld.png,0,,,,,,,,,,,,,,,,,,,,,,
,,,,,,00082,2023-10-22_21h26.06.708,vbt_B1_day2,2022.2.4,Win32,60.0528465,,,,,,,,,,,,,,,,,,,,,,,,,,,down,0,15.4587,,0.366666723,0.092592593,1,0,0,7.809,0,154,154,152,1,afnemen,images/br_afnemen.png,images/cb_afnemen.png,0,,,,,,,,,,,,,,,,,,,,,,
,,,,,,00082,2023-10-22_21h26.06.708,vbt_B1_day2,2022.2.4,Win32,60.0528465,,,,,,,,,,,,,,,,,,,,,,,,,,,down,0,1.8377,,0.305555556,-0.010185206,1,0,0,4.7786,0,155,155,101,1,staren,images/br_staren.png,images/cb_staren.png,0,,,,,,,,,,,,,,,,,,,,,,
,,,,,,00082,2023-10-22_21h26.06.708,vbt_B1_day2,2022.2.4,Win32,60.0528465,,,,,,,,,,,,,,,,,,,,,,,,,,,down,0,0.3008,,0.621296353,0.210185175,1,0,0,6.3771,0,156,156,130,1,keihard,images/br_keihard.png,images/cb_keihard.png,0,,,,,,,,,,,,,,,,,,,,,,
,,,,,,00082,2023-10-22_21h26.06.708,vbt_B1_day2,2022.2.4,Win32,60.0528465,,,,,,,,,,,,,,,,,,,,,,,,,,,down,0,2.0191,,0.372222194,0.096296275,1,0,0,0.4328,0,157,157,36,1,vuur,images/br_vuur.png,images/cb_vuur.png,0,,,,,,,,,,,,,,,,,,,,,,
,,,,,,00082,2023-10-22_21h26.06.708,vbt_B1_day2,2022.2.4,Win32,60.0528465,,,,,,,,,,,,,,,,,,,,,,,,,,,down,0,4.4962,,0.529629601,0.066666674,1,0,0,0.3733,0,158,158,106,1,zingen,images/br_zingen.png,images/cb_zingen.png,0,,,,,,,,,,,,,,,,,,,,,,
,,,,,,00082,2023-10-22_21h26.06.708,vbt_B1_day2,2022.2.4,Win32,60.0528465,,,,,,,,,,,,,,,,,,,,,,,,,,,down,0,10.0348,,0.537963019,0.063888868,1,0,0,1.7147,0,159,159,164,1,anarchie,images/br_anarchie.png,images/cb_anarchie.png,0,,,,,,,,,,,,,,,,,,,,,,
,,,,,,00082,2023-10-22_21h26.06.708,vbt_B1_day2,2022.2.4,Win32,60.0528465,,,,,,,,,,,,,,,,,,,,,,,,,,,down,0,1.9755,,0.537963019,0.063888868,1,0,0,1.1986,0,160,160,69,1,waken,images/br_waken.png,images/cb_waken.png,0,,,,,,,,,,,,,,,,,,,,,,
,,,,,,00082,2023-10-22_21h26.06.708,vbt_B1_day2,2022.2.4,Win32,60.0528465,,,,,,,,,,,,,,,,,,,,,,,,,,,down,0,6.7612,,0.537963019,0.063888868,1,0,0,0.849,0,161,161,119,1,liefje,images/br_liefje.png,images/cb_liefje.png,0,,,,,,,,,,,,,,,,,,,,,,
,,,,,,00082,2023-10-22_21h26.06.708,vbt_B1_day2,2022.2.4,Win32,60.0528465,,,,,,,,,,,,,,,,,,,,,,,,,,,down,0,3.6898,,0.522222307,0.081481474,1,0,0,0.6824,0,162,162,82,1,muziek,images/br_muziek.png,images/cb_muziek.png,0,,,,,,,,,,,,,,,,,,,,,,
,,,,,,00082,2023-10-22_21h26.06.708,vbt_B1_day2,2022.2.4,Win32,60.0528465,,,,,,,,,,,,,,,,,,,,,,,,,,,down,0,2.8545,,0.486111111,0.131481489,1,0,0,2.8637,0,163,163,197,1,spanning,images/br_spanning.png,images/cb_spanning.png,0,,,,,,,,,,,,,,,,,,,,,,
,,,,,,00082,2023-10-22_21h26.06.708,vbt_B1_day2,2022.2.4,Win32,60.0528465,,,,,,,,,,,,,,,,,,,,,,,,,,,down,0,4.7638,,0.486111111,0.124074053,1,0,0,3.7298,0,164,164,5,1,blad,images/br_blad.png,images/cb_blad.png,0,,,,,,,,,,,,,,,,,,,,,,
,,,,,,00082,2023-10-22_21h26.06.708,vbt_B1_day2,2022.2.4,Win32,60.0528465,,,,,,,,,,,,,,,,,,,,,,,,,,,down,0,139.3853,,0.509259259,-0.039814808,1,0,0,1.1324,0,165,165,155,1,gerucht,images/br_gerucht.png,images/cb_gerucht.png,0,,,,,,,,,,,,,,,,,,,,,,
,,,,,,00082,2023-10-22_21h26.06.708,vbt_B1_day2,2022.2.4,Win32,60.0528465,,,,,,,,,,,,,,,,,,,,,,,,,,,down,0,0.0545,,0.378703788,0.169444437,1,0,0,3.5297,0,166,166,198,1,bedoelen,images/br_bedoelen.png,images/cb_bedoelen.png,0,,,,,,,,,,,,,,,,,,,,,,
,,,,,,00082,2023-10-22_21h26.06.708,vbt_B1_day2,2022.2.4,Win32,60.0528465,,,,,,,,,,,,,,,,,,,,,,,,,,,down,0,0.5503,,0.378703788,0.169444437,1,0,0,2.181,0,167,167,14,1,rijp,images/br_rijp.png,images/cb_rijp.png,0,,,,,,,,,,,,,,,,,,,,,,
,,,,,,00082,2023-10-22_21h26.06.708,vbt_B1_day2,2022.2.4,Win32,60.0528465,,,,,,,,,,,,,,,,,,,,,,,,,,,down,0,1.7903,,0.378703788,0.169444437,1,0,0,0.3829,0,168,168,40,1,schep,images/br_schep.png,images/cb_schep.png,0,,,,,,,,,,,,,,,,,,,,,,
,,,,,,00082,2023-10-22_21h26.06.708,vbt_B1_day2,2022.2.4,Win32,60.0528465,,,,,,,,,,,,,,,,,,,,,,,,,,,down,0,1.3405,,0.378703788,0.169444437,1,0,0,0.5661,0,169,169,125,1,aanzien,images/br_aanzien.png,images/cb_aanzien.png,0,,,,,,,,,,,,,,,,,,,,,,
,,,,,,00082,2023-10-22_21h26.06.708,vbt_B1_day2,2022.2.4,Win32,60.0528465,,,,,,,,,,,,,,,,,,,,,,,,,,,down,0,2.9814,,0.378703788,0.169444437,1,0,0,0.7494,0,170,170,18,1,blik,images/br_blik.png,images/cb_blik.png,1,blik,,,,,,,,,,,,,,,,,,,,,
,,,,,,00082,2023-10-22_21h26.06.708,vbt_B1_day2,2022.2.4,Win32,60.0528465,,,,,,,,,,,,,,,,,,,,,,,,,,,down,0,5.7787,,0.378703788,0.169444437,1,0,0,0.6326,0,171,171,30,1,uien,images/br_uien.png,images/cb_uien.png,0,,,,,,,,,,,,,,,,,,,,,,
,,,,,,00082,2023-10-22_21h26.06.708,vbt_B1_day2,2022.2.4,Win32,60.0528465,,,,,,,,,,,,,,,,,,,,,,,,,,,down,0,0.0837,,0.436111168,0.16574072,1,0,0,3.2966,0,172,172,149,1,redding,images/br_redding.png,images/cb_redding.png,0,,,,,,,,,,,,,,,,,,,,,,
,,,,,,00082,2023-10-22_21h26.06.708,vbt_B1_day2,2022.2.4,Win32,60.0528465,,,,,,,,,,,,,,,,,,,,,,,,,,,down,0,1.5692,,0.42777775,0.155555548,1,0,0,16.767,0,173,173,144,1,eetlust,images/br_eetlust.png,images/cb_eetlust.png,0,,,,,,,,,,,,,,,,,,,,,,
,,,,,,00082,2023-10-22_21h26.06.708,vbt_B1_day2,2022.2.4,Win32,60.0528465,,,,,,,,,,,,,,,,,,,,,,,,,,,down,0,13.0881,,0.413888861,0.082407386,1,0,0,3.0801,0,174,174,47,1,kabel,images/br_kabel.png,images/cb_kabel.png,0,,,,,,,,,,,,,,,,,,,,,,
,,,,,,00082,2023-10-22_21h26.06.708,vbt_B1_day2,2022.2.4,Win32,60.0528465,,,,,,,,,,,,,,,,,,,,,,,,,,,down,0,2.4983,,0.432407379,0.084259245,1,0,0,0.7397,0,175,175,48,1,steel,images/br_steel.png,images/cb_steel.png,0,,,,,,,,,,,,,,,,,,,,,,
,,,,,,00082,2023-10-22_21h26.06.708,vbt_B1_day2,2022.2.4,Win32,60.0528465,,,,,,,,,,,,,,,,,,,,,,,,,,,down,0,3.6197,,0.541666667,-0.024074095,1,0,0,5.2779,0,176,176,59,1,kring,images/br_kring.png,images/cb_kring.png,1,kring,,,,,,,,,,,,,,,,,,,,,
,,,,,,00082,2023-10-22_21h26.06.708,vbt_B1_day2,2022.2.4,Win32,60.0528465,,,,,,,,,,,,,,,,,,,,,,,,,,,down,0,7.133,,0.524074131,-0.050925926,1,0,0,0.8326,0,177,177,143,1,hechten,images/br_hechten.png,images/cb_hechten.png,0,,,,,,,,,,,,,,,,,,,,,,
,,,,,,00082,2023-10-22_21h26.06.708,vbt_B1_day2,2022.2.4,Win32,60.0528465,,,,,,,,,,,,,,,,,,,,,,,,,,,down,0,8.9473,,0.524074131,-0.050925926,1,0,0,0.9491,0,178,178,90,1,geluid,images/br_geluid.png,images/cb_geluid.png,0,,,,,,,,,,,,,,,,,,,,,,
,,,,,,00082,2023-10-22_21h26.06.708,vbt_B1_day2,2022.2.4,Win32,60.0528465,,,,,,,,,,,,,,,,,,,,,,,,,,,down,0,5.1659,,0.524074131,-0.050925926,1,0,0,0.8157,0,179,179,132,1,grappen,images/br_grappen.png,images/cb_grappen.png,0,,,,,,,,,,,,,,,,,,,,,,
,,,,,,00082,2023-10-22_21h26.06.708,vbt_B1_day2,2022.2.4,Win32,60.0528465,,,,,,,,,,,,,,,,,,,,,,,,,,,down,0,10.5646,,0.524074131,-0.050925926,1,0,0,0.7993,0,180,180,95,1,vreten,images/br_vreten.png,images/cb_vreten.png,0,,,,,,,,,,,,,,,,,,,,,,
,,,,,,00082,2023-10-22_21h26.06.708,vbt_B1_day2,2022.2.4,Win32,60.0528465,,,,,,,,,,,,,,,,,,,,,,,,,,,down,0,5.5217,,0.524074131,-0.050925926,1,0,0,1.0326,0,181,181,137,1,trekker,images/br_trekker.png,images/cb_trekker.png,1,trekker,,,,,,,,,,,,,,,,,,,,,
,,,,,,00082,2023-10-22_21h26.06.708,vbt_B1_day2,2022.2.4,Win32,60.0528465,,,,,,,,,,,,,,,,,,,,,,,,,,,down,0,5.489,,0.524074131,-0.050925926,1,0,0,1.0322,0,182,182,176,1,techniek,images/br_techniek.png,images/cb_techniek.png,1,techniek,,,,,,,,,,,,,,,,,,,,,
,,,,,,00082,2023-10-22_21h26.06.708,vbt_B1_day2,2022.2.4,Win32,60.0528465,,,,,,,,,,,,,,,,,,,,,,,,,,,down,0,1.6895,,0.524074131,-0.050925926,1,0,0,0.9656,0,183,183,8,1,knie,images/br_knie.png,images/cb_knie.png,0,,,,,,,,,,,,,,,,,,,,,,
,,,,,,00082,2023-10-22_21h26.06.708,vbt_B1_day2,2022.2.4,Win32,60.0528465,,,,,,,,,,,,,,,,,,,,,,,,,,,down,0,15.0748,,0.645370342,0.058333326,1,0,0,1.2824,0,184,184,37,1,mijn,images/br_mijn.png,images/cb_mijn.png,0,,,,,,,,,,,,,,,,,,,,,,
,,,,,,00082,2023-10-22_21h26.06.708,vbt_B1_day2,2022.2.4,Win32,60.0528465,,,,,,,,,,,,,,,,,,,,,,,,,,,down,0,7.0659,,0.645370342,0.058333326,1,0,0,3.5632,0,185,185,23,1,zout,images/br_zout.png,images/cb_zout.png,0,,,,,,,,,,,,,,,,,,,,,,
,,,,,,00082,2023-10-22_21h26.06.708,vbt_B1_day2,2022.2.4,Win32,60.0528465,,,,,,,,,,,,,,,,,,,,,,,,,,,down,0,5.3463,,0.645370342,0.058333326,1,0,0,0.9489,0,186,186,150,1,gegeven,images/br_gegeven.png,images/cb_gegeven.png,0,,,,,,,,,,,,,,,,,,,,,,
,,,,,,00082,2023-10-22_21h26.06.708,vbt_B1_day2,2022.2.4,Win32,60.0528465,,,,,,,,,,,,,,,,,,,,,,,,,,,down,0,1.8673,,0.645370342,0.058333326,1,0,0,0.7326,0,187,187,71,1,bever,images/br_bever.png,images/cb_bever.png,0,,,,,,,,,,,,,,,,,,,,,,
,,,,,,00082,2023-10-22_21h26.06.708,vbt_B1_day2,2022.2.4,Win32,60.0528465,,,,,,,,,,,,,,,,,,,,,,,,,,,down,0,3.982,,0.690740797,0.087962963,1,0,0,0.9326,0,188,188,177,1,maaltijd,images/br_maaltijd.png,images/cb_maaltijd.png,1,maaltijd,,,,,,,,,,,,,,,,,,,,,
,,,,,,00082,2023-10-22_21h26.06.708,vbt_B1_day2,2022.2.4,Win32,60.0528465,,,,,,,,,,,,,,,,,,,,,,,,,,,down,0,8.2654,,0.67314812,0.0074074,1,0,0,0.749,0,189,189,127,1,doodmoe,images/br_doodmoe.png,images/cb_doodmoe.png,0,,,,,,,,,,,,,,,,,,,,,,
,,,,,,00082,2023-10-22_21h26.06.708,vbt_B1_day2,2022.2.4,Win32,60.0528465,,,,,,,,,,,,,,,,,,,,,,,,,,,down,0,10.7069,,0.67314812,0.0074074,1,0,0,1.1884,0,190,190,166,1,strikken,images/br_strikken.png,images/cb_strikken.png,0,,,,,,,,,,,,,,,,,,,,,,
,,,,,,00082,2023-10-22_21h26.06.708,vbt_B1_day2,2022.2.4,Win32,60.0528465,,,,,,,,,,,,,,,,,,,,,,,,,,,down,0,0.7667,,0.743518547,0.122222229,1,0,0,6.6101,0,191,191,88,1,boeien,images/br_boeien.png,images/cb_boeien.png,0,,,,,,,,,,,,,,,,,,,,,,
,,,,,,00082,2023-10-22_21h26.06.708,vbt_B1_day2,2022.2.4,Win32,60.0528465,,,,,,,,,,,,,,,,,,,,,,,,,,,down,0,0.8855,,0.743518547,0.122222229,1,0,0,0.8157,0,192,192,10,1,leek,images/br_leek.png,images/cb_leek.png,0,,,,,,,,,,,,,,,,,,,,,,
,,,,,,00082,2023-10-22_21h26.06.708,vbt_B1_day2,2022.2.4,Win32,60.0528465,,,,,,,,,,,,,,,,,,,,,,,,,,,down,0,2.082,,0.743518547,0.122222229,1,0,0,0.7158,0,193,193,72,1,strak,images/br_strak.png,images/cb_strak.png,0,,,,,,,,,,,,,,,,,,,,,,
,,,,,,00082,2023-10-22_21h26.06.708,vbt_B1_day2,2022.2.4,Win32,60.0528465,,,,,,,,,,,,,,,,,,,,,,,,,,,down,0,1.4089,,0.743518547,0.122222229,1,0,0,1.0487,0,194,194,66,1,lever,images/br_lever.png,images/cb_lever.png,0,,,,,,,,,,,,,,,,,,,,,,
,,,,,,00082,2023-10-22_21h26.06.708,vbt_B1_day2,2022.2.4,Win32,60.0528465,,,,,,,,,,,,,,,,,,,,,,,,,,,down,0,8.5765,,0.484259288,0.094444452,1,0,0,4.7117,0,195,195,196,1,nakijken,images/br_nakijken.png,images/cb_nakijken.png,0,,,,,,,,,,,,,,,,,,,,,,
,,,,,,00082,2023-10-22_21h26.06.708,vbt_B1_day2,2022.2.4,Win32,60.0528465,,,,,,,,,,,,,,,,,,,,,,,,,,,down,0,10.3168,,0.484259288,0.094444452,1,0,0,0.8323,0,196,196,124,1,bloeien,images/br_bloeien.png,images/cb_bloeien.png,0,,,,,,,,,,,,,,,,,,,,,,
,,,,,,00082,2023-10-22_21h26.06.708,vbt_B1_day2,2022.2.4,Win32,60.0528465,,,,,,,,,,,,,,,,,,,,,,,,,,,down,0,0.6228,,0.514814871,0.143518519,1,0,0,1.6657,0,197,197,15,1,soda,images/br_soda.png,images/cb_soda.png,0,,,,,,,,,,,,,,,,,,,,,,
,,,,,,00082,2023-10-22_21h26.06.708,vbt_B1_day2,2022.2.4,Win32,60.0528465,,,,,,,,,,,,,,,,,,,,,,,,,,,down,0,1.2972,,0.514814871,0.143518519,1,0,0,1.665,0,198,198,87,1,toeval,images/br_toeval.png,images/cb_toeval.png,0,,,,,,,,,,,,,,,,,,,,,,
,,,,,,00082,2023-10-22_21h26.06.708,vbt_B1_day2,2022.2.4,Win32,60.0528465,,,,,,,,,,,,,,,,,,,,,,,,,,,down,0,0.4336,,0.514814871,0.143518519,1,0,0,1.3485,0,199,199,42,1,bleek,images/br_bleek.png,images/cb_bleek.png,0,,,,,,,,,,,,,,,,,,,,,,
,,,,,,00082,2023-10-22_21h26.06.708,vbt_B1_day2,2022.2.4,Win32,60.0528465,,,,,,,,,,,,,,,,,,,,,,,,,,,,,,,,,,,,,,,,,,,,,,,0.505555612,0.115740741,1,0,0,,,,,,,,,,,,,,,,
,,,,,,00082,2023-10-22_21h26.06.708,vbt_B1_day2,2022.2.4,Win32,60.0528465,,,,,,,,,,,,,,,,,,,,,,,,,,,,,,,,,,,,,,,,,,,,,,,,,,,,0.505555612,0.115740741,1,0,0,,,,,,,,,,,
,,,,,,00082,2023-10-22_21h26.06.708,vbt_B1_day2,2022.2.4,Win32,60.0528465,,,,,,,,,,,,,,,,,,,,,,,,,,,,,,,,,,,,,,,,,,woning,images/br_woning.png,images/cb_woning.png,,woning,,,,,,,,,,,0.505555612,0.115740741,1,0,0,woning,0,0,0,10,1
,,,,,,00082,2023-10-22_21h26.06.708,vbt_B1_day2,2022.2.4,Win32,60.0528465,,,,,,,,,,,,,,,,,,,,,,,,,,,,,,,,,,,,,,,,,,kasteel,images/br_kasteel.png,images/cb_kasteel.png,,kasteel,,,,,,,,,,,0.505555612,0.115740741,1,0,0,kasteel,0,1,1,14,1
,,,,,,00082,2023-10-22_21h26.06.708,vbt_B1_day2,2022.2.4,Win32,60.0528465,,,,,,,,,,,,,,,,,,,,,,,,,,,,,,,,,,,,,,,,,,inzicht,images/br_inzicht.png,images/cb_inzicht.png,,inzicht,,,,,,,,,,,0.505555612,0.115740741,1,0,0,inzicht,0,2,2,53,1
,,,,,,00082,2023-10-22_21h26.06.708,vbt_B1_day2,2022.2.4,Win32,60.0528465,,,,,,,,,,,,,,,,,,,,,,,,,,,,,,,,,,,,,,,,,,negel,images/br_negel.png,images/cb_negel.png,,megel,,,,,,,,,,,0.505555612,0.115740741,1,0,0,megel,0,3,3,24,1
,,,,,,00082,2023-10-22_21h26.06.708,vbt_B1_day2,2022.2.4,Win32,60.0528465,,,,,,,,,,,,,,,,,,,,,,,,,,,,,,,,,,,,,,,,,,sifferd,images/br_sifferd.png,images/cb_sifferd.png,,siffe..,,,,,,,,,,,0.505555612,0.115740741,1,0,0,siffe..,0,4,4,32,1
,,,,,,00082,2023-10-22_21h26.06.708,vbt_B1_day2,2022.2.4,Win32,60.0528465,,,,,,,,,,,,,,,,,,,,,,,,,,,,,,,,,,,,,,,,,,goon,images/br_goon.png,images/cb_goon.png,,goon,,,,,,,,,,,0.505555612,0.115740741,1,0,0,goon,0,5,5,23,1
,,,,,,00082,2023-10-22_21h26.06.708,vbt_B1_day2,2022.2.4,Win32,60.0528465,,,,,,,,,,,,,,,,,,,,,,,,,,,,,,,,,,,,,,,,,,systeem,images/br_systeem.png,images/cb_systeem.png,,systeem,,,,,,,,,,,0.505555612,0.115740741,1,0,0,systeem,0,6,6,54,1
,,,,,,00082,2023-10-22_21h26.06.708,vbt_B1_day2,2022.2.4,Win32,60.0528465,,,,,,,,,,,,,,,,,,,,,,,,,,,,,,,,,,,,,,,,,,piste,images/br_piste.png,images/cb_piste.png,,piste,,,,,,,,,,,0.505555612,0.115740741,1,0,0,piste,0,7,7,5,1
,,,,,,00082,2023-10-22_21h26.06.708,vbt_B1_day2,2022.2.4,Win32,60.0528465,,,,,,,,,,,,,,,,,,,,,,,,,,,,,,,,,,,,,,,,,,clan,images/br_clan.png,images/cb_clan.png,,clan,,,,,,,,,,,0.505555612,0.115740741,1,0,0,clan,0,8,8,40,1
,,,,,,00082,2023-10-22_21h26.06.708,vbt_B1_day2,2022.2.4,Win32,60.0528465,,,,,,,,,,,,,,,,,,,,,,,,,,,,,,,,,,,,,,,,,,aanzien,images/br_aanzien.png,images/cb_aanzien.png,,aanzien,,,,,,,,,,,0.505555612,0.115740741,1,0,0,aanzien,0,9,9,13,1
,,,,,,00082,2023-10-22_21h26.06.708,vbt_B1_day2,2022.2.4,Win32,60.0528465,,,,,,,,,,,,,,,,,,,,,,,,,,,,,,,,,,,,,,,,,,heengeen,images/br_heengeen.png,images/cb_heengeen.png,,heengaan,,,,,,,,,,,0.505555612,0.112037023,1,0,0,heengaan,0,10,10,38,1
,,,,,,00082,2023-10-22_21h26.06.708,vbt_B1_day2,2022.2.4,Win32,60.0528465,,,,,,,,,,,,,,,,,,,,,,,,,,,,,,,,,,,,,,,,,,sora,images/br_sora.png,images/cb_sora.png,,sora,,,,,,,,,,,0.505555612,0.112037023,1,0,0,sora,0,11,11,22,1
,,,,,,00082,2023-10-22_21h26.06.708,vbt_B1_day2,2022.2.4,Win32,60.0528465,,,,,,,,,,,,,,,,,,,,,,,,,,,,,,,,,,,,,,,,,,opdatten,images/br_opdatten.png,images/cb_opdatten.png,,opdagen,,,,,,,,,,,0.505555612,0.112037023,1,0,0,opdagen,0,12,12,37,1
,,,,,,00082,2023-10-22_21h26.06.708,vbt_B1_day2,2022.2.4,Win32,60.0528465,,,,,,,,,,,,,,,,,,,,,,,,,,,,,,,,,,,,,,,,,,koorts,images/br_koorts.png,images/cb_koorts.png,,koorts,,,,,,,,,,,0.505555612,0.112037023,1,0,0,koorts,0,13,13,50,1
,,,,,,00082,2023-10-22_21h26.06.708,vbt_B1_day2,2022.2.4,Win32,60.0528465,,,,,,,,,,,,,,,,,,,,,,,,,,,,,,,,,,,,,,,,,,bereuwen,images/br_bereuwen.png,images/cb_bereuwen.png,,bene...,,,,,,,,,,,0.505555612,0.112037023,1,0,0,bene...,0,14,14,39,1
,,,,,,00082,2023-10-22_21h26.06.708,vbt_B1_day2,2022.2.4,Win32,60.0528465,,,,,,,,,,,,,,,,,,,,,,,,,,,,,,,,,,,,,,,,,,dode,images/br_dode.png,images/cb_dode.png,,dode,,,,,,,,,,,0.373148176,0.121296282,1,0,0,dode,0,15,15,41,1
,,,,,,00082,2023-10-22_21h26.06.708,vbt_B1_day2,2022.2.4,Win32,60.0528465,,,,,,,,,,,,,,,,,,,,,,,,,,,,,,,,,,,,,,,,,,heilig,images/br_heilig.png,images/cb_heilig.png,,heilig,,,,,,,,,,,0.373148176,0.121296282,1,0,0,heilig,0,16,16,9,1
,,,,,,00082,2023-10-22_21h26.06.708,vbt_B1_day2,2022.2.4,Win32,60.0528465,,,,,,,,,,,,,,,,,,,,,,,,,,,,,,,,,,,,,,,,,,lijnen,images/br_lijnen.png,images/cb_lijnen.png,,lijen,,,,,,,,,,,0.373148176,0.121296282,1,0,0,lijen,0,17,17,51,1
,,,,,,00082,2023-10-22_21h26.06.708,vbt_B1_day2,2022.2.4,Win32,60.0528465,,,,,,,,,,,,,,,,,,,,,,,,,,,,,,,,,,,,,,,,,,lokken,images/br_lokken.png,images/cb_lokken.png,,lokken,,,,,,,,,,,0.373148176,0.121296282,1,0,0,lokken,0,18,18,8,1
,,,,,,00082,2023-10-22_21h26.06.708,vbt_B1_day2,2022.2.4,Win32,60.0528465,,,,,,,,,,,,,,,,,,,,,,,,,,,,,,,,,,,,,,,,,,eenhoorn,images/br_eenhoorn.png,images/cb_eenhoorn.png,,eenhoorn,,,,,,,,,,,0.375925982,0.115740741,1,0,0,eenhoorn,0,19,19,19,1
,,,,,,00082,2023-10-22_21h26.06.708,vbt_B1_day2,2022.2.4,Win32,60.0528465,,,,,,,,,,,,,,,,,,,,,,,,,,,,,,,,,,,,,,,,,,zwager,images/br_zwager.png,images/cb_zwager.png,,zwagen,,,,,,,,,,,0.375925982,0.115740741,1,0,0,zwagen,0,20,20,49,1
,,,,,,00082,2023-10-22_21h26.06.708,vbt_B1_day2,2022.2.4,Win32,60.0528465,,,,,,,,,,,,,,,,,,,,,,,,,,,,,,,,,,,,,,,,,,kijlen,images/br_kijlen.png,images/cb_kijlen.png,,kijlen,,,,,,,,,,,0.378703788,0.110185164,1,0,0,kijlen,0,21,21,31,1
,,,,,,00082,2023-10-22_21h26.06.708,vbt_B1_day2,2022.2.4,Win32,60.0528465,,,,,,,,,,,,,,,,,,,,,,,,,,,,,,,,,,,,,,,,,,ophuimen,images/br_ophuimen.png,images/cb_ophuimen.png,,ophui...,,,,,,,,,,,0.378703788,0.110185164,1,0,0,ophui...,0,22,22,36,1
,,,,,,00082,2023-10-22_21h26.06.708,vbt_B1_day2,2022.2.4,Win32,60.0528465,,,,,,,,,,,,,,,,,,,,,,,,,,,,,,,,,,,,,,,,,,joes,images/br_joes.png,images/cb_joes.png,,joes,,,,,,,,,,,0.378703788,0.110185164,1,0,0,joes,0,23,23,20,1
,,,,,,00082,2023-10-22_21h26.06.708,vbt_B1_day2,2022.2.4,Win32,60.0528465,,,,,,,,,,,,,,,,,,,,,,,,,,,,,,,,,,,,,,,,,,sjijfel,images/br_sjijfel.png,images/cb_sjijfel.png,,sji....,,,,,,,,,,,0.378703788,0.110185164,1,0,0,sji....,0,24,24,33,1
,,,,,,00082,2023-10-22_21h26.06.708,vbt_B1_day2,2022.2.4,Win32,60.0528465,,,,,,,,,,,,,,,,,,,,,,,,,,,,,,,,,,,,,,,,,,thema,images/br_thema.png,images/cb_thema.png,,thema,,,,,,,,,,,0.378703788,0.110185164,1,0,0,thema,0,25,25,47,1
,,,,,,00082,2023-10-22_21h26.06.708,vbt_B1_day2,2022.2.4,Win32,60.0528465,,,,,,,,,,,,,,,,,,,,,,,,,,,,,,,,,,,,,,,,,,manieren,images/br_manieren.png,images/cb_manieren.png,,maneige,,,,,,,,,,,0.414814843,0.10833334,1,0,0,maneige,0,26,26,56,1
,,,,,,00082,2023-10-22_21h26.06.708,vbt_B1_day2,2022.2.4,Win32,60.0528465,,,,,,,,,,,,,,,,,,,,,,,,,,,,,,,,,,,,,,,,,,blad,images/br_blad.png,images/cb_blad.png,,blad,,,,,,,,,,,0.414814843,0.10833334,1,0,0,blad,0,27,27,1,1
,,,,,,00082,2023-10-22_21h26.06.708,vbt_B1_day2,2022.2.4,Win32,60.0528465,,,,,,,,,,,,,,,,,,,,,,,,,,,,,,,,,,,,,,,,,,flits,images/br_flits.png,images/cb_flits.png,,flits,,,,,,,,,,,0.414814843,0.10833334,1,0,0,flits,0,28,28,4,1
,,,,,,00082,2023-10-22_21h26.06.708,vbt_B1_day2,2022.2.4,Win32,60.0528465,,,,,,,,,,,,,,,,,,,,,,,,,,,,,,,,,,,,,,,,,,tweeling,images/br_tweeling.png,images/cb_tweeling.png,,tweeling,,,,,,,,,,,0.414814843,0.10833334,1,0,0,tweeling,0,29,29,58,1
,,,,,,00082,2023-10-22_21h26.06.708,vbt_B1_day2,2022.2.4,Win32,60.0528465,,,,,,,,,,,,,,,,,,,,,,,,,,,,,,,,,,,,,,,,,,moes,images/br_moes.png,images/cb_moes.png,,moes,,,,,,,,,,,0.414814843,0.10833334,1,0,0,moes,0,30,30,0,1
,,,,,,00082,2023-10-22_21h26.06.708,vbt_B1_day2,2022.2.4,Win32,60.0528465,,,,,,,,,,,,,,,,,,,,,,,,,,,,,,,,,,,,,,,,,,bloeien,images/br_bloeien.png,images/cb_bloeien.png,,bloeien,,,,,,,,,,,0.414814843,0.10833334,1,0,0,bloeien,0,31,31,12,1
,,,,,,00082,2023-10-22_21h26.06.708,vbt_B1_day2,2022.2.4,Win32,60.0528465,,,,,,,,,,,,,,,,,,,,,,,,,,,,,,,,,,,,,,,,,,anarchie,images/br_anarchie.png,images/cb_anarchie.png,,anarchie,,,,,,,,,,,0.414814843,0.10833334,1,0,0,anarchie,0,32,32,16,1
,,,,,,00082,2023-10-22_21h26.06.708,vbt_B1_day2,2022.2.4,Win32,60.0528465,,,,,,,,,,,,,,,,,,,,,,,,,,,,,,,,,,,,,,,,,,zegel,images/br_zegel.png,images/cb_zegel.png,,zegel,,,,,,,,,,,0.40833339,0.01666666,1,0,0,zegel,0,33,33,46,1
,,,,,,00082,2023-10-22_21h26.06.708,vbt_B1_day2,2022.2.4,Win32,60.0528465,,,,,,,,,,,,,,,,,,,,,,,,,,,,,,,,,,,,,,,,,,agressie,images/br_agressie.png,images/cb_agressie.png,,agressie,,,,,,,,,,,0.40833339,0.010185171,1,0,0,agressie,0,34,34,59,1
,,,,,,00082,2023-10-22_21h26.06.708,vbt_B1_day2,2022.2.4,Win32,60.0528465,,,,,,,,,,,,,,,,,,,,,,,,,,,,,,,,,,,,,,,,,,geld,images/br_geld.png,images/cb_geld.png,,geld,,,,,,,,,,,0.40833339,0.010185171,1,0,0,geld,0,35,35,3,1
,,,,,,00082,2023-10-22_21h26.06.708,vbt_B1_day2,2022.2.4,Win32,60.0528465,,,,,,,,,,,,,,,,,,,,,,,,,,,,,,,,,,,,,,,,,,strikken,images/br_strikken.png,images/cb_strikken.png,,strikken,,,,,,,,,,,0.40833339,0.010185171,1,0,0,strikken,0,36,36,18,1
,,,,,,00082,2023-10-22_21h26.06.708,vbt_B1_day2,2022.2.4,Win32,60.0528465,,,,,,,,,,,,,,,,,,,,,,,,,,,,,,,,,,,,,,,,,,jagen,images/br_jagen.png,images/cb_jagen.png,,jagen,,,,,,,,,,,0.40833339,0.010185171,1,0,0,jagen,0,37,37,6,1
,,,,,,00082,2023-10-22_21h26.06.708,vbt_B1_day2,2022.2.4,Win32,60.0528465,,,,,,,,,,,,,,,,,,,,,,,,,,,,,,,,,,,,,,,,,,prekken,images/br_prekken.png,images/cb_prekken.png,,prikken,,,,,,,,,,,0.40833339,0.010185171,1,0,0,prikken,0,38,38,34,1
,,,,,,00082,2023-10-22_21h26.06.708,vbt_B1_day2,2022.2.4,Win32,60.0528465,,,,,,,,,,,,,,,,,,,,,,,,,,,,,,,,,,,,,,,,,,breuk,images/br_breuk.png,images/cb_breuk.png,,breuz,,,,,,,,,,,0.40833339,0.010185171,1,0,0,breuz,0,39,39,45,1
,,,,,,00082,2023-10-22_21h26.06.708,vbt_B1_day2,2022.2.4,Win32,60.0528465,,,,,,,,,,,,,,,,,,,,,,,,,,,,,,,,,,,,,,,,,,diep,images/br_diep.png,images/cb_diep.png,,diep,,,,,,,,,,,0.40833339,0.010185171,1,0,0,diep,0,40,40,2,1
,,,,,,00082,2023-10-22_21h26.06.708,vbt_B1_day2,2022.2.4,Win32,60.0528465,,,,,,,,,,,,,,,,,,,,,,,,,,,,,,,,,,,,,,,,,,jong,images/br_jong.png,images/cb_jong.png,,jong,,,,,,,,,,,0.40833339,0.010185171,1,0,0,jong,0,41,41,43,1
,,,,,,00082,2023-10-22_21h26.06.708,vbt_B1_day2,2022.2.4,Win32,60.0528465,,,,,,,,,,,,,,,,,,,,,,,,,,,,,,,,,,,,,,,,,,tand,images/br_tand.png,images/cb_tand.png,,tand,,,,,,,,,,,0.40833339,0.010185171,1,0,0,tand,0,42,42,42,1
,,,,,,00082,2023-10-22_21h26.06.708,vbt_B1_day2,2022.2.4,Win32,60.0528465,,,,,,,,,,,,,,,,,,,,,,,,,,,,,,,,,,,,,,,,,,plannen,images/br_plannen.png,images/cb_plannen.png,,plannen,,,,,,,,,,,0.40833339,0.010185171,1,0,0,plannen,0,43,43,55,1
,,,,,,00082,2023-10-22_21h26.06.708,vbt_B1_day2,2022.2.4,Win32,60.0528465,,,,,,,,,,,,,,,,,,,,,,,,,,,,,,,,,,,,,,,,,,badon,images/br_badon.png,images/cb_badon.png,,bidon,,,,,,,,,,,0.402777778,0.010185171,1,0,0,bidon,0,44,44,26,1
,,,,,,00082,2023-10-22_21h26.06.708,vbt_B1_day2,2022.2.4,Win32,60.0528465,,,,,,,,,,,,,,,,,,,,,,,,,,,,,,,,,,,,,,,,,,kabel,images/br_kabel.png,images/cb_kabel.png,,kabel,,,,,,,,,,,0.402777778,0.010185171,1,0,0,kabel,0,45,45,7,1
,,,,,,00082,2023-10-22_21h26.06.708,vbt_B1_day2,2022.2.4,Win32,60.0528465,,,,,,,,,,,,,,,,,,,,,,,,,,,,,,,,,,,,,,,,,,ningen,images/br_ningen.png,images/cb_ningen.png,,ningen,,,,,,,,,,,0.402777778,0.010185171,1,0,0,ningen,0,46,46,28,1
,,,,,,00082,2023-10-22_21h26.06.708,vbt_B1_day2,2022.2.4,Win32,60.0528465,,,,,,,,,,,,,,,,,,,,,,,,,,,,,,,,,,,,,,,,,,wijve,images/br_wijve.png,images/cb_wijve.png,,wijve,,,,,,,,,,,0.402777778,0.010185171,1,0,0,wijve,0,47,47,27,1
,,,,,,00082,2023-10-22_21h26.06.708,vbt_B1_day2,2022.2.4,Win32,60.0528465,,,,,,,,,,,,,,,,,,,,,,,,,,,,,,,,,,,,,,,,,,welzijn,images/br_welzijn.png,images/cb_welzijn.png,,welzijn,,,,,,,,,,,0.399999972,0.008333312,1,0,0,welzijn,0,48,48,52,1
,,,,,,00082,2023-10-22_21h26.06.708,vbt_B1_day2,2022.2.4,Win32,60.0528465,,,,,,,,,,,,,,,,,,,,,,,,,,,,,,,,,,,,,,,,,,krimmen,images/br_krimmen.png,images/cb_krimmen.png,,krimm..,,,,,,,,,,,0.399999972,0.008333312,1,0,0,krimm..,0,49,49,35,1
,,,,,,00082,2023-10-22_21h26.06.708,vbt_B1_day2,2022.2.4,Win32,60.0528465,,,,,,,,,,,,,,,,,,,,,,,,,,,,,,,,,,,,,,,,,,toeval,images/br_toeval.png,images/cb_toeval.png,,toeval,,,,,,,,,,,0.42777775,0.181481467,1,0,0,toeval,0,50,50,11,1
,,,,,,00082,2023-10-22_21h26.06.708,vbt_B1_day2,2022.2.4,Win32,60.0528465,,,,,,,,,,,,,,,,,,,,,,,,,,,,,,,,,,,,,,,,,,kenzis,images/br_kenzis.png,images/cb_kenzis.png,,kenzis,,,,,,,,,,,0.42777775,0.181481467,1,0,0,kenzis,0,51,51,30,1
,,,,,,00082,2023-10-22_21h26.06.708,vbt_B1_day2,2022.2.4,Win32,60.0528465,,,,,,,,,,,,,,,,,,,,,,,,,,,,,,,,,,,,,,,,,,trots,images/br_trots.png,images/cb_trots.png,,trots,,,,,,,,,,,0.42777775,0.181481467,1,0,0,trots,0,52,52,44,1
,,,,,,00082,2023-10-22_21h26.06.708,vbt_B1_day2,2022.2.4,Win32,60.0528465,,,,,,,,,,,,,,,,,,,,,,,,,,,,,,,,,,,,,,,,,,feestdag,images/br_feestdag.png,images/cb_feestdag.png,,feestdag,,,,,,,,,,,0.42777775,0.181481467,1,0,0,feestdag,0,53,53,17,1
,,,,,,00082,2023-10-22_21h26.06.708,vbt_B1_day2,2022.2.4,Win32,60.0528465,,,,,,,,,,,,,,,,,,,,,,,,,,,,,,,,,,,,,,,,,,lurgen,images/br_lurgen.png,images/cb_lurgen.png,,lurgen,,,,,,,,,,,0.250925912,0.025925919,1,0,0,lurgen,0,54,54,29,1
,,,,,,00082,2023-10-22_21h26.06.708,vbt_B1_day2,2022.2.4,Win32,60.0528465,,,,,,,,,,,,,,,,,,,,,,,,,,,,,,,,,,,,,,,,,,aanvraag,images/br_aanvraag.png,images/cb_aanvraag.png,,aanvraag,,,,,,,,,,,0.250925912,0.025925919,1,0,0,aanvraag,0,55,55,57,1
,,,,,,00082,2023-10-22_21h26.06.708,vbt_B1_day2,2022.2.4,Win32,60.0528465,,,,,,,,,,,,,,,,,,,,,,,,,,,,,,,,,,,,,,,,,,remel,images/br_remel.png,images/cb_remel.png,,remel,,,,,,,,,,,0.250925912,0.025925919,1,0,0,remel,0,56,56,25,1
,,,,,,00082,2023-10-22_21h26.06.708,vbt_B1_day2,2022.2.4,Win32,60.0528465,,,,,,,,,,,,,,,,,,,,,,,,,,,,,,,,,,,,,,,,,,stes,images/br_stes.png,images/cb_stes.png,,stes,,,,,,,,,,,0.250925912,0.025925919,1,0,0,stes,0,57,57,21,1
,,,,,,00082,2023-10-22_21h26.06.708,vbt_B1_day2,2022.2.4,Win32,60.0528465,,,,,,,,,,,,,,,,,,,,,,,,,,,,,,,,,,,,,,,,,,zomers,images/br_zomers.png,images/cb_zomers.png,,zomer.,,,,,,,,,,,0.250925912,0.025925919,1,0,0,zomer.,0,58,58,48,1
,,,,,,00082,2023-10-22_21h26.06.708,vbt_B1_day2,2022.2.4,Win32,60.0528465,,,,,,,,,,,,,,,,,,,,,,,,,,,,,,,,,,,,,,,,,,doodmoe,images/br_doodmoe.png,images/cb_doodmoe.png,,doogden,,,,,,,,,,,0.250925912,0.025925919,1,0,0,doogden,0,59,59,15,1
,,,,,,00082,2023-10-22_21h26.06.708,vbt_B1_day2,2022.2.4,Win32,60.0528465,,,,,,,,,,,,,,,,,,,,,,,,,,,,,,,,,,,,,,,,,,,,,,,,,,,,,,,,,,,,,,,,,,,
