welcome_mouse.x,welcome_mouse.y,welcome_mouse.leftButton,welcome_mouse.midButton,welcome_mouse.rightButton,welcome_mouse.time,"ID",date,expName,psychopyVersion,OS,frameRate,refresh_mouse.x,refresh_mouse.y,refresh_mouse.leftButton,refresh_mouse.midButton,refresh_mouse.rightButton,refresh_mouse.time,braille_mouse.x,braille_mouse.y,braille_mouse.leftButton,braille_mouse.midButton,braille_mouse.rightButton,braille_mouse.time,trials.thisRepN,trials.thisTrialN,trials.thisN,trials.thisIndex,trials.ran,nlLet,brLet,cbLet,trainInstr_mouse.x,trainInstr_mouse.y,trainInstr_mouse.leftButton,trainInstr_mouse.midButton,trainInstr_mouse.rightButton,trainInstr_mouse.time,translation_key.keys,translation_key.corr,translation_key.rt,word_rsp.text,word_mouse.x,word_mouse.y,word_mouse.leftButton,word_mouse.midButton,word_mouse.rightButton,word_mouse.time,train_loop.thisRepN,train_loop.thisTrialN,train_loop.thisN,train_loop.thisIndex,train_loop.ran,nlWrd,brWrd,cbWrd,test,testResp,mouse.x,mouse.y,mouse.leftButton,mouse.midButton,mouse.rightButton,testInstr_mouse.x,testInstr_mouse.y,testInstr_mouse.leftButton,testInstr_mouse.midButton,testInstr_mouse.rightButton,test_mouse.x,test_mouse.y,test_mouse.leftButton,test_mouse.midButton,test_mouse.rightButton,test_response.text,test_loop.thisRepN,test_loop.thisTrialN,test_loop.thisN,test_loop.thisIndex,test_loop.ran
-0.035185143,-0.036111125,1,0,0,1.4866,00033,2023-09-19_06h38.30.494,vbt_B1_day2,2022.2.4,Win32,59.82650314,,,,,,,,,,,,,,,,,,,,,,,,,,,,,,,,,,,,,,,,,,,,,,,,,,,,,,,,,,,,,,,,,,,
,,,,,,00033,2023-09-19_06h38.30.494,vbt_B1_day2,2022.2.4,Win32,59.82650314,-0.035185143,-0.036111125,1,0,0,0.7927,,,,,,,,,,,,,,,,,,,,,,,,,,,,,,,,,,,,,,,,,,,,,,,,,,,,,,,,,,,,,
,,,,,,00033,2023-09-19_06h38.30.494,vbt_B1_day2,2022.2.4,Win32,59.82650314,,,,,,,0.113888917,-0.029629637,1,0,0,0.2832,0,0,0,13,1,n,images/br_n.png,images/cb_n.png,,,,,,,,,,,,,,,,,,,,,,,,,,,,,,,,,,,,,,,,,,,,,,,
,,,,,,00033,2023-09-19_06h38.30.494,vbt_B1_day2,2022.2.4,Win32,59.82650314,,,,,,,0.113888917,-0.029629637,1,0,0,1.3343,0,1,1,22,1,w,images/br_w.png,images/cb_w.png,,,,,,,,,,,,,,,,,,,,,,,,,,,,,,,,,,,,,,,,,,,,,,,
,,,,,,00033,2023-09-19_06h38.30.494,vbt_B1_day2,2022.2.4,Win32,59.82650314,,,,,,,0.113888917,-0.029629637,1,0,0,0.3715,0,2,2,2,1,c,images/br_c.png,images/cb_c.png,,,,,,,,,,,,,,,,,,,,,,,,,,,,,,,,,,,,,,,,,,,,,,,
,,,,,,00033,2023-09-19_06h38.30.494,vbt_B1_day2,2022.2.4,Win32,59.82650314,,,,,,,0.113888917,-0.029629637,1,0,0,1.8335,0,3,3,21,1,v,images/br_v.png,images/cb_v.png,,,,,,,,,,,,,,,,,,,,,,,,,,,,,,,,,,,,,,,,,,,,,,,
,,,,,,00033,2023-09-19_06h38.30.494,vbt_B1_day2,2022.2.4,Win32,59.82650314,,,,,,,0.113888917,-0.029629637,1,0,0,0.3885,0,4,4,5,1,f,images/br_f.png,images/cb_f.png,,,,,,,,,,,,,,,,,,,,,,,,,,,,,,,,,,,,,,,,,,,,,,,
,,,,,,00033,2023-09-19_06h38.30.494,vbt_B1_day2,2022.2.4,Win32,59.82650314,,,,,,,0.113888917,-0.029629637,1,0,0,0.4329,0,5,5,14,1,o,images/br_o.png,images/cb_o.png,,,,,,,,,,,,,,,,,,,,,,,,,,,,,,,,,,,,,,,,,,,,,,,
,,,,,,00033,2023-09-19_06h38.30.494,vbt_B1_day2,2022.2.4,Win32,59.82650314,,,,,,,0.113888917,-0.029629637,1,0,0,1.3674,0,6,6,19,1,t,images/br_t.png,images/cb_t.png,,,,,,,,,,,,,,,,,,,,,,,,,,,,,,,,,,,,,,,,,,,,,,,
,,,,,,00033,2023-09-19_06h38.30.494,vbt_B1_day2,2022.2.4,Win32,59.82650314,,,,,,,0.113888917,-0.029629637,1,0,0,0.9001,0,7,7,15,1,p,images/br_p.png,images/cb_p.png,,,,,,,,,,,,,,,,,,,,,,,,,,,,,,,,,,,,,,,,,,,,,,,
,,,,,,00033,2023-09-19_06h38.30.494,vbt_B1_day2,2022.2.4,Win32,59.82650314,,,,,,,0.113888917,-0.029629637,1,0,0,0.5337,0,8,8,24,1,y,images/br_y.png,images/cb_y.png,,,,,,,,,,,,,,,,,,,,,,,,,,,,,,,,,,,,,,,,,,,,,,,
,,,,,,00033,2023-09-19_06h38.30.494,vbt_B1_day2,2022.2.4,Win32,59.82650314,,,,,,,0.113888917,-0.029629637,1,0,0,2.0333,0,9,9,9,1,j,images/br_j.png,images/cb_j.png,,,,,,,,,,,,,,,,,,,,,,,,,,,,,,,,,,,,,,,,,,,,,,,
,,,,,,00033,2023-09-19_06h38.30.494,vbt_B1_day2,2022.2.4,Win32,59.82650314,,,,,,,0.113888917,-0.029629637,1,0,0,0.9282,0,10,10,8,1,i,images/br_i.png,images/cb_i.png,,,,,,,,,,,,,,,,,,,,,,,,,,,,,,,,,,,,,,,,,,,,,,,
,,,,,,00033,2023-09-19_06h38.30.494,vbt_B1_day2,2022.2.4,Win32,59.82650314,,,,,,,0.113888917,-0.029629637,1,0,0,0.717,0,11,11,10,1,k,images/br_k.png,images/cb_k.png,,,,,,,,,,,,,,,,,,,,,,,,,,,,,,,,,,,,,,,,,,,,,,,
,,,,,,00033,2023-09-19_06h38.30.494,vbt_B1_day2,2022.2.4,Win32,59.82650314,,,,,,,0.113888917,-0.029629637,1,0,0,0.7007,0,12,12,0,1,a,images/br_a.png,images/cb_a.png,,,,,,,,,,,,,,,,,,,,,,,,,,,,,,,,,,,,,,,,,,,,,,,
,,,,,,00033,2023-09-19_06h38.30.494,vbt_B1_day2,2022.2.4,Win32,59.82650314,,,,,,,0.113888917,-0.029629637,1,0,0,0.4665,0,13,13,7,1,h,images/br_h.png,images/cb_h.png,,,,,,,,,,,,,,,,,,,,,,,,,,,,,,,,,,,,,,,,,,,,,,,
,,,,,,00033,2023-09-19_06h38.30.494,vbt_B1_day2,2022.2.4,Win32,59.82650314,,,,,,,0.207407422,-0.068518533,1,0,0,0.3672,0,14,14,11,1,l,images/br_l.png,images/cb_l.png,,,,,,,,,,,,,,,,,,,,,,,,,,,,,,,,,,,,,,,,,,,,,,,
,,,,,,00033,2023-09-19_06h38.30.494,vbt_B1_day2,2022.2.4,Win32,59.82650314,,,,,,,0.207407422,-0.068518533,1,0,0,0.3846,0,15,15,12,1,m,images/br_m.png,images/cb_m.png,,,,,,,,,,,,,,,,,,,,,,,,,,,,,,,,,,,,,,,,,,,,,,,
,,,,,,00033,2023-09-19_06h38.30.494,vbt_B1_day2,2022.2.4,Win32,59.82650314,,,,,,,0.207407422,-0.068518533,1,0,0,0.083,0,16,16,6,1,g,images/br_g.png,images/cb_g.png,,,,,,,,,,,,,,,,,,,,,,,,,,,,,,,,,,,,,,,,,,,,,,,
,,,,,,00033,2023-09-19_06h38.30.494,vbt_B1_day2,2022.2.4,Win32,59.82650314,,,,,,,0.207407422,-0.068518533,1,0,0,0.4834,0,17,17,17,1,r,images/br_r.png,images/cb_r.png,,,,,,,,,,,,,,,,,,,,,,,,,,,,,,,,,,,,,,,,,,,,,,,
,,,,,,00033,2023-09-19_06h38.30.494,vbt_B1_day2,2022.2.4,Win32,59.82650314,,,,,,,0.207407422,-0.068518533,1,0,0,0.4713,0,18,18,20,1,u,images/br_u.png,images/cb_u.png,,,,,,,,,,,,,,,,,,,,,,,,,,,,,,,,,,,,,,,,,,,,,,,
,,,,,,00033,2023-09-19_06h38.30.494,vbt_B1_day2,2022.2.4,Win32,59.82650314,,,,,,,0.207407422,-0.068518533,1,0,0,0.6553,0,19,19,4,1,e,images/br_e.png,images/cb_e.png,,,,,,,,,,,,,,,,,,,,,,,,,,,,,,,,,,,,,,,,,,,,,,,
,,,,,,00033,2023-09-19_06h38.30.494,vbt_B1_day2,2022.2.4,Win32,59.82650314,,,,,,,0.207407422,-0.068518533,1,0,0,0.3667,0,20,20,18,1,s,images/br_s.png,images/cb_s.png,,,,,,,,,,,,,,,,,,,,,,,,,,,,,,,,,,,,,,,,,,,,,,,
,,,,,,00033,2023-09-19_06h38.30.494,vbt_B1_day2,2022.2.4,Win32,59.82650314,,,,,,,0.207407422,-0.068518533,1,0,0,0.445,0,21,21,1,1,b,images/br_b.png,images/cb_b.png,,,,,,,,,,,,,,,,,,,,,,,,,,,,,,,,,,,,,,,,,,,,,,,
,,,,,,00033,2023-09-19_06h38.30.494,vbt_B1_day2,2022.2.4,Win32,59.82650314,,,,,,,0.207407422,-0.068518533,1,0,0,0.2667,0,22,22,3,1,d,images/br_d.png,images/cb_d.png,,,,,,,,,,,,,,,,,,,,,,,,,,,,,,,,,,,,,,,,,,,,,,,
,,,,,,00033,2023-09-19_06h38.30.494,vbt_B1_day2,2022.2.4,Win32,59.82650314,,,,,,,0.207407422,-0.068518533,1,0,0,0.0828,0,23,23,25,1,z,images/br_z.png,images/cb_z.png,,,,,,,,,,,,,,,,,,,,,,,,,,,,,,,,,,,,,,,,,,,,,,,
,,,,,,00033,2023-09-19_06h38.30.494,vbt_B1_day2,2022.2.4,Win32,59.82650314,,,,,,,0.207407422,-0.068518533,1,0,0,0.539,0,24,24,23,1,x,images/br_x.png,images/cb_x.png,,,,,,,,,,,,,,,,,,,,,,,,,,,,,,,,,,,,,,,,,,,,,,,
,,,,,,00033,2023-09-19_06h38.30.494,vbt_B1_day2,2022.2.4,Win32,59.82650314,,,,,,,0.207407422,-0.068518533,1,0,0,0.4821,0,25,25,16,1,q,images/br_q.png,images/cb_q.png,,,,,,,,,,,,,,,,,,,,,,,,,,,,,,,,,,,,,,,,,,,,,,,
,,,,,,00033,2023-09-19_06h38.30.494,vbt_B1_day2,2022.2.4,Win32,59.82650314,,,,,,,,,,,,,,,,,,,,,0.296296296,0.037962949,1,0,0,25.8202,,,,,,,,,,,,,,,,,,,,,,,,,,,,,,,,,,,,,,,,,
,,,,,,00033,2023-09-19_06h38.30.494,vbt_B1_day2,2022.2.4,Win32,59.82650314,,,,,,,,,,,,,,,,,,,,,,,,,,,down,0,10.5507,,0.327777863,0.089814822,1,0,0,3.5305,0,0,0,150,1,gegeven,images/br_gegeven.png,images/cb_gegeven.png,0,,,,,,,,,,,,,,,,,,,,,,
,,,,,,00033,2023-09-19_06h38.30.494,vbt_B1_day2,2022.2.4,Win32,59.82650314,,,,,,,,,,,,,,,,,,,,,,,,,,,down,0,22.5482,,0.327777863,0.089814822,1,0,0,1.3163,0,1,1,198,1,bedoelen,images/br_bedoelen.png,images/cb_bedoelen.png,0,,,,,,,,,,,,,,,,,,,,,,
,,,,,,00033,2023-09-19_06h38.30.494,vbt_B1_day2,2022.2.4,Win32,59.82650314,,,,,,,,,,,,,,,,,,,,,,,,,,,down,0,5.1719,,0.327777863,0.089814822,1,0,0,0.8666,0,2,2,47,1,kabel,images/br_kabel.png,images/cb_kabel.png,0,,,,,,,,,,,,,,,,,,,,,,
,,,,,,00033,2023-09-19_06h38.30.494,vbt_B1_day2,2022.2.4,Win32,59.82650314,,,,,,,,,,,,,,,,,,,,,,,,,,,down,0,4.5607,,0.327777863,0.089814822,1,0,0,2.9053,0,3,3,17,1,taal,images/br_taal.png,images/cb_taal.png,1,taal,,,,,,,,,,,,,,,,,,,,,
,,,,,,00033,2023-09-19_06h38.30.494,vbt_B1_day2,2022.2.4,Win32,59.82650314,,,,,,,,,,,,,,,,,,,,,,,,,,,down,0,5.8841,,0.327777863,0.089814822,1,0,0,2.0645,0,4,4,25,1,plek,images/br_plek.png,images/cb_plek.png,0,,,,,,,,,,,,,,,,,,,,,,
,,,,,,00033,2023-09-19_06h38.30.494,vbt_B1_day2,2022.2.4,Win32,59.82650314,,,,,,,,,,,,,,,,,,,,,,,,,,,down,0,3.8359,,0.327777863,0.089814822,1,0,0,3.5542,0,5,5,74,1,graaf,images/br_graaf.png,images/cb_graaf.png,0,,,,,,,,,,,,,,,,,,,,,,
,,,,,,00033,2023-09-19_06h38.30.494,vbt_B1_day2,2022.2.4,Win32,59.82650314,,,,,,,,,,,,,,,,,,,,,,,,,,,down,0,3.2162,,0.327777863,0.089814822,1,0,0,1.4996,0,6,6,64,1,wegen,images/br_wegen.png,images/cb_wegen.png,0,,,,,,,,,,,,,,,,,,,,,,
,,,,,,00033,2023-09-19_06h38.30.494,vbt_B1_day2,2022.2.4,Win32,59.82650314,,,,,,,,,,,,,,,,,,,,,,,,,,,down,0,6.506,,0.327777863,0.089814822,1,0,0,1.115,0,7,7,199,1,beseffen,images/br_beseffen.png,images/cb_beseffen.png,0,,,,,,,,,,,,,,,,,,,,,,
,,,,,,00033,2023-09-19_06h38.30.494,vbt_B1_day2,2022.2.4,Win32,59.82650314,,,,,,,,,,,,,,,,,,,,,,,,,,,down,0,13.1489,,0.327777863,0.089814822,1,0,0,0.9495,0,8,8,185,1,mijnheer,images/br_mijnheer.png,images/cb_mijnheer.png,0,,,,,,,,,,,,,,,,,,,,,,
,,,,,,00033,2023-09-19_06h38.30.494,vbt_B1_day2,2022.2.4,Win32,59.82650314,,,,,,,,,,,,,,,,,,,,,,,,,,,down,0,2.516,,0.327777863,0.089814822,1,0,0,2.6001,0,9,9,0,1,slak,images/br_slak.png,images/cb_slak.png,0,,,,,,,,,,,,,,,,,,,,,,
,,,,,,00033,2023-09-19_06h38.30.494,vbt_B1_day2,2022.2.4,Win32,59.82650314,,,,,,,,,,,,,,,,,,,,,,,,,,,down,0,7.3031,,0.327777863,0.089814822,1,0,0,1.1716,0,10,10,121,1,twijfel,images/br_twijfel.png,images/cb_twijfel.png,0,,,,,,,,,,,,,,,,,,,,,,
,,,,,,00033,2023-09-19_06h38.30.494,vbt_B1_day2,2022.2.4,Win32,59.82650314,,,,,,,,,,,,,,,,,,,,,,,,,,,down,0,15.7489,,0.327777863,0.089814822,1,0,0,0.9333,0,11,11,68,1,schat,images/br_schat.png,images/cb_schat.png,0,,,,,,,,,,,,,,,,,,,,,,
,,,,,,00033,2023-09-19_06h38.30.494,vbt_B1_day2,2022.2.4,Win32,59.82650314,,,,,,,,,,,,,,,,,,,,,,,,,,,down,0,10.0229,,0.327777863,0.089814822,1,0,0,0.733,0,12,12,119,1,liefje,images/br_liefje.png,images/cb_liefje.png,0,,,,,,,,,,,,,,,,,,,,,,
,,,,,,00033,2023-09-19_06h38.30.494,vbt_B1_day2,2022.2.4,Win32,59.82650314,,,,,,,,,,,,,,,,,,,,,,,,,,,down,0,11.6165,,0.327777863,0.089814822,1,0,0,0.7537,0,13,13,197,1,spanning,images/br_spanning.png,images/cb_spanning.png,0,,,,,,,,,,,,,,,,,,,,,,
,,,,,,00033,2023-09-19_06h38.30.494,vbt_B1_day2,2022.2.4,Win32,59.82650314,,,,,,,,,,,,,,,,,,,,,,,,,,,down,0,9.3914,,0.327777863,0.089814822,1,0,0,0.9492,0,14,14,173,1,apparaat,images/br_apparaat.png,images/cb_apparaat.png,0,,,,,,,,,,,,,,,,,,,,,,
,,,,,,00033,2023-09-19_06h38.30.494,vbt_B1_day2,2022.2.4,Win32,59.82650314,,,,,,,,,,,,,,,,,,,,,,,,,,,down,0,6.5996,,0.327777863,0.089814822,1,0,0,0.8052,0,15,15,69,1,waken,images/br_waken.png,images/cb_waken.png,0,,,,,,,,,,,,,,,,,,,,,,
,,,,,,00033,2023-09-19_06h38.30.494,vbt_B1_day2,2022.2.4,Win32,59.82650314,,,,,,,,,,,,,,,,,,,,,,,,,,,down,0,6.7713,,0.327777863,0.089814822,1,0,0,0.7499,0,16,16,54,1,gebit,images/br_gebit.png,images/cb_gebit.png,0,,,,,,,,,,,,,,,,,,,,,,
,,,,,,00033,2023-09-19_06h38.30.494,vbt_B1_day2,2022.2.4,Win32,59.82650314,,,,,,,,,,,,,,,,,,,,,,,,,,,down,0,2.0035,,0.327777863,0.089814822,1,0,0,0.8716,0,17,17,1,1,zaal,images/br_zaal.png,images/cb_zaal.png,0,,,,,,,,,,,,,,,,,,,,,,
,,,,,,00033,2023-09-19_06h38.30.494,vbt_B1_day2,2022.2.4,Win32,59.82650314,,,,,,,,,,,,,,,,,,,,,,,,,,,down,0,16.4125,,0.327777863,0.089814822,1,0,0,0.9988,0,18,18,135,1,gedicht,images/br_gedicht.png,images/cb_gedicht.png,0,,,,,,,,,,,,,,,,,,,,,,
,,,,,,00033,2023-09-19_06h38.30.494,vbt_B1_day2,2022.2.4,Win32,59.82650314,,,,,,,,,,,,,,,,,,,,,,,,,,,down,0,8.8002,,0.327777863,0.089814822,1,0,0,0.9496,0,19,19,195,1,middelen,images/br_middelen.png,images/cb_middelen.png,0,,,,,,,,,,,,,,,,,,,,,,
,,,,,,00033,2023-09-19_06h38.30.494,vbt_B1_day2,2022.2.4,Win32,59.82650314,,,,,,,,,,,,,,,,,,,,,,,,,,,down,0,6.8,,0.327777863,0.089814822,1,0,0,1.0706,0,20,20,168,1,bisschop,images/br_bisschop.png,images/cb_bisschop.png,0,,,,,,,,,,,,,,,,,,,,,,
,,,,,,00033,2023-09-19_06h38.30.494,vbt_B1_day2,2022.2.4,Win32,59.82650314,,,,,,,,,,,,,,,,,,,,,,,,,,,down,0,4.8514,,0.327777863,0.089814822,1,0,0,0.6993,0,21,21,76,1,afval,images/br_afval.png,images/cb_afval.png,0,,,,,,,,,,,,,,,,,,,,,,
,,,,,,00033,2023-09-19_06h38.30.494,vbt_B1_day2,2022.2.4,Win32,59.82650314,,,,,,,,,,,,,,,,,,,,,,,,,,,down,0,5.1052,,0.327777863,0.089814822,1,0,0,0.638,0,22,22,65,1,parel,images/br_parel.png,images/cb_parel.png,0,,,,,,,,,,,,,,,,,,,,,,
,,,,,,00033,2023-09-19_06h38.30.494,vbt_B1_day2,2022.2.4,Win32,59.82650314,,,,,,,,,,,,,,,,,,,,,,,,,,,down,0,0.8177,,0.327777863,0.089814822,1,0,0,1.5163,0,23,23,13,1,kaal,images/br_kaal.png,images/cb_kaal.png,0,,,,,,,,,,,,,,,,,,,,,,
,,,,,,00033,2023-09-19_06h38.30.494,vbt_B1_day2,2022.2.4,Win32,59.82650314,,,,,,,,,,,,,,,,,,,,,,,,,,,down,0,6.2154,,0.327777863,0.089814822,1,0,0,1.0168,0,24,24,151,1,aanzoek,images/br_aanzoek.png,images/cb_aanzoek.png,0,,,,,,,,,,,,,,,,,,,,,,
,,,,,,00033,2023-09-19_06h38.30.494,vbt_B1_day2,2022.2.4,Win32,59.82650314,,,,,,,,,,,,,,,,,,,,,,,,,,,down,0,7.8705,,0.327777863,0.089814822,1,0,0,0.8996,0,25,25,125,1,aanzien,images/br_aanzien.png,images/cb_aanzien.png,0,,,,,,,,,,,,,,,,,,,,,,
,,,,,,00033,2023-09-19_06h38.30.494,vbt_B1_day2,2022.2.4,Win32,59.82650314,,,,,,,,,,,,,,,,,,,,,,,,,,,down,0,12.5493,,0.327777863,0.089814822,1,0,0,1.3155,0,26,26,128,1,prikken,images/br_prikken.png,images/cb_prikken.png,0,,,,,,,,,,,,,,,,,,,,,,
,,,,,,00033,2023-09-19_06h38.30.494,vbt_B1_day2,2022.2.4,Win32,59.82650314,,,,,,,,,,,,,,,,,,,,,,,,,,,down,0,4.5215,,0.327777863,0.089814822,1,0,0,0.6831,0,27,27,82,1,muziek,images/br_muziek.png,images/cb_muziek.png,0,,,,,,,,,,,,,,,,,,,,,,
,,,,,,00033,2023-09-19_06h38.30.494,vbt_B1_day2,2022.2.4,Win32,59.82650314,,,,,,,,,,,,,,,,,,,,,,,,,,,down,0,8.4158,,0.327777863,0.089814822,1,0,0,0.6332,0,28,28,131,1,opzicht,images/br_opzicht.png,images/cb_opzicht.png,0,,,,,,,,,,,,,,,,,,,,,,
,,,,,,00033,2023-09-19_06h38.30.494,vbt_B1_day2,2022.2.4,Win32,59.82650314,,,,,,,,,,,,,,,,,,,,,,,,,,,down,0,3.2674,,0.327777863,0.089814822,1,0,0,0.6323,0,29,29,84,1,lokken,images/br_lokken.png,images/cb_lokken.png,0,,,,,,,,,,,,,,,,,,,,,,
,,,,,,00033,2023-09-19_06h38.30.494,vbt_B1_day2,2022.2.4,Win32,59.82650314,,,,,,,,,,,,,,,,,,,,,,,,,,,down,0,2.1536,,0.327777863,0.089814822,1,0,0,0.7995,0,30,30,10,1,leek,images/br_leek.png,images/cb_leek.png,0,,,,,,,,,,,,,,,,,,,,,,
,,,,,,00033,2023-09-19_06h38.30.494,vbt_B1_day2,2022.2.4,Win32,59.82650314,,,,,,,,,,,,,,,,,,,,,,,,,,,down,0,10.6724,,0.327777863,0.089814822,1,0,0,0.5994,0,31,31,108,1,excuus,images/br_excuus.png,images/cb_excuus.png,0,,,,,,,,,,,,,,,,,,,,,,
,,,,,,00033,2023-09-19_06h38.30.494,vbt_B1_day2,2022.2.4,Win32,59.82650314,,,,,,,,,,,,,,,,,,,,,,,,,,,down,0,2.8005,,0.327777863,0.089814822,1,0,0,0.5383,0,32,32,2,1,jaar,images/br_jaar.png,images/cb_jaar.png,0,,,,,,,,,,,,,,,,,,,,,,
,,,,,,00033,2023-09-19_06h38.30.494,vbt_B1_day2,2022.2.4,Win32,59.82650314,,,,,,,,,,,,,,,,,,,,,,,,,,,down,0,4.8327,,0.327777863,0.089814822,1,0,0,0.6835,0,33,33,101,1,staren,images/br_staren.png,images/cb_staren.png,0,,,,,,,,,,,,,,,,,,,,,,
,,,,,,00033,2023-09-19_06h38.30.494,vbt_B1_day2,2022.2.4,Win32,59.82650314,,,,,,,,,,,,,,,,,,,,,,,,,,,down,0,3.1753,,0.327777863,0.089814822,1,0,0,0.749,0,34,34,75,1,snoep,images/br_snoep.png,images/cb_snoep.png,0,,,,,,,,,,,,,,,,,,,,,,
,,,,,,00033,2023-09-19_06h38.30.494,vbt_B1_day2,2022.2.4,Win32,59.82650314,,,,,,,,,,,,,,,,,,,,,,,,,,,down,0,6.2678,,0.327777863,0.089814822,1,0,0,0.5887,0,35,35,100,1,geduld,images/br_geduld.png,images/cb_geduld.png,0,,,,,,,,,,,,,,,,,,,,,,
,,,,,,00033,2023-09-19_06h38.30.494,vbt_B1_day2,2022.2.4,Win32,59.82650314,,,,,,,,,,,,,,,,,,,,,,,,,,,down,0,2.9877,,0.327777863,0.089814822,1,0,0,0.6504,0,36,36,34,1,vorm,images/br_vorm.png,images/cb_vorm.png,0,,,,,,,,,,,,,,,,,,,,,,
,,,,,,00033,2023-09-19_06h38.30.494,vbt_B1_day2,2022.2.4,Win32,59.82650314,,,,,,,,,,,,,,,,,,,,,,,,,,,down,0,17.2162,,0.414814843,-0.025000007,1,0,0,14.0808,0,37,37,58,1,tekst,images/br_tekst.png,images/cb_tekst.png,1,teksttekst,,,,,,,,,,,,,,,,,,,,,
,,,,,,00033,2023-09-19_06h38.30.494,vbt_B1_day2,2022.2.4,Win32,59.82650314,,,,,,,,,,,,,,,,,,,,,,,,,,,down,0,5.6003,,0.414814843,-0.025000007,1,0,0,0.4723,0,38,38,143,1,hechten,images/br_hechten.png,images/cb_hechten.png,0,,,,,,,,,,,,,,,,,,,,,,
,,,,,,00033,2023-09-19_06h38.30.494,vbt_B1_day2,2022.2.4,Win32,59.82650314,,,,,,,,,,,,,,,,,,,,,,,,,,,down,0,3.9334,,0.414814843,-0.025000007,1,0,0,0.5495,0,39,39,44,1,flits,images/br_flits.png,images/cb_flits.png,0,,,,,,,,,,,,,,,,,,,,,,
,,,,,,00033,2023-09-19_06h38.30.494,vbt_B1_day2,2022.2.4,Win32,59.82650314,,,,,,,,,,,,,,,,,,,,,,,,,,,down,0,13.7783,,0.414814843,-0.025000007,1,0,0,0.5046,0,40,40,184,1,aandelen,images/br_aandelen.png,images/cb_aandelen.png,0,,,,,,,,,,,,,,,,,,,,,,
,,,,,,00033,2023-09-19_06h38.30.494,vbt_B1_day2,2022.2.4,Win32,59.82650314,,,,,,,,,,,,,,,,,,,,,,,,,,,down,0,7.017,,0.414814843,-0.025000007,1,0,0,0.6333,0,41,41,71,1,bever,images/br_bever.png,images/cb_bever.png,0,,,,,,,,,,,,,,,,,,,,,,
,,,,,,00033,2023-09-19_06h38.30.494,vbt_B1_day2,2022.2.4,Win32,59.82650314,,,,,,,,,,,,,,,,,,,,,,,,,,,down,0,3.6041,,0.414814843,-0.025000007,1,0,0,0.5016,0,42,42,86,1,woning,images/br_woning.png,images/cb_woning.png,0,,,,,,,,,,,,,,,,,,,,,,
,,,,,,00033,2023-09-19_06h38.30.494,vbt_B1_day2,2022.2.4,Win32,59.82650314,,,,,,,,,,,,,,,,,,,,,,,,,,,down,0,5.6833,,0.414814843,-0.025000007,1,0,0,0.5986,0,43,43,183,1,getuigen,images/br_getuigen.png,images/cb_getuigen.png,0,,,,,,,,,,,,,,,,,,,,,,
,,,,,,00033,2023-09-19_06h38.30.494,vbt_B1_day2,2022.2.4,Win32,59.82650314,,,,,,,,,,,,,,,,,,,,,,,,,,,down,0,5.7165,,0.414814843,-0.025000007,1,0,0,0.5667,0,44,44,122,1,waarvan,images/br_waarvan.png,images/cb_waarvan.png,0,,,,,,,,,,,,,,,,,,,,,,
,,,,,,00033,2023-09-19_06h38.30.494,vbt_B1_day2,2022.2.4,Win32,59.82650314,,,,,,,,,,,,,,,,,,,,,,,,,,,down,0,3.731,,0.414814843,-0.025000007,1,0,0,0.6996,0,45,45,30,1,uien,images/br_uien.png,images/cb_uien.png,0,,,,,,,,,,,,,,,,,,,,,,
,,,,,,00033,2023-09-19_06h38.30.494,vbt_B1_day2,2022.2.4,Win32,59.82650314,,,,,,,,,,,,,,,,,,,,,,,,,,,down,0,3.6333,,0.414814843,-0.025000007,1,0,0,0.8058,0,46,46,57,1,steek,images/br_steek.png,images/cb_steek.png,1,steek,,,,,,,,,,,,,,,,,,,,,
,,,,,,00033,2023-09-19_06h38.30.494,vbt_B1_day2,2022.2.4,Win32,59.82650314,,,,,,,,,,,,,,,,,,,,,,,,,,,down,0,22.9483,,0.414814843,-0.025000007,1,0,0,1.4449,0,47,47,186,1,voorraad,images/br_voorraad.png,images/cb_voorraad.png,0,,,,,,,,,,,,,,,,,,,,,,
,,,,,,00033,2023-09-19_06h38.30.494,vbt_B1_day2,2022.2.4,Win32,59.82650314,,,,,,,,,,,,,,,,,,,,,,,,,,,down,0,5.267,,0.414814843,-0.025000007,1,0,0,0.4861,0,48,48,124,1,bloeien,images/br_bloeien.png,images/cb_bloeien.png,0,,,,,,,,,,,,,,,,,,,,,,
,,,,,,00033,2023-09-19_06h38.30.494,vbt_B1_day2,2022.2.4,Win32,59.82650314,,,,,,,,,,,,,,,,,,,,,,,,,,,down,0,7.9514,,0.414814843,-0.025000007,1,0,0,0.7716,0,49,49,111,1,ticket,images/br_ticket.png,images/cb_ticket.png,0,,,,,,,,,,,,,,,,,,,,,,
,,,,,,00033,2023-09-19_06h38.30.494,vbt_B1_day2,2022.2.4,Win32,59.82650314,,,,,,,,,,,,,,,,,,,,,,,,,,,down,0,7.6385,,0.414814843,-0.025000007,1,0,0,0.5663,0,50,50,94,1,oceaan,images/br_oceaan.png,images/cb_oceaan.png,0,,,,,,,,,,,,,,,,,,,,,,
,,,,,,00033,2023-09-19_06h38.30.494,vbt_B1_day2,2022.2.4,Win32,59.82650314,,,,,,,,,,,,,,,,,,,,,,,,,,,down,0,3.7223,,0.414814843,-0.025000007,1,0,0,0.5654,0,51,51,9,1,hier,images/br_hier.png,images/cb_hier.png,0,,,,,,,,,,,,,,,,,,,,,,
,,,,,,00033,2023-09-19_06h38.30.494,vbt_B1_day2,2022.2.4,Win32,59.82650314,,,,,,,,,,,,,,,,,,,,,,,,,,,down,0,39.6128,,0.414814843,-0.025000007,1,0,0,0.5002,0,52,52,129,1,verhaal,images/br_verhaal.png,images/cb_verhaal.png,0,,,,,,,,,,,,,,,,,,,,,,
,,,,,,00033,2023-09-19_06h38.30.494,vbt_B1_day2,2022.2.4,Win32,59.82650314,,,,,,,,,,,,,,,,,,,,,,,,,,,down,0,4.4906,,0.414814843,-0.025000007,1,0,0,0.5383,0,53,53,93,1,waarop,images/br_waarop.png,images/cb_waarop.png,0,,,,,,,,,,,,,,,,,,,,,,
,,,,,,00033,2023-09-19_06h38.30.494,vbt_B1_day2,2022.2.4,Win32,59.82650314,,,,,,,,,,,,,,,,,,,,,,,,,,,down,0,20.3199,,0.414814843,-0.025000007,1,0,0,0.4662,0,54,54,182,1,bijkomen,images/br_bijkomen.png,images/cb_bijkomen.png,0,,,,,,,,,,,,,,,,,,,,,,
,,,,,,00033,2023-09-19_06h38.30.494,vbt_B1_day2,2022.2.4,Win32,59.82650314,,,,,,,,,,,,,,,,,,,,,,,,,,,down,0,5.9498,,0.414814843,-0.025000007,1,0,0,0.8833,0,55,55,14,1,rijp,images/br_rijp.png,images/cb_rijp.png,0,,,,,,,,,,,,,,,,,,,,,,
,,,,,,00033,2023-09-19_06h38.30.494,vbt_B1_day2,2022.2.4,Win32,59.82650314,,,,,,,,,,,,,,,,,,,,,,,,,,,down,0,33.6034,,0.414814843,-0.025000007,1,0,0,0.4997,0,56,56,115,1,kleren,images/br_kleren.png,images/cb_kleren.png,0,,,,,,,,,,,,,,,,,,,,,,
,,,,,,00033,2023-09-19_06h38.30.494,vbt_B1_day2,2022.2.4,Win32,59.82650314,,,,,,,,,,,,,,,,,,,,,,,,,,,down,0,3.6331,,0.414814843,-0.025000007,1,0,0,0.512,0,57,57,45,1,piste,images/br_piste.png,images/cb_piste.png,0,,,,,,,,,,,,,,,,,,,,,,
,,,,,,00033,2023-09-19_06h38.30.494,vbt_B1_day2,2022.2.4,Win32,59.82650314,,,,,,,,,,,,,,,,,,,,,,,,,,,down,0,5.5694,,0.414814843,-0.025000007,1,0,0,0.4499,0,58,58,26,1,leuk,images/br_leuk.png,images/cb_leuk.png,0,,,,,,,,,,,,,,,,,,,,,,
,,,,,,00033,2023-09-19_06h38.30.494,vbt_B1_day2,2022.2.4,Win32,59.82650314,,,,,,,,,,,,,,,,,,,,,,,,,,,down,0,10.7999,,0.414814843,-0.025000007,1,0,0,0.6331,0,59,59,177,1,maaltijd,images/br_maaltijd.png,images/cb_maaltijd.png,1,maaltijd,,,,,,,,,,,,,,,,,,,,,
,,,,,,00033,2023-09-19_06h38.30.494,vbt_B1_day2,2022.2.4,Win32,59.82650314,,,,,,,,,,,,,,,,,,,,,,,,,,,down,0,18.8148,,0.414814843,-0.025000007,1,0,0,0.7169,0,60,60,171,1,aarzelen,images/br_aarzelen.png,images/cb_aarzelen.png,0,,,,,,,,,,,,,,,,,,,,,,
,,,,,,00033,2023-09-19_06h38.30.494,vbt_B1_day2,2022.2.4,Win32,59.82650314,,,,,,,,,,,,,,,,,,,,,,,,,,,down,0,4.3003,,0.414814843,-0.025000007,1,0,0,0.4827,0,61,61,79,1,nodig,images/br_nodig.png,images/cb_nodig.png,0,,,,,,,,,,,,,,,,,,,,,,
,,,,,,00033,2023-09-19_06h38.30.494,vbt_B1_day2,2022.2.4,Win32,59.82650314,,,,,,,,,,,,,,,,,,,,,,,,,,,down,0,5.7208,,0.414814843,-0.025000007,1,0,0,0.6493,0,62,62,141,1,knielen,images/br_knielen.png,images/cb_knielen.png,0,,,,,,,,,,,,,,,,,,,,,,
,,,,,,00033,2023-09-19_06h38.30.494,vbt_B1_day2,2022.2.4,Win32,59.82650314,,,,,,,,,,,,,,,,,,,,,,,,,,,down,0,8.5662,,0.414814843,-0.025000007,1,0,0,0.6053,0,63,63,105,1,wijlen,images/br_wijlen.png,images/cb_wijlen.png,0,,,,,,,,,,,,,,,,,,,,,,
,,,,,,00033,2023-09-19_06h38.30.494,vbt_B1_day2,2022.2.4,Win32,59.82650314,,,,,,,,,,,,,,,,,,,,,,,,,,,down,0,1.6153,,0.414814843,-0.025000007,1,0,0,0.6122,0,64,64,61,1,groen,images/br_groen.png,images/cb_groen.png,0,,,,,,,,,,,,,,,,,,,,,,
,,,,,,00033,2023-09-19_06h38.30.494,vbt_B1_day2,2022.2.4,Win32,59.82650314,,,,,,,,,,,,,,,,,,,,,,,,,,,down,0,6.418,,0.414814843,-0.025000007,1,0,0,1.0501,0,65,65,117,1,kennis,images/br_kennis.png,images/cb_kennis.png,0,,,,,,,,,,,,,,,,,,,,,,
,,,,,,00033,2023-09-19_06h38.30.494,vbt_B1_day2,2022.2.4,Win32,59.82650314,,,,,,,,,,,,,,,,,,,,,,,,,,,down,0,5.7501,,0.414814843,-0.025000007,1,0,0,2.3156,0,66,66,120,1,klimmen,images/br_klimmen.png,images/cb_klimmen.png,0,,,,,,,,,,,,,,,,,,,,,,
,,,,,,00033,2023-09-19_06h38.30.494,vbt_B1_day2,2022.2.4,Win32,59.82650314,,,,,,,,,,,,,,,,,,,,,,,,,,,down,0,8.0001,,0.414814843,-0.025000007,1,0,0,5.1654,0,67,67,190,1,goedkoop,images/br_goedkoop.png,images/cb_goedkoop.png,0,,,,,,,,,,,,,,,,,,,,,,
,,,,,,00033,2023-09-19_06h38.30.494,vbt_B1_day2,2022.2.4,Win32,59.82650314,,,,,,,,,,,,,,,,,,,,,,,,,,,down,0,3.3044,,0.414814843,-0.025000007,1,0,0,4.7161,0,68,68,169,1,oprotten,images/br_oprotten.png,images/cb_oprotten.png,0,,,,,,,,,,,,,,,,,,,,,,
,,,,,,00033,2023-09-19_06h38.30.494,vbt_B1_day2,2022.2.4,Win32,59.82650314,,,,,,,,,,,,,,,,,,,,,,,,,,,down,0,4.2715,,0.414814843,-0.025000007,1,0,0,0.8551,0,69,69,80,1,kanjer,images/br_kanjer.png,images/cb_kanjer.png,0,,,,,,,,,,,,,,,,,,,,,,
,,,,,,00033,2023-09-19_06h38.30.494,vbt_B1_day2,2022.2.4,Win32,59.82650314,,,,,,,,,,,,,,,,,,,,,,,,,,,down,0,4.1941,,0.414814843,-0.025000007,1,0,0,0.8712,0,70,70,140,1,blijven,images/br_blijven.png,images/cb_blijven.png,0,,,,,,,,,,,,,,,,,,,,,,
,,,,,,00033,2023-09-19_06h38.30.494,vbt_B1_day2,2022.2.4,Win32,59.82650314,,,,,,,,,,,,,,,,,,,,,,,,,,,down,0,6.4207,,0.414814843,-0.025000007,1,0,0,0.7549,0,71,71,83,1,mening,images/br_mening.png,images/cb_mening.png,0,,,,,,,,,,,,,,,,,,,,,,
,,,,,,00033,2023-09-19_06h38.30.494,vbt_B1_day2,2022.2.4,Win32,59.82650314,,,,,,,,,,,,,,,,,,,,,,,,,,,down,0,3.868,,0.414814843,-0.025000007,1,0,0,1.2499,0,72,72,56,1,traag,images/br_traag.png,images/cb_traag.png,1,traag,,,,,,,,,,,,,,,,,,,,,
,,,,,,00033,2023-09-19_06h38.30.494,vbt_B1_day2,2022.2.4,Win32,59.82650314,,,,,,,,,,,,,,,,,,,,,,,,,,,down,0,3.5327,,0.414814843,-0.025000007,1,0,0,0.8779,0,73,73,109,1,totaal,images/br_totaal.png,images/cb_totaal.png,0,,,,,,,,,,,,,,,,,,,,,,
,,,,,,00033,2023-09-19_06h38.30.494,vbt_B1_day2,2022.2.4,Win32,59.82650314,,,,,,,,,,,,,,,,,,,,,,,,,,,down,0,1.9724,,0.414814843,-0.025000007,1,0,0,0.6064,0,74,74,62,1,knaap,images/br_knaap.png,images/cb_knaap.png,0,,,,,,,,,,,,,,,,,,,,,,
,,,,,,00033,2023-09-19_06h38.30.494,vbt_B1_day2,2022.2.4,Win32,59.82650314,,,,,,,,,,,,,,,,,,,,,,,,,,,down,0,7.8837,,0.414814843,-0.025000007,1,0,0,9.2374,0,75,75,27,1,dans,images/br_dans.png,images/cb_dans.png,0,,,,,,,,,,,,,,,,,,,,,,
,,,,,,00033,2023-09-19_06h38.30.494,vbt_B1_day2,2022.2.4,Win32,59.82650314,,,,,,,,,,,,,,,,,,,,,,,,,,,down,0,4.7293,,0.414814843,-0.025000007,1,0,0,0.7333,0,76,76,160,1,daarheen,images/br_daarheen.png,images/cb_daarheen.png,0,,,,,,,,,,,,,,,,,,,,,,
,,,,,,00033,2023-09-19_06h38.30.494,vbt_B1_day2,2022.2.4,Win32,59.82650314,,,,,,,,,,,,,,,,,,,,,,,,,,,down,0,6.8053,,0.414814843,-0.025000007,1,0,0,4.9476,0,77,77,127,1,doodmoe,images/br_doodmoe.png,images/cb_doodmoe.png,0,,,,,,,,,,,,,,,,,,,,,,
,,,,,,00033,2023-09-19_06h38.30.494,vbt_B1_day2,2022.2.4,Win32,59.82650314,,,,,,,,,,,,,,,,,,,,,,,,,,,down,0,5.9877,,0.414814843,-0.025000007,1,0,0,0.8996,0,78,78,189,1,aanraden,images/br_aanraden.png,images/cb_aanraden.png,0,,,,,,,,,,,,,,,,,,,,,,
,,,,,,00033,2023-09-19_06h38.30.494,vbt_B1_day2,2022.2.4,Win32,59.82650314,,,,,,,,,,,,,,,,,,,,,,,,,,,down,0,1.5228,,0.414814843,-0.025000007,1,0,0,0.6831,0,79,79,29,1,baas,images/br_baas.png,images/cb_baas.png,0,,,,,,,,,,,,,,,,,,,,,,
,,,,,,00033,2023-09-19_06h38.30.494,vbt_B1_day2,2022.2.4,Win32,59.82650314,,,,,,,,,,,,,,,,,,,,,,,,,,,down,0,3.5009,,0.414814843,-0.025000007,1,0,0,0.8332,0,80,80,37,1,mijn,images/br_mijn.png,images/cb_mijn.png,0,,,,,,,,,,,,,,,,,,,,,,
,,,,,,00033,2023-09-19_06h38.30.494,vbt_B1_day2,2022.2.4,Win32,59.82650314,,,,,,,,,,,,,,,,,,,,,,,,,,,down,0,7.0375,,0.414814843,-0.025000007,1,0,0,0.6828,0,81,81,148,1,smullen,images/br_smullen.png,images/cb_smullen.png,0,,,,,,,,,,,,,,,,,,,,,,
,,,,,,00033,2023-09-19_06h38.30.494,vbt_B1_day2,2022.2.4,Win32,59.82650314,,,,,,,,,,,,,,,,,,,,,,,,,,,down,0,8.3215,,0.414814843,-0.025000007,1,0,0,0.5492,0,82,82,51,1,samen,images/br_samen.png,images/cb_samen.png,0,,,,,,,,,,,,,,,,,,,,,,
,,,,,,00033,2023-09-19_06h38.30.494,vbt_B1_day2,2022.2.4,Win32,59.82650314,,,,,,,,,,,,,,,,,,,,,,,,,,,down,0,2.1599,,0.414814843,-0.025000007,1,0,0,0.5497,0,83,83,41,1,maken,images/br_maken.png,images/cb_maken.png,0,,,,,,,,,,,,,,,,,,,,,,
,,,,,,00033,2023-09-19_06h38.30.494,vbt_B1_day2,2022.2.4,Win32,59.82650314,,,,,,,,,,,,,,,,,,,,,,,,,,,down,0,4.6338,,0.414814843,-0.025000007,1,0,0,0.7161,0,84,84,99,1,koffie,images/br_koffie.png,images/cb_koffie.png,1,koffie,,,,,,,,,,,,,,,,,,,,,
,,,,,,00033,2023-09-19_06h38.30.494,vbt_B1_day2,2022.2.4,Win32,59.82650314,,,,,,,,,,,,,,,,,,,,,,,,,,,down,0,5.8075,,0.414814843,-0.025000007,1,0,0,0.9884,0,85,85,192,1,schaamte,images/br_schaamte.png,images/cb_schaamte.png,0,,,,,,,,,,,,,,,,,,,,,,
,,,,,,00033,2023-09-19_06h38.30.494,vbt_B1_day2,2022.2.4,Win32,59.82650314,,,,,,,,,,,,,,,,,,,,,,,,,,,down,0,7.6132,,0.414814843,-0.025000007,1,0,0,0.7018,0,86,86,155,1,gerucht,images/br_gerucht.png,images/cb_gerucht.png,0,,,,,,,,,,,,,,,,,,,,,,
,,,,,,00033,2023-09-19_06h38.30.494,vbt_B1_day2,2022.2.4,Win32,59.82650314,,,,,,,,,,,,,,,,,,,,,,,,,,,down,0,1.8509,,0.414814843,-0.025000007,1,0,0,0.5832,0,87,87,55,1,praat,images/br_praat.png,images/cb_praat.png,0,,,,,,,,,,,,,,,,,,,,,,
,,,,,,00033,2023-09-19_06h38.30.494,vbt_B1_day2,2022.2.4,Win32,59.82650314,,,,,,,,,,,,,,,,,,,,,,,,,,,down,0,10.8159,,0.414814843,-0.025000007,1,0,0,5.8876,0,88,88,90,1,geluid,images/br_geluid.png,images/cb_geluid.png,0,,,,,,,,,,,,,,,,,,,,,,
,,,,,,00033,2023-09-19_06h38.30.494,vbt_B1_day2,2022.2.4,Win32,59.82650314,,,,,,,,,,,,,,,,,,,,,,,,,,,down,0,12.149,,0.414814843,-0.025000007,1,0,0,2.4168,0,89,89,98,1,kreeft,images/br_kreeft.png,images/cb_kreeft.png,1,kreeft,,,,,,,,,,,,,,,,,,,,,
,,,,,,00033,2023-09-19_06h38.30.494,vbt_B1_day2,2022.2.4,Win32,59.82650314,,,,,,,,,,,,,,,,,,,,,,,,,,,down,0,2.3508,,0.414814843,-0.025000007,1,0,0,1.328,0,90,90,18,1,blik,images/br_blik.png,images/cb_blik.png,1,blik,,,,,,,,,,,,,,,,,,,,,
,,,,,,00033,2023-09-19_06h38.30.494,vbt_B1_day2,2022.2.4,Win32,59.82650314,,,,,,,,,,,,,,,,,,,,,,,,,,,down,0,5.1489,,0.414814843,-0.025000007,1,0,0,0.7835,0,91,91,159,1,sufferd,images/br_sufferd.png,images/cb_sufferd.png,0,,,,,,,,,,,,,,,,,,,,,,
,,,,,,00033,2023-09-19_06h38.30.494,vbt_B1_day2,2022.2.4,Win32,59.82650314,,,,,,,,,,,,,,,,,,,,,,,,,,,down,0,4.9337,,0.414814843,-0.025000007,1,0,0,0.5658,0,92,92,110,1,zuster,images/br_zuster.png,images/cb_zuster.png,0,,,,,,,,,,,,,,,,,,,,,,
,,,,,,00033,2023-09-19_06h38.30.494,vbt_B1_day2,2022.2.4,Win32,59.82650314,,,,,,,,,,,,,,,,,,,,,,,,,,,down,0,5.6063,,0.414814843,-0.025000007,1,0,0,0.4495,0,93,93,188,1,strekken,images/br_strekken.png,images/cb_strekken.png,0,,,,,,,,,,,,,,,,,,,,,,
,,,,,,00033,2023-09-19_06h38.30.494,vbt_B1_day2,2022.2.4,Win32,59.82650314,,,,,,,,,,,,,,,,,,,,,,,,,,,down,0,1.9409,,0.414814843,-0.025000007,1,0,0,0.6167,0,94,94,4,1,moes,images/br_moes.png,images/cb_moes.png,0,,,,,,,,,,,,,,,,,,,,,,
,,,,,,00033,2023-09-19_06h38.30.494,vbt_B1_day2,2022.2.4,Win32,59.82650314,,,,,,,,,,,,,,,,,,,,,,,,,,,down,0,6.1497,,0.414814843,-0.025000007,1,0,0,0.6831,0,95,95,38,1,baai,images/br_baai.png,images/cb_baai.png,0,,,,,,,,,,,,,,,,,,,,,,
,,,,,,00033,2023-09-19_06h38.30.494,vbt_B1_day2,2022.2.4,Win32,59.82650314,,,,,,,,,,,,,,,,,,,,,,,,,,,down,0,4.2826,,0.414814843,-0.025000007,1,0,0,0.7334,0,96,96,16,1,ziek,images/br_ziek.png,images/cb_ziek.png,1,ziek,,,,,,,,,,,,,,,,,,,,,
,,,,,,00033,2023-09-19_06h38.30.494,vbt_B1_day2,2022.2.4,Win32,59.82650314,,,,,,,,,,,,,,,,,,,,,,,,,,,down,0,7.8021,,0.414814843,-0.025000007,1,0,0,0.5522,0,97,97,89,1,slapen,images/br_slapen.png,images/cb_slapen.png,0,,,,,,,,,,,,,,,,,,,,,,
,,,,,,00033,2023-09-19_06h38.30.494,vbt_B1_day2,2022.2.4,Win32,59.82650314,,,,,,,,,,,,,,,,,,,,,,,,,,,down,0,4.6902,,0.414814843,-0.025000007,1,0,0,0.5885,0,98,98,77,1,woede,images/br_woede.png,images/cb_woede.png,0,,,,,,,,,,,,,,,,,,,,,,
,,,,,,00033,2023-09-19_06h38.30.494,vbt_B1_day2,2022.2.4,Win32,59.82650314,,,,,,,,,,,,,,,,,,,,,,,,,,,down,0,2.3622,,0.414814843,-0.025000007,1,0,0,0.6279,0,99,99,19,1,geit,images/br_geit.png,images/cb_geit.png,1,geit,,,,,,,,,,,,,,,,,,,,,
,,,,,,00033,2023-09-19_06h38.30.494,vbt_B1_day2,2022.2.4,Win32,59.82650314,,,,,,,,,,,,,,,,,,,,,,,,,,,down,0,4.0174,,0.414814843,-0.025000007,1,0,0,0.9994,0,100,100,59,1,kring,images/br_kring.png,images/cb_kring.png,1,kring,,,,,,,,,,,,,,,,,,,,,
,,,,,,00033,2023-09-19_06h38.30.494,vbt_B1_day2,2022.2.4,Win32,59.82650314,,,,,,,,,,,,,,,,,,,,,,,,,,,down,0,13.1395,,0.414814843,-0.025000007,1,0,0,0.5658,0,101,101,193,1,weeshuis,images/br_weeshuis.png,images/cb_weeshuis.png,0,,,,,,,,,,,,,,,,,,,,,,
,,,,,,00033,2023-09-19_06h38.30.494,vbt_B1_day2,2022.2.4,Win32,59.82650314,,,,,,,,,,,,,,,,,,,,,,,,,,,down,0,22.8308,,0.414814843,-0.025000007,1,0,0,0.5825,0,102,102,196,1,nakijken,images/br_nakijken.png,images/cb_nakijken.png,0,,,,,,,,,,,,,,,,,,,,,,
,,,,,,00033,2023-09-19_06h38.30.494,vbt_B1_day2,2022.2.4,Win32,59.82650314,,,,,,,,,,,,,,,,,,,,,,,,,,,down,0,8.6181,,0.414814843,-0.025000007,1,0,0,0.5484,0,103,103,147,1,komisch,images/br_komisch.png,images/cb_komisch.png,0,,,,,,,,,,,,,,,,,,,,,,
,,,,,,00033,2023-09-19_06h38.30.494,vbt_B1_day2,2022.2.4,Win32,59.82650314,,,,,,,,,,,,,,,,,,,,,,,,,,,down,0,15.068,,0.414814843,-0.025000007,1,0,0,3.7168,0,104,104,133,1,seizoen,images/br_seizoen.png,images/cb_seizoen.png,0,,,,,,,,,,,,,,,,,,,,,,
,,,,,,00033,2023-09-19_06h38.30.494,vbt_B1_day2,2022.2.4,Win32,59.82650314,,,,,,,,,,,,,,,,,,,,,,,,,,,down,0,5.3338,,0.414814843,-0.025000007,1,0,0,0.6166,0,105,105,139,1,stiekem,images/br_stiekem.png,images/cb_stiekem.png,1,stiekem,,,,,,,,,,,,,,,,,,,,,
,,,,,,00033,2023-09-19_06h38.30.494,vbt_B1_day2,2022.2.4,Win32,59.82650314,,,,,,,,,,,,,,,,,,,,,,,,,,,down,0,8.7334,,0.414814843,-0.025000007,1,0,0,0.5717,0,106,106,180,1,openbaar,images/br_openbaar.png,images/cb_openbaar.png,0,,,,,,,,,,,,,,,,,,,,,,
,,,,,,00033,2023-09-19_06h38.30.494,vbt_B1_day2,2022.2.4,Win32,59.82650314,,,,,,,,,,,,,,,,,,,,,,,,,,,down,0,3.4243,,0.414814843,-0.025000007,1,0,0,0.5495,0,107,107,116,1,besmet,images/br_besmet.png,images/cb_besmet.png,0,,,,,,,,,,,,,,,,,,,,,,
,,,,,,00033,2023-09-19_06h38.30.494,vbt_B1_day2,2022.2.4,Win32,59.82650314,,,,,,,,,,,,,,,,,,,,,,,,,,,down,0,7.0154,,0.414814843,-0.025000007,1,0,0,0.4668,0,108,108,92,1,geheim,images/br_geheim.png,images/cb_geheim.png,0,,,,,,,,,,,,,,,,,,,,,,
,,,,,,00033,2023-09-19_06h38.30.494,vbt_B1_day2,2022.2.4,Win32,59.82650314,,,,,,,,,,,,,,,,,,,,,,,,,,,down,0,2.2824,,0.414814843,-0.025000007,1,0,0,0.495,0,109,109,40,1,schep,images/br_schep.png,images/cb_schep.png,0,,,,,,,,,,,,,,,,,,,,,,
,,,,,,00033,2023-09-19_06h38.30.494,vbt_B1_day2,2022.2.4,Win32,59.82650314,,,,,,,,,,,,,,,,,,,,,,,,,,,down,0,4.6636,,0.414814843,-0.025000007,1,0,0,0.5307,0,110,110,8,1,knie,images/br_knie.png,images/cb_knie.png,0,,,,,,,,,,,,,,,,,,,,,,
,,,,,,00033,2023-09-19_06h38.30.494,vbt_B1_day2,2022.2.4,Win32,59.82650314,,,,,,,,,,,,,,,,,,,,,,,,,,,down,0,1.2858,,0.414814843,-0.025000007,1,0,0,0.5051,0,111,111,35,1,lust,images/br_lust.png,images/cb_lust.png,0,,,,,,,,,,,,,,,,,,,,,,
,,,,,,00033,2023-09-19_06h38.30.494,vbt_B1_day2,2022.2.4,Win32,59.82650314,,,,,,,,,,,,,,,,,,,,,,,,,,,down,0,11.6819,,0.414814843,-0.025000007,1,0,0,0.6936,0,112,112,85,1,heilig,images/br_heilig.png,images/cb_heilig.png,0,,,,,,,,,,,,,,,,,,,,,,
,,,,,,00033,2023-09-19_06h38.30.494,vbt_B1_day2,2022.2.4,Win32,59.82650314,,,,,,,,,,,,,,,,,,,,,,,,,,,down,0,5.3662,,0.414814843,-0.025000007,1,0,0,4.4993,0,113,113,149,1,redding,images/br_redding.png,images/cb_redding.png,0,,,,,,,,,,,,,,,,,,,,,,
,,,,,,00033,2023-09-19_06h38.30.494,vbt_B1_day2,2022.2.4,Win32,59.82650314,,,,,,,,,,,,,,,,,,,,,,,,,,,down,0,23.9975,,0.414814843,-0.025000007,1,0,0,1.5165,0,114,114,157,1,uitlaat,images/br_uitlaat.png,images/cb_uitlaat.png,0,,,,,,,,,,,,,,,,,,,,,,
,,,,,,00033,2023-09-19_06h38.30.494,vbt_B1_day2,2022.2.4,Win32,59.82650314,,,,,,,,,,,,,,,,,,,,,,,,,,,down,0,2.4341,,0.414814843,-0.025000007,1,0,0,3.3161,0,115,115,49,1,laken,images/br_laken.png,images/cb_laken.png,0,,,,,,,,,,,,,,,,,,,,,,
,,,,,,00033,2023-09-19_06h38.30.494,vbt_B1_day2,2022.2.4,Win32,59.82650314,,,,,,,,,,,,,,,,,,,,,,,,,,,down,0,4.3404,,0.414814843,-0.025000007,1,0,0,0.633,0,116,116,113,1,koppen,images/br_koppen.png,images/cb_koppen.png,0,,,,,,,,,,,,,,,,,,,,,,
,,,,,,00033,2023-09-19_06h38.30.494,vbt_B1_day2,2022.2.4,Win32,59.82650314,,,,,,,,,,,,,,,,,,,,,,,,,,,down,0,8.3531,,0.414814843,-0.025000007,1,0,0,2.6332,0,117,117,174,1,stemming,images/br_stemming.png,images/cb_stemming.png,0,,,,,,,,,,,,,,,,,,,,,,
,,,,,,00033,2023-09-19_06h38.30.494,vbt_B1_day2,2022.2.4,Win32,59.82650314,,,,,,,,,,,,,,,,,,,,,,,,,,,down,0,4.3933,,0.414814843,-0.025000007,1,0,0,1.5004,0,118,118,46,1,jagen,images/br_jagen.png,images/cb_jagen.png,0,,,,,,,,,,,,,,,,,,,,,,
,,,,,,00033,2023-09-19_06h38.30.494,vbt_B1_day2,2022.2.4,Win32,59.82650314,,,,,,,,,,,,,,,,,,,,,,,,,,,down,0,5.4275,,0.414814843,-0.025000007,1,0,0,0.7334,0,119,119,146,1,opkomen,images/br_opkomen.png,images/cb_opkomen.png,0,,,,,,,,,,,,,,,,,,,,,,
,,,,,,00033,2023-09-19_06h38.30.494,vbt_B1_day2,2022.2.4,Win32,59.82650314,,,,,,,,,,,,,,,,,,,,,,,,,,,down,0,5.0375,,0.414814843,-0.025000007,1,0,0,0.5997,0,120,120,81,1,dubbel,images/br_dubbel.png,images/cb_dubbel.png,0,,,,,,,,,,,,,,,,,,,,,,
,,,,,,00033,2023-09-19_06h38.30.494,vbt_B1_day2,2022.2.4,Win32,59.82650314,,,,,,,,,,,,,,,,,,,,,,,,,,,down,0,7.2345,,0.414814843,-0.025000007,1,0,0,0.5499,0,121,121,78,1,leren,images/br_leren.png,images/cb_leren.png,0,,,,,,,,,,,,,,,,,,,,,,
,,,,,,00033,2023-09-19_06h38.30.494,vbt_B1_day2,2022.2.4,Win32,59.82650314,,,,,,,,,,,,,,,,,,,,,,,,,,,down,0,5.2056,,0.414814843,-0.025000007,1,0,0,3.3994,0,122,122,60,1,jasje,images/br_jasje.png,images/cb_jasje.png,0,,,,,,,,,,,,,,,,,,,,,,
,,,,,,00033,2023-09-19_06h38.30.494,vbt_B1_day2,2022.2.4,Win32,59.82650314,,,,,,,,,,,,,,,,,,,,,,,,,,,down,0,11.3714,,0.414814843,-0.025000007,1,0,0,0.9164,0,123,123,178,1,huisdier,images/br_huisdier.png,images/cb_huisdier.png,1,huisdier,,,,,,,,,,,,,,,,,,,,,
,,,,,,00033,2023-09-19_06h38.30.494,vbt_B1_day2,2022.2.4,Win32,59.82650314,,,,,,,,,,,,,,,,,,,,,,,,,,,down,0,9.2148,,0.414814843,-0.025000007,1,0,0,0.6162,0,124,124,136,1,waarbij,images/br_waarbij.png,images/cb_waarbij.png,1,waarbij,,,,,,,,,,,,,,,,,,,,,
,,,,,,00033,2023-09-19_06h38.30.494,vbt_B1_day2,2022.2.4,Win32,59.82650314,,,,,,,,,,,,,,,,,,,,,,,,,,,down,0,9.6687,,0.414814843,-0.025000007,1,0,0,0.6497,0,125,125,91,1,gezond,images/br_gezond.png,images/cb_gezond.png,0,,,,,,,,,,,,,,,,,,,,,,
,,,,,,00033,2023-09-19_06h38.30.494,vbt_B1_day2,2022.2.4,Win32,59.82650314,,,,,,,,,,,,,,,,,,,,,,,,,,,down,0,2.7381,,0.414814843,-0.025000007,1,0,0,0.6664,0,126,126,72,1,strak,images/br_strak.png,images/cb_strak.png,0,,,,,,,,,,,,,,,,,,,,,,
,,,,,,00033,2023-09-19_06h38.30.494,vbt_B1_day2,2022.2.4,Win32,59.82650314,,,,,,,,,,,,,,,,,,,,,,,,,,,down,0,19.7669,,0.414814843,-0.025000007,1,0,0,0.6666,0,127,127,158,1,innemen,images/br_innemen.png,images/cb_innemen.png,0,,,,,,,,,,,,,,,,,,,,,,
,,,,,,00033,2023-09-19_06h38.30.494,vbt_B1_day2,2022.2.4,Win32,59.82650314,,,,,,,,,,,,,,,,,,,,,,,,,,,down,0,1.7152,,0.414814843,-0.025000007,1,0,0,0.5333,0,128,128,50,1,stoom,images/br_stoom.png,images/cb_stoom.png,0,,,,,,,,,,,,,,,,,,,,,,
,,,,,,00033,2023-09-19_06h38.30.494,vbt_B1_day2,2022.2.4,Win32,59.82650314,,,,,,,,,,,,,,,,,,,,,,,,,,,down,0,5.1379,,0.414814843,-0.025000007,1,0,0,0.5334,0,129,129,123,1,hiervan,images/br_hiervan.png,images/cb_hiervan.png,0,,,,,,,,,,,,,,,,,,,,,,
,,,,,,00033,2023-09-19_06h38.30.494,vbt_B1_day2,2022.2.4,Win32,59.82650314,,,,,,,,,,,,,,,,,,,,,,,,,,,down,0,5.6933,,0.414814843,-0.025000007,1,0,0,0.8501,0,130,130,191,1,opheffen,images/br_opheffen.png,images/cb_opheffen.png,0,,,,,,,,,,,,,,,,,,,,,,
,,,,,,00033,2023-09-19_06h38.30.494,vbt_B1_day2,2022.2.4,Win32,59.82650314,,,,,,,,,,,,,,,,,,,,,,,,,,,down,0,6.9001,,0.414814843,-0.025000007,1,0,0,0.8329,0,131,131,166,1,strikken,images/br_strikken.png,images/cb_strikken.png,0,,,,,,,,,,,,,,,,,,,,,,
,,,,,,00033,2023-09-19_06h38.30.494,vbt_B1_day2,2022.2.4,Win32,59.82650314,,,,,,,,,,,,,,,,,,,,,,,,,,,down,0,4.2888,,0.414814843,-0.025000007,1,0,0,0.6665,0,132,132,152,1,afnemen,images/br_afnemen.png,images/cb_afnemen.png,0,,,,,,,,,,,,,,,,,,,,,,
,,,,,,00033,2023-09-19_06h38.30.494,vbt_B1_day2,2022.2.4,Win32,59.82650314,,,,,,,,,,,,,,,,,,,,,,,,,,,down,0,5.1055,,0.414814843,-0.025000007,1,0,0,0.6665,0,133,133,163,1,schuilen,images/br_schuilen.png,images/cb_schuilen.png,0,,,,,,,,,,,,,,,,,,,,,,
,,,,,,00033,2023-09-19_06h38.30.494,vbt_B1_day2,2022.2.4,Win32,59.82650314,,,,,,,,,,,,,,,,,,,,,,,,,,,down,0,7.9769,,0.414814843,-0.025000007,1,0,0,0.6335,0,134,134,134,1,geliefd,images/br_geliefd.png,images/cb_geliefd.png,0,,,,,,,,,,,,,,,,,,,,,,
,,,,,,00033,2023-09-19_06h38.30.494,vbt_B1_day2,2022.2.4,Win32,59.82650314,,,,,,,,,,,,,,,,,,,,,,,,,,,down,0,6.4253,,0.414814843,-0.025000007,1,0,0,0.6672,0,135,135,106,1,zingen,images/br_zingen.png,images/cb_zingen.png,0,,,,,,,,,,,,,,,,,,,,,,
,,,,,,00033,2023-09-19_06h38.30.494,vbt_B1_day2,2022.2.4,Win32,59.82650314,,,,,,,,,,,,,,,,,,,,,,,,,,,down,0,8.2875,,0.414814843,-0.025000007,1,0,0,1.8998,0,136,136,179,1,woestijn,images/br_woestijn.png,images/cb_woestijn.png,1,woestijn,,,,,,,,,,,,,,,,,,,,,
,,,,,,00033,2023-09-19_06h38.30.494,vbt_B1_day2,2022.2.4,Win32,59.82650314,,,,,,,,,,,,,,,,,,,,,,,,,,,down,0,9.2687,,0.414814843,-0.025000007,1,0,0,0.7165,0,137,137,164,1,anarchie,images/br_anarchie.png,images/cb_anarchie.png,0,,,,,,,,,,,,,,,,,,,,,,
,,,,,,00033,2023-09-19_06h38.30.494,vbt_B1_day2,2022.2.4,Win32,59.82650314,,,,,,,,,,,,,,,,,,,,,,,,,,,down,0,7.8539,,0.414814843,-0.025000007,1,0,0,0.5168,0,138,138,104,1,zweven,images/br_zweven.png,images/cb_zweven.png,0,,,,,,,,,,,,,,,,,,,,,,
,,,,,,00033,2023-09-19_06h38.30.494,vbt_B1_day2,2022.2.4,Win32,59.82650314,,,,,,,,,,,,,,,,,,,,,,,,,,,down,0,6.4436,,0.414814843,-0.025000007,1,0,0,5.0163,0,139,139,11,1,mode,images/br_mode.png,images/cb_mode.png,0,,,,,,,,,,,,,,,,,,,,,,
,,,,,,00033,2023-09-19_06h38.30.494,vbt_B1_day2,2022.2.4,Win32,59.82650314,,,,,,,,,,,,,,,,,,,,,,,,,,,down,0,1.5882,,0.414814843,-0.025000007,1,0,0,1.983,0,140,140,39,1,laag,images/br_laag.png,images/cb_laag.png,0,,,,,,,,,,,,,,,,,,,,,,
,,,,,,00033,2023-09-19_06h38.30.494,vbt_B1_day2,2022.2.4,Win32,59.82650314,,,,,,,,,,,,,,,,,,,,,,,,,,,down,0,4.9754,,0.414814843,-0.025000007,1,0,0,0.7663,0,141,141,118,1,vinger,images/br_vinger.png,images/cb_vinger.png,0,,,,,,,,,,,,,,,,,,,,,,
,,,,,,00033,2023-09-19_06h38.30.494,vbt_B1_day2,2022.2.4,Win32,59.82650314,,,,,,,,,,,,,,,,,,,,,,,,,,,down,0,4.4214,,0.414814843,-0.025000007,1,0,0,2.3996,0,142,142,170,1,schatten,images/br_schatten.png,images/cb_schatten.png,0,,,,,,,,,,,,,,,,,,,,,,
,,,,,,00033,2023-09-19_06h38.30.494,vbt_B1_day2,2022.2.4,Win32,59.82650314,,,,,,,,,,,,,,,,,,,,,,,,,,,down,0,4.1342,,0.414814843,-0.025000007,1,0,0,3.8997,0,143,143,24,1,jurk,images/br_jurk.png,images/cb_jurk.png,0,,,,,,,,,,,,,,,,,,,,,,
,,,,,,00033,2023-09-19_06h38.30.494,vbt_B1_day2,2022.2.4,Win32,59.82650314,,,,,,,,,,,,,,,,,,,,,,,,,,,down,0,5.6319,,0.414814843,-0.025000007,1,0,0,0.5331,0,144,144,162,1,uitdelen,images/br_uitdelen.png,images/cb_uitdelen.png,0,,,,,,,,,,,,,,,,,,,,,,
,,,,,,00033,2023-09-19_06h38.30.494,vbt_B1_day2,2022.2.4,Win32,59.82650314,,,,,,,,,,,,,,,,,,,,,,,,,,,down,0,5.517,,0.414814843,-0.025000007,1,0,0,1.0499,0,145,145,95,1,vreten,images/br_vreten.png,images/cb_vreten.png,0,,,,,,,,,,,,,,,,,,,,,,
,,,,,,00033,2023-09-19_06h38.30.494,vbt_B1_day2,2022.2.4,Win32,59.82650314,,,,,,,,,,,,,,,,,,,,,,,,,,,down,0,5.5259,,0.414814843,-0.025000007,1,0,0,2.2163,0,146,146,36,1,vuur,images/br_vuur.png,images/cb_vuur.png,0,,,,,,,,,,,,,,,,,,,,,,
,,,,,,00033,2023-09-19_06h38.30.494,vbt_B1_day2,2022.2.4,Win32,59.82650314,,,,,,,,,,,,,,,,,,,,,,,,,,,down,0,3.7011,,0.414814843,-0.025000007,1,0,0,0.5164,0,147,147,107,1,maling,images/br_maling.png,images/cb_maling.png,0,,,,,,,,,,,,,,,,,,,,,,
,,,,,,00033,2023-09-19_06h38.30.494,vbt_B1_day2,2022.2.4,Win32,59.82650314,,,,,,,,,,,,,,,,,,,,,,,,,,,down,0,5.0997,,0.414814843,-0.025000007,1,0,0,0.9165,0,148,148,15,1,soda,images/br_soda.png,images/cb_soda.png,0,,,,,,,,,,,,,,,,,,,,,,
,,,,,,00033,2023-09-19_06h38.30.494,vbt_B1_day2,2022.2.4,Win32,59.82650314,,,,,,,,,,,,,,,,,,,,,,,,,,,down,0,0.8934,,0.414814843,-0.025000007,1,0,0,1.1163,0,149,149,28,1,stal,images/br_stal.png,images/cb_stal.png,0,,,,,,,,,,,,,,,,,,,,,,
,,,,,,00033,2023-09-19_06h38.30.494,vbt_B1_day2,2022.2.4,Win32,59.82650314,,,,,,,,,,,,,,,,,,,,,,,,,,,down,0,7.8704,,0.404629601,-0.050925926,1,0,0,4.2662,0,150,150,137,1,trekker,images/br_trekker.png,images/cb_trekker.png,1,trekker,,,,,,,,,,,,,,,,,,,,,
,,,,,,00033,2023-09-19_06h38.30.494,vbt_B1_day2,2022.2.4,Win32,59.82650314,,,,,,,,,,,,,,,,,,,,,,,,,,,down,0,4.1504,,0.404629601,-0.050925926,1,0,0,0.7334,0,151,151,126,1,kasteel,images/br_kasteel.png,images/cb_kasteel.png,0,,,,,,,,,,,,,,,,,,,,,,
,,,,,,00033,2023-09-19_06h38.30.494,vbt_B1_day2,2022.2.4,Win32,59.82650314,,,,,,,,,,,,,,,,,,,,,,,,,,,down,0,5.3773,,0.404629601,-0.050925926,1,0,0,0.5664,0,152,152,43,1,klauw,images/br_klauw.png,images/cb_klauw.png,0,,,,,,,,,,,,,,,,,,,,,,
,,,,,,00033,2023-09-19_06h38.30.494,vbt_B1_day2,2022.2.4,Win32,59.82650314,,,,,,,,,,,,,,,,,,,,,,,,,,,down,0,4.9334,,0.404629601,-0.050925926,1,0,0,5.7492,0,153,153,6,1,diep,images/br_diep.png,images/cb_diep.png,0,,,,,,,,,,,,,,,,,,,,,,
,,,,,,00033,2023-09-19_06h38.30.494,vbt_B1_day2,2022.2.4,Win32,59.82650314,,,,,,,,,,,,,,,,,,,,,,,,,,,down,0,8.6094,,0.404629601,-0.050925926,1,0,0,5.8659,0,154,154,187,1,opkijken,images/br_opkijken.png,images/cb_opkijken.png,0,,,,,,,,,,,,,,,,,,,,,,
,,,,,,00033,2023-09-19_06h38.30.494,vbt_B1_day2,2022.2.4,Win32,59.82650314,,,,,,,,,,,,,,,,,,,,,,,,,,,down,0,12.6135,,0.404629601,-0.053703697,1,0,0,1.6834,0,155,155,97,1,loyaal,images/br_loyaal.png,images/cb_loyaal.png,1,loyaal,,,,,,,,,,,,,,,,,,,,,
,,,,,,00033,2023-09-19_06h38.30.494,vbt_B1_day2,2022.2.4,Win32,59.82650314,,,,,,,,,,,,,,,,,,,,,,,,,,,down,0,12.269,,0.404629601,-0.053703697,1,0,0,0.5496,0,156,156,194,1,driemaal,images/br_driemaal.png,images/cb_driemaal.png,0,,,,,,,,,,,,,,,,,,,,,,
,,,,,,00033,2023-09-19_06h38.30.494,vbt_B1_day2,2022.2.4,Win32,59.82650314,,,,,,,,,,,,,,,,,,,,,,,,,,,down,0,4.803,,0.404629601,-0.053703697,1,0,0,1.3833,0,157,157,96,1,slagen,images/br_slagen.png,images/cb_slagen.png,1,slagen,,,,,,,,,,,,,,,,,,,,,
,,,,,,00033,2023-09-19_06h38.30.494,vbt_B1_day2,2022.2.4,Win32,59.82650314,,,,,,,,,,,,,,,,,,,,,,,,,,,down,0,5.1253,,0.404629601,-0.053703697,1,0,0,4.9657,0,158,158,32,1,palm,images/br_palm.png,images/cb_palm.png,0,,,,,,,,,,,,,,,,,,,,,,
,,,,,,00033,2023-09-19_06h38.30.494,vbt_B1_day2,2022.2.4,Win32,59.82650314,,,,,,,,,,,,,,,,,,,,,,,,,,,down,0,2.3677,,0.404629601,-0.053703697,1,0,0,1.5,0,159,159,3,1,mand,images/br_mand.png,images/cb_mand.png,0,,,,,,,,,,,,,,,,,,,,,,
,,,,,,00033,2023-09-19_06h38.30.494,vbt_B1_day2,2022.2.4,Win32,59.82650314,,,,,,,,,,,,,,,,,,,,,,,,,,,down,0,3.4507,,0.404629601,-0.053703697,1,0,0,6.0995,0,160,160,144,1,eetlust,images/br_eetlust.png,images/cb_eetlust.png,0,,,,,,,,,,,,,,,,,,,,,,
,,,,,,00033,2023-09-19_06h38.30.494,vbt_B1_day2,2022.2.4,Win32,59.82650314,,,,,,,,,,,,,,,,,,,,,,,,,,,down,0,8.9671,,0.404629601,-0.053703697,1,0,0,1.5497,0,161,161,156,1,rechten,images/br_rechten.png,images/cb_rechten.png,0,,,,,,,,,,,,,,,,,,,,,,
,,,,,,00033,2023-09-19_06h38.30.494,vbt_B1_day2,2022.2.4,Win32,59.82650314,,,,,,,,,,,,,,,,,,,,,,,,,,,down,0,1.4947,,0.404629601,-0.053703697,1,0,0,0.75,0,162,162,31,1,poes,images/br_poes.png,images/cb_poes.png,0,,,,,,,,,,,,,,,,,,,,,,
,,,,,,00033,2023-09-19_06h38.30.494,vbt_B1_day2,2022.2.4,Win32,59.82650314,,,,,,,,,,,,,,,,,,,,,,,,,,,down,0,4.2945,,0.404629601,-0.053703697,1,0,0,4.5328,0,163,163,145,1,invloed,images/br_invloed.png,images/cb_invloed.png,0,,,,,,,,,,,,,,,,,,,,,,
,,,,,,00033,2023-09-19_06h38.30.494,vbt_B1_day2,2022.2.4,Win32,59.82650314,,,,,,,,,,,,,,,,,,,,,,,,,,,down,0,3.2054,,0.404629601,-0.053703697,1,0,0,2.3996,0,164,164,23,1,zout,images/br_zout.png,images/cb_zout.png,0,,,,,,,,,,,,,,,,,,,,,,
,,,,,,00033,2023-09-19_06h38.30.494,vbt_B1_day2,2022.2.4,Win32,59.82650314,,,,,,,,,,,,,,,,,,,,,,,,,,,down,0,6.4381,,0.404629601,-0.053703697,1,0,0,2.3994,0,165,165,87,1,toeval,images/br_toeval.png,images/cb_toeval.png,0,,,,,,,,,,,,,,,,,,,,,,
,,,,,,00033,2023-09-19_06h38.30.494,vbt_B1_day2,2022.2.4,Win32,59.82650314,,,,,,,,,,,,,,,,,,,,,,,,,,,down,0,17.8989,,0.404629601,-0.053703697,1,0,0,0.5334,0,166,166,53,1,baron,images/br_baron.png,images/cb_baron.png,0,,,,,,,,,,,,,,,,,,,,,,
,,,,,,00033,2023-09-19_06h38.30.494,vbt_B1_day2,2022.2.4,Win32,59.82650314,,,,,,,,,,,,,,,,,,,,,,,,,,,down,0,9.3739,,0.404629601,-0.053703697,1,0,0,1.5331,0,167,167,161,1,attentie,images/br_attentie.png,images/cb_attentie.png,0,,,,,,,,,,,,,,,,,,,,,,
,,,,,,00033,2023-09-19_06h38.30.494,vbt_B1_day2,2022.2.4,Win32,59.82650314,,,,,,,,,,,,,,,,,,,,,,,,,,,down,0,1.1673,,0.404629601,-0.053703697,1,0,0,1.3163,0,168,168,5,1,blad,images/br_blad.png,images/cb_blad.png,0,,,,,,,,,,,,,,,,,,,,,,
,,,,,,00033,2023-09-19_06h38.30.494,vbt_B1_day2,2022.2.4,Win32,59.82650314,,,,,,,,,,,,,,,,,,,,,,,,,,,down,0,1.1544,,0.404629601,-0.053703697,1,0,0,1.1327,0,169,169,42,1,bleek,images/br_bleek.png,images/cb_bleek.png,0,,,,,,,,,,,,,,,,,,,,,,
,,,,,,00033,2023-09-19_06h38.30.494,vbt_B1_day2,2022.2.4,Win32,59.82650314,,,,,,,,,,,,,,,,,,,,,,,,,,,down,0,4.8503,,0.404629601,-0.053703697,1,0,0,0.8162,0,170,170,142,1,snuiven,images/br_snuiven.png,images/cb_snuiven.png,0,,,,,,,,,,,,,,,,,,,,,,
,,,,,,00033,2023-09-19_06h38.30.494,vbt_B1_day2,2022.2.4,Win32,59.82650314,,,,,,,,,,,,,,,,,,,,,,,,,,,down,0,1.7979,,0.404629601,-0.053703697,1,0,0,0.7999,0,171,171,33,1,vlek,images/br_vlek.png,images/cb_vlek.png,0,,,,,,,,,,,,,,,,,,,,,,
,,,,,,00033,2023-09-19_06h38.30.494,vbt_B1_day2,2022.2.4,Win32,59.82650314,,,,,,,,,,,,,,,,,,,,,,,,,,,down,0,5.8165,,0.404629601,-0.053703697,1,0,0,0.9834,0,172,172,165,1,feestdag,images/br_feestdag.png,images/cb_feestdag.png,0,,,,,,,,,,,,,,,,,,,,,,
,,,,,,00033,2023-09-19_06h38.30.494,vbt_B1_day2,2022.2.4,Win32,59.82650314,,,,,,,,,,,,,,,,,,,,,,,,,,,down,0,3.6828,,0.404629601,-0.053703697,1,0,0,1.3499,0,173,173,66,1,lever,images/br_lever.png,images/cb_lever.png,0,,,,,,,,,,,,,,,,,,,,,,
,,,,,,00033,2023-09-19_06h38.30.494,vbt_B1_day2,2022.2.4,Win32,59.82650314,,,,,,,,,,,,,,,,,,,,,,,,,,,down,0,10.605,,0.404629601,-0.053703697,1,0,0,8.4153,0,174,174,153,1,vervoer,images/br_vervoer.png,images/cb_vervoer.png,0,,,,,,,,,,,,,,,,,,,,,,
,,,,,,00033,2023-09-19_06h38.30.494,vbt_B1_day2,2022.2.4,Win32,59.82650314,,,,,,,,,,,,,,,,,,,,,,,,,,,down,0,3.8603,,0.404629601,-0.053703697,1,0,0,6.5496,0,175,175,52,1,wagon,images/br_wagon.png,images/cb_wagon.png,0,,,,,,,,,,,,,,,,,,,,,,
,,,,,,00033,2023-09-19_06h38.30.494,vbt_B1_day2,2022.2.4,Win32,59.82650314,,,,,,,,,,,,,,,,,,,,,,,,,,,down,0,4.7544,,0.404629601,-0.053703697,1,0,0,5.4659,0,176,176,67,1,zwart,images/br_zwart.png,images/cb_zwart.png,0,,,,,,,,,,,,,,,,,,,,,,
,,,,,,00033,2023-09-19_06h38.30.494,vbt_B1_day2,2022.2.4,Win32,59.82650314,,,,,,,,,,,,,,,,,,,,,,,,,,,down,0,7.0519,,0.404629601,-0.053703697,1,0,0,1.2165,0,177,177,20,1,site,images/br_site.png,images/cb_site.png,0,,,,,,,,,,,,,,,,,,,,,,
,,,,,,00033,2023-09-19_06h38.30.494,vbt_B1_day2,2022.2.4,Win32,59.82650314,,,,,,,,,,,,,,,,,,,,,,,,,,,down,0,4.0042,,0.404629601,-0.053703697,1,0,0,0.8332,0,178,178,12,1,kust,images/br_kust.png,images/cb_kust.png,0,,,,,,,,,,,,,,,,,,,,,,
,,,,,,00033,2023-09-19_06h38.30.494,vbt_B1_day2,2022.2.4,Win32,59.82650314,,,,,,,,,,,,,,,,,,,,,,,,,,,down,0,3.3872,,0.404629601,-0.053703697,1,0,0,1.3829,0,179,179,112,1,lukken,images/br_lukken.png,images/cb_lukken.png,0,,,,,,,,,,,,,,,,,,,,,,
,,,,,,00033,2023-09-19_06h38.30.494,vbt_B1_day2,2022.2.4,Win32,59.82650314,,,,,,,,,,,,,,,,,,,,,,,,,,,down,0,3.184,,0.404629601,-0.053703697,1,0,0,0.9334,0,180,180,132,1,grappen,images/br_grappen.png,images/cb_grappen.png,0,,,,,,,,,,,,,,,,,,,,,,
,,,,,,00033,2023-09-19_06h38.30.494,vbt_B1_day2,2022.2.4,Win32,59.82650314,,,,,,,,,,,,,,,,,,,,,,,,,,,down,0,6.224,,0.404629601,-0.053703697,1,0,0,0.8501,0,181,181,176,1,techniek,images/br_techniek.png,images/cb_techniek.png,1,techniek,,,,,,,,,,,,,,,,,,,,,
,,,,,,00033,2023-09-19_06h38.30.494,vbt_B1_day2,2022.2.4,Win32,59.82650314,,,,,,,,,,,,,,,,,,,,,,,,,,,down,0,8.4327,,0.404629601,-0.053703697,1,0,0,0.5831,0,182,182,167,1,eenhoorn,images/br_eenhoorn.png,images/cb_eenhoorn.png,0,,,,,,,,,,,,,,,,,,,,,,
,,,,,,00033,2023-09-19_06h38.30.494,vbt_B1_day2,2022.2.4,Win32,59.82650314,,,,,,,,,,,,,,,,,,,,,,,,,,,down,0,2.8538,,0.404629601,-0.053703697,1,0,0,0.55,0,183,183,114,1,vullen,images/br_vullen.png,images/cb_vullen.png,0,,,,,,,,,,,,,,,,,,,,,,
,,,,,,00033,2023-09-19_06h38.30.494,vbt_B1_day2,2022.2.4,Win32,59.82650314,,,,,,,,,,,,,,,,,,,,,,,,,,,down,0,1.9115,,0.404629601,-0.053703697,1,0,0,1.8163,0,184,184,22,1,stof,images/br_stof.png,images/cb_stof.png,0,,,,,,,,,,,,,,,,,,,,,,
,,,,,,00033,2023-09-19_06h38.30.494,vbt_B1_day2,2022.2.4,Win32,59.82650314,,,,,,,,,,,,,,,,,,,,,,,,,,,down,0,17.3549,,0.404629601,-0.053703697,1,0,0,2.3163,0,185,185,175,1,heengaan,images/br_heengaan.png,images/cb_heengaan.png,0,,,,,,,,,,,,,,,,,,,,,,
,,,,,,00033,2023-09-19_06h38.30.494,vbt_B1_day2,2022.2.4,Win32,59.82650314,,,,,,,,,,,,,,,,,,,,,,,,,,,down,0,7.311,,0.404629601,-0.053703697,1,0,0,6.7325,0,186,186,172,1,weigeren,images/br_weigeren.png,images/cb_weigeren.png,0,,,,,,,,,,,,,,,,,,,,,,
,,,,,,00033,2023-09-19_06h38.30.494,vbt_B1_day2,2022.2.4,Win32,59.82650314,,,,,,,,,,,,,,,,,,,,,,,,,,,down,0,8.9566,,0.404629601,-0.053703697,1,0,0,3.0995,0,187,187,130,1,keihard,images/br_keihard.png,images/cb_keihard.png,0,,,,,,,,,,,,,,,,,,,,,,
,,,,,,00033,2023-09-19_06h38.30.494,vbt_B1_day2,2022.2.4,Win32,59.82650314,,,,,,,,,,,,,,,,,,,,,,,,,,,down,0,10.3879,,0.404629601,-0.053703697,1,0,0,0.7331,0,188,188,181,1,toegeven,images/br_toegeven.png,images/cb_toegeven.png,0,,,,,,,,,,,,,,,,,,,,,,
,,,,,,00033,2023-09-19_06h38.30.494,vbt_B1_day2,2022.2.4,Win32,59.82650314,,,,,,,,,,,,,,,,,,,,,,,,,,,down,0,3.6779,,0.404629601,-0.053703697,1,0,0,0.6831,0,189,189,138,1,akkoord,images/br_akkoord.png,images/cb_akkoord.png,1,akkoord,,,,,,,,,,,,,,,,,,,,,
,,,,,,00033,2023-09-19_06h38.30.494,vbt_B1_day2,2022.2.4,Win32,59.82650314,,,,,,,,,,,,,,,,,,,,,,,,,,,down,0,7.0162,,0.404629601,-0.053703697,1,0,0,0.5829,0,190,190,63,1,flirt,images/br_flirt.png,images/cb_flirt.png,0,,,,,,,,,,,,,,,,,,,,,,
,,,,,,00033,2023-09-19_06h38.30.494,vbt_B1_day2,2022.2.4,Win32,59.82650314,,,,,,,,,,,,,,,,,,,,,,,,,,,down,0,2.0831,,0.404629601,-0.053703697,1,0,0,0.8668,0,191,191,102,1,legaal,images/br_legaal.png,images/cb_legaal.png,0,,,,,,,,,,,,,,,,,,,,,,
,,,,,,00033,2023-09-19_06h38.30.494,vbt_B1_day2,2022.2.4,Win32,59.82650314,,,,,,,,,,,,,,,,,,,,,,,,,,,down,0,9.0499,,0.404629601,-0.053703697,1,0,0,5.4329,0,192,192,154,1,aflopen,images/br_aflopen.png,images/cb_aflopen.png,0,,,,,,,,,,,,,,,,,,,,,,
,,,,,,00033,2023-09-19_06h38.30.494,vbt_B1_day2,2022.2.4,Win32,59.82650314,,,,,,,,,,,,,,,,,,,,,,,,,,,down,0,4.0243,,0.404629601,-0.053703697,1,0,0,0.7327,0,193,193,88,1,boeien,images/br_boeien.png,images/cb_boeien.png,0,,,,,,,,,,,,,,,,,,,,,,
,,,,,,00033,2023-09-19_06h38.30.494,vbt_B1_day2,2022.2.4,Win32,59.82650314,,,,,,,,,,,,,,,,,,,,,,,,,,,down,0,2.8213,,0.404629601,-0.053703697,1,0,0,0.6998,0,194,194,103,1,joggen,images/br_joggen.png,images/cb_joggen.png,0,,,,,,,,,,,,,,,,,,,,,,
,,,,,,00033,2023-09-19_06h38.30.494,vbt_B1_day2,2022.2.4,Win32,59.82650314,,,,,,,,,,,,,,,,,,,,,,,,,,,down,0,1.127,,0.404629601,-0.053703697,1,0,0,0.7168,0,195,195,73,1,volop,images/br_volop.png,images/cb_volop.png,0,,,,,,,,,,,,,,,,,,,,,,
,,,,,,00033,2023-09-19_06h38.30.494,vbt_B1_day2,2022.2.4,Win32,59.82650314,,,,,,,,,,,,,,,,,,,,,,,,,,,down,0,5.1569,,0.404629601,-0.053703697,1,0,0,1.9664,0,196,196,7,1,geld,images/br_geld.png,images/cb_geld.png,0,,,,,,,,,,,,,,,,,,,,,,
,,,,,,00033,2023-09-19_06h38.30.494,vbt_B1_day2,2022.2.4,Win32,59.82650314,,,,,,,,,,,,,,,,,,,,,,,,,,,down,0,2.0837,,0.404629601,-0.053703697,1,0,0,0.9835,0,197,197,21,1,mist,images/br_mist.png,images/cb_mist.png,0,,,,,,,,,,,,,,,,,,,,,,
,,,,,,00033,2023-09-19_06h38.30.494,vbt_B1_day2,2022.2.4,Win32,59.82650314,,,,,,,,,,,,,,,,,,,,,,,,,,,down,0,3.0078,,0.404629601,-0.053703697,1,0,0,0.5166,0,198,198,48,1,steel,images/br_steel.png,images/cb_steel.png,0,,,,,,,,,,,,,,,,,,,,,,
,,,,,,00033,2023-09-19_06h38.30.494,vbt_B1_day2,2022.2.4,Win32,59.82650314,,,,,,,,,,,,,,,,,,,,,,,,,,,down,0,9.9883,,0.404629601,-0.053703697,1,0,0,7.3159,0,199,199,70,1,ijdel,images/br_ijdel.png,images/cb_ijdel.png,0,,,,,,,,,,,,,,,,,,,,,,
,,,,,,00033,2023-09-19_06h38.30.494,vbt_B1_day2,2022.2.4,Win32,59.82650314,,,,,,,,,,,,,,,,,,,,,,,,,,,,,,,,,,,,,,,,,,,,,,,0.550925926,0.261111101,1,0,0,,,,,,,,,,,,,,,,
,,,,,,00033,2023-09-19_06h38.30.494,vbt_B1_day2,2022.2.4,Win32,59.82650314,,,,,,,,,,,,,,,,,,,,,,,,,,,,,,,,,,,,,,,,,,,,,,,,,,,,0.550925926,0.261111101,1,0,0,,,,,,,,,,,
,,,,,,00033,2023-09-19_06h38.30.494,vbt_B1_day2,2022.2.4,Win32,59.82650314,,,,,,,,,,,,,,,,,,,,,,,,,,,,,,,,,,,,,,,,,,welzijn,images/br_welzijn.png,images/cb_welzijn.png,,welzijn,,,,,,,,,,,0.550925926,0.261111101,1,0,0,welzijn,0,0,0,52,1
,,,,,,00033,2023-09-19_06h38.30.494,vbt_B1_day2,2022.2.4,Win32,59.82650314,,,,,,,,,,,,,,,,,,,,,,,,,,,,,,,,,,,,,,,,,,strikken,images/br_strikken.png,images/cb_strikken.png,,strikken,,,,,,,,,,,0.550925926,0.261111101,1,0,0,strikken,0,1,1,18,1
,,,,,,00033,2023-09-19_06h38.30.494,vbt_B1_day2,2022.2.4,Win32,59.82650314,,,,,,,,,,,,,,,,,,,,,,,,,,,,,,,,,,,,,,,,,,prekken,images/br_prekken.png,images/cb_prekken.png,,p.ekken,,,,,,,,,,,-0.030555513,-0.20185188,1,0,0,p.ekken,0,2,2,34,1
,,,,,,00033,2023-09-19_06h38.30.494,vbt_B1_day2,2022.2.4,Win32,59.82650314,,,,,,,,,,,,,,,,,,,,,,,,,,,,,,,,,,,,,,,,,,lurgen,images/br_lurgen.png,images/cb_lurgen.png,,luirg...,,,,,,,,,,,0.359259288,0.174999979,1,0,0,luirg...,0,3,3,29,1
,,,,,,00033,2023-09-19_06h38.30.494,vbt_B1_day2,2022.2.4,Win32,59.82650314,,,,,,,,,,,,,,,,,,,,,,,,,,,,,,,,,,,,,,,,,,kijlen,images/br_kijlen.png,images/cb_kijlen.png,,kijlen,,,,,,,,,,,0.359259288,0.174999979,1,0,0,kijlen,0,4,4,31,1
,,,,,,00033,2023-09-19_06h38.30.494,vbt_B1_day2,2022.2.4,Win32,59.82650314,,,,,,,,,,,,,,,,,,,,,,,,,,,,,,,,,,,,,,,,,,aanzien,images/br_aanzien.png,images/cb_aanzien.png,,aanzien,,,,,,,,,,,0.359259288,0.174999979,1,0,0,aanzien,0,5,5,13,1
,,,,,,00033,2023-09-19_06h38.30.494,vbt_B1_day2,2022.2.4,Win32,59.82650314,,,,,,,,,,,,,,,,,,,,,,,,,,,,,,,,,,,,,,,,,,sora,images/br_sora.png,images/cb_sora.png,,sora,,,,,,,,,,,0.359259288,0.174999979,1,0,0,sora,0,6,6,22,1
,,,,,,00033,2023-09-19_06h38.30.494,vbt_B1_day2,2022.2.4,Win32,59.82650314,,,,,,,,,,,,,,,,,,,,,,,,,,,,,,,,,,,,,,,,,,jong,images/br_jong.png,images/cb_jong.png,,jong,,,,,,,,,,,0.359259288,0.174999979,1,0,0,jong,0,7,7,43,1
,,,,,,00033,2023-09-19_06h38.30.494,vbt_B1_day2,2022.2.4,Win32,59.82650314,,,,,,,,,,,,,,,,,,,,,,,,,,,,,,,,,,,,,,,,,,bloeien,images/br_bloeien.png,images/cb_bloeien.png,,bloeien,,,,,,,,,,,0.359259288,0.174999979,1,0,0,bloeien,0,8,8,12,1
,,,,,,00033,2023-09-19_06h38.30.494,vbt_B1_day2,2022.2.4,Win32,59.82650314,,,,,,,,,,,,,,,,,,,,,,,,,,,,,,,,,,,,,,,,,,remel,images/br_remel.png,images/cb_remel.png,,remel,,,,,,,,,,,0.359259288,0.174999979,1,0,0,remel,0,9,9,25,1
,,,,,,00033,2023-09-19_06h38.30.494,vbt_B1_day2,2022.2.4,Win32,59.82650314,,,,,,,,,,,,,,,,,,,,,,,,,,,,,,,,,,,,,,,,,,kabel,images/br_kabel.png,images/cb_kabel.png,,kabel,,,,,,,,,,,0.359259288,0.174999979,1,0,0,kabel,0,10,10,7,1
,,,,,,00033,2023-09-19_06h38.30.494,vbt_B1_day2,2022.2.4,Win32,59.82650314,,,,,,,,,,,,,,,,,,,,,,,,,,,,,,,,,,,,,,,,,,breuk,images/br_breuk.png,images/cb_breuk.png,,breuk,,,,,,,,,,,0.359259288,0.174999979,1,0,0,breuk,0,11,11,45,1
,,,,,,00033,2023-09-19_06h38.30.494,vbt_B1_day2,2022.2.4,Win32,59.82650314,,,,,,,,,,,,,,,,,,,,,,,,,,,,,,,,,,,,,,,,,,manieren,images/br_manieren.png,images/cb_manieren.png,,manieren,,,,,,,,,,,0.359259288,0.174999979,1,0,0,manieren,0,12,12,56,1
,,,,,,00033,2023-09-19_06h38.30.494,vbt_B1_day2,2022.2.4,Win32,59.82650314,,,,,,,,,,,,,,,,,,,,,,,,,,,,,,,,,,,,,,,,,,systeem,images/br_systeem.png,images/cb_systeem.png,,systeem,,,,,,,,,,,0.359259288,0.174999979,1,0,0,systeem,0,13,13,54,1
,,,,,,00033,2023-09-19_06h38.30.494,vbt_B1_day2,2022.2.4,Win32,59.82650314,,,,,,,,,,,,,,,,,,,,,,,,,,,,,,,,,,,,,,,,,,dode,images/br_dode.png,images/cb_dode.png,,dode,,,,,,,,,,,0.359259288,0.174999979,1,0,0,dode,0,14,14,41,1
,,,,,,00033,2023-09-19_06h38.30.494,vbt_B1_day2,2022.2.4,Win32,59.82650314,,,,,,,,,,,,,,,,,,,,,,,,,,,,,,,,,,,,,,,,,,stes,images/br_stes.png,images/cb_stes.png,,stes,,,,,,,,,,,0.359259288,0.174999979,1,0,0,stes,0,15,15,21,1
,,,,,,00033,2023-09-19_06h38.30.494,vbt_B1_day2,2022.2.4,Win32,59.82650314,,,,,,,,,,,,,,,,,,,,,,,,,,,,,,,,,,,,,,,,,,heengeen,images/br_heengeen.png,images/cb_heengeen.png,,heengeen,,,,,,,,,,,0.359259288,0.174999979,1,0,0,heengeen,0,16,16,38,1
,,,,,,00033,2023-09-19_06h38.30.494,vbt_B1_day2,2022.2.4,Win32,59.82650314,,,,,,,,,,,,,,,,,,,,,,,,,,,,,,,,,,,,,,,,,,ningen,images/br_ningen.png,images/cb_ningen.png,,ningen,,,,,,,,,,,0.359259288,0.174999979,1,0,0,ningen,0,17,17,28,1
,,,,,,00033,2023-09-19_06h38.30.494,vbt_B1_day2,2022.2.4,Win32,59.82650314,,,,,,,,,,,,,,,,,,,,,,,,,,,,,,,,,,,,,,,,,,flits,images/br_flits.png,images/cb_flits.png,,flits,,,,,,,,,,,0.359259288,0.174999979,1,0,0,flits,0,18,18,4,1
,,,,,,00033,2023-09-19_06h38.30.494,vbt_B1_day2,2022.2.4,Win32,59.82650314,,,,,,,,,,,,,,,,,,,,,,,,,,,,,,,,,,,,,,,,,,krimmen,images/br_krimmen.png,images/cb_krimmen.png,,krimme.,,,,,,,,,,,0.359259288,0.174999979,1,0,0,krimme.,0,19,19,35,1
,,,,,,00033,2023-09-19_06h38.30.494,vbt_B1_day2,2022.2.4,Win32,59.82650314,,,,,,,,,,,,,,,,,,,,,,,,,,,,,,,,,,,,,,,,,,anarchie,images/br_anarchie.png,images/cb_anarchie.png,,annr...,,,,,,,,,,,0.359259288,0.174999979,1,0,0,annr...,0,20,20,16,1
,,,,,,00033,2023-09-19_06h38.30.494,vbt_B1_day2,2022.2.4,Win32,59.82650314,,,,,,,,,,,,,,,,,,,,,,,,,,,,,,,,,,,,,,,,,,eenhoorn,images/br_eenhoorn.png,images/cb_eenhoorn.png,,eenhoorn,,,,,,,,,,,0.359259288,0.174999979,1,0,0,eenhoorn,0,21,21,19,1
,,,,,,00033,2023-09-19_06h38.30.494,vbt_B1_day2,2022.2.4,Win32,59.82650314,,,,,,,,,,,,,,,,,,,,,,,,,,,,,,,,,,,,,,,,,,sjijfel,images/br_sjijfel.png,images/cb_sjijfel.png,,sij.el,,,,,,,,,,,0.359259288,0.174999979,1,0,0,sij.el,0,22,22,33,1
,,,,,,00033,2023-09-19_06h38.30.494,vbt_B1_day2,2022.2.4,Win32,59.82650314,,,,,,,,,,,,,,,,,,,,,,,,,,,,,,,,,,,,,,,,,,woning,images/br_woning.png,images/cb_woning.png,,woning,,,,,,,,,,,0.461111139,0.069444444,1,0,0,woning,0,23,23,10,1
,,,,,,00033,2023-09-19_06h38.30.494,vbt_B1_day2,2022.2.4,Win32,59.82650314,,,,,,,,,,,,,,,,,,,,,,,,,,,,,,,,,,,,,,,,,,kasteel,images/br_kasteel.png,images/cb_kasteel.png,,kasteel,,,,,,,,,,,0.461111139,0.069444444,1,0,0,kasteel,0,24,24,14,1
,,,,,,00033,2023-09-19_06h38.30.494,vbt_B1_day2,2022.2.4,Win32,59.82650314,,,,,,,,,,,,,,,,,,,,,,,,,,,,,,,,,,,,,,,,,,zegel,images/br_zegel.png,images/cb_zegel.png,,zegel,,,,,,,,,,,0.461111139,0.069444444,1,0,0,zegel,0,25,25,46,1
,,,,,,00033,2023-09-19_06h38.30.494,vbt_B1_day2,2022.2.4,Win32,59.82650314,,,,,,,,,,,,,,,,,,,,,,,,,,,,,,,,,,,,,,,,,,diep,images/br_diep.png,images/cb_diep.png,,diep,,,,,,,,,,,0.461111139,0.069444444,1,0,0,diep,0,26,26,2,1
,,,,,,00033,2023-09-19_06h38.30.494,vbt_B1_day2,2022.2.4,Win32,59.82650314,,,,,,,,,,,,,,,,,,,,,,,,,,,,,,,,,,,,,,,,,,moes,images/br_moes.png,images/cb_moes.png,,moes,,,,,,,,,,,0.461111139,0.069444444,1,0,0,moes,0,27,27,0,1
,,,,,,00033,2023-09-19_06h38.30.494,vbt_B1_day2,2022.2.4,Win32,59.82650314,,,,,,,,,,,,,,,,,,,,,,,,,,,,,,,,,,,,,,,,,,kenzis,images/br_kenzis.png,images/cb_kenzis.png,,kenzis,,,,,,,,,,,0.461111139,0.069444444,1,0,0,kenzis,0,28,28,30,1
,,,,,,00033,2023-09-19_06h38.30.494,vbt_B1_day2,2022.2.4,Win32,59.82650314,,,,,,,,,,,,,,,,,,,,,,,,,,,,,,,,,,,,,,,,,,plannen,images/br_plannen.png,images/cb_plannen.png,,plannen,,,,,,,,,,,0.461111139,0.069444444,1,0,0,plannen,0,29,29,55,1
,,,,,,00033,2023-09-19_06h38.30.494,vbt_B1_day2,2022.2.4,Win32,59.82650314,,,,,,,,,,,,,,,,,,,,,,,,,,,,,,,,,,,,,,,,,,koorts,images/br_koorts.png,images/cb_koorts.png,,koorts,,,,,,,,,,,0.461111139,0.069444444,1,0,0,koorts,0,30,30,50,1
,,,,,,00033,2023-09-19_06h38.30.494,vbt_B1_day2,2022.2.4,Win32,59.82650314,,,,,,,,,,,,,,,,,,,,,,,,,,,,,,,,,,,,,,,,,,tand,images/br_tand.png,images/cb_tand.png,,tand,,,,,,,,,,,0.461111139,0.069444444,1,0,0,tand,0,31,31,42,1
,,,,,,00033,2023-09-19_06h38.30.494,vbt_B1_day2,2022.2.4,Win32,59.82650314,,,,,,,,,,,,,,,,,,,,,,,,,,,,,,,,,,,,,,,,,,aanvraag,images/br_aanvraag.png,images/cb_aanvraag.png,,aanvraag,,,,,,,,,,,0.461111139,0.069444444,1,0,0,aanvraag,0,32,32,57,1
,,,,,,00033,2023-09-19_06h38.30.494,vbt_B1_day2,2022.2.4,Win32,59.82650314,,,,,,,,,,,,,,,,,,,,,,,,,,,,,,,,,,,,,,,,,,trots,images/br_trots.png,images/cb_trots.png,,trots,,,,,,,,,,,0.461111139,0.069444444,1,0,0,trots,0,33,33,44,1
,,,,,,00033,2023-09-19_06h38.30.494,vbt_B1_day2,2022.2.4,Win32,59.82650314,,,,,,,,,,,,,,,,,,,,,,,,,,,,,,,,,,,,,,,,,,ophuimen,images/br_ophuimen.png,images/cb_ophuimen.png,,ophelmig,,,,,,,,,,,0.461111139,0.069444444,1,0,0,ophelmig,0,34,34,36,1
,,,,,,00033,2023-09-19_06h38.30.494,vbt_B1_day2,2022.2.4,Win32,59.82650314,,,,,,,,,,,,,,,,,,,,,,,,,,,,,,,,,,,,,,,,,,goon,images/br_goon.png,images/cb_goon.png,,goon,,,,,,,,,,,0.461111139,0.069444444,1,0,0,goon,0,35,35,23,1
,,,,,,00033,2023-09-19_06h38.30.494,vbt_B1_day2,2022.2.4,Win32,59.82650314,,,,,,,,,,,,,,,,,,,,,,,,,,,,,,,,,,,,,,,,,,agressie,images/br_agressie.png,images/cb_agressie.png,,agressie,,,,,,,,,,,0.461111139,0.069444444,1,0,0,agressie,0,36,36,59,1
,,,,,,00033,2023-09-19_06h38.30.494,vbt_B1_day2,2022.2.4,Win32,59.82650314,,,,,,,,,,,,,,,,,,,,,,,,,,,,,,,,,,,,,,,,,,geld,images/br_geld.png,images/cb_geld.png,,geld,,,,,,,,,,,0.461111139,0.069444444,1,0,0,geld,0,37,37,3,1
,,,,,,00033,2023-09-19_06h38.30.494,vbt_B1_day2,2022.2.4,Win32,59.82650314,,,,,,,,,,,,,,,,,,,,,,,,,,,,,,,,,,,,,,,,,,opdatten,images/br_opdatten.png,images/cb_opdatten.png,,opdatt.n,,,,,,,,,,,0.461111139,0.069444444,1,0,0,opdatt.n,0,38,38,37,1
,,,,,,00033,2023-09-19_06h38.30.494,vbt_B1_day2,2022.2.4,Win32,59.82650314,,,,,,,,,,,,,,,,,,,,,,,,,,,,,,,,,,,,,,,,,,doodmoe,images/br_doodmoe.png,images/cb_doodmoe.png,,doodmoe,,,,,,,,,,,0.461111139,0.069444444,1,0,0,doodmoe,0,39,39,15,1
,,,,,,00033,2023-09-19_06h38.30.494,vbt_B1_day2,2022.2.4,Win32,59.82650314,,,,,,,,,,,,,,,,,,,,,,,,,,,,,,,,,,,,,,,,,,feestdag,images/br_feestdag.png,images/cb_feestdag.png,,feestdag,,,,,,,,,,,0.461111139,0.069444444,1,0,0,feestdag,0,40,40,17,1
,,,,,,00033,2023-09-19_06h38.30.494,vbt_B1_day2,2022.2.4,Win32,59.82650314,,,,,,,,,,,,,,,,,,,,,,,,,,,,,,,,,,,,,,,,,,sifferd,images/br_sifferd.png,images/cb_sifferd.png,,sufferd,,,,,,,,,,,0.461111139,0.069444444,1,0,0,sufferd,0,41,41,32,1
,,,,,,00033,2023-09-19_06h38.30.494,vbt_B1_day2,2022.2.4,Win32,59.82650314,,,,,,,,,,,,,,,,,,,,,,,,,,,,,,,,,,,,,,,,,,toeval,images/br_toeval.png,images/cb_toeval.png,,toeval,,,,,,,,,,,0.461111139,0.069444444,1,0,0,toeval,0,42,42,11,1
,,,,,,00033,2023-09-19_06h38.30.494,vbt_B1_day2,2022.2.4,Win32,59.82650314,,,,,,,,,,,,,,,,,,,,,,,,,,,,,,,,,,,,,,,,,,piste,images/br_piste.png,images/cb_piste.png,,piste,,,,,,,,,,,0.461111139,0.069444444,1,0,0,piste,0,43,43,5,1
,,,,,,00033,2023-09-19_06h38.30.494,vbt_B1_day2,2022.2.4,Win32,59.82650314,,,,,,,,,,,,,,,,,,,,,,,,,,,,,,,,,,,,,,,,,,badon,images/br_badon.png,images/cb_badon.png,,badon,,,,,,,,,,,0.461111139,0.069444444,1,0,0,badon,0,44,44,26,1
,,,,,,00033,2023-09-19_06h38.30.494,vbt_B1_day2,2022.2.4,Win32,59.82650314,,,,,,,,,,,,,,,,,,,,,,,,,,,,,,,,,,,,,,,,,,thema,images/br_thema.png,images/cb_thema.png,,thema,,,,,,,,,,,0.461111139,0.069444444,1,0,0,thema,0,45,45,47,1
,,,,,,00033,2023-09-19_06h38.30.494,vbt_B1_day2,2022.2.4,Win32,59.82650314,,,,,,,,,,,,,,,,,,,,,,,,,,,,,,,,,,,,,,,,,,joes,images/br_joes.png,images/cb_joes.png,,joes,,,,,,,,,,,0.461111139,0.069444444,1,0,0,joes,0,46,46,20,1
,,,,,,00033,2023-09-19_06h38.30.494,vbt_B1_day2,2022.2.4,Win32,59.82650314,,,,,,,,,,,,,,,,,,,,,,,,,,,,,,,,,,,,,,,,,,blad,images/br_blad.png,images/cb_blad.png,,blad,,,,,,,,,,,0.461111139,0.069444444,1,0,0,blad,0,47,47,1,1
,,,,,,00033,2023-09-19_06h38.30.494,vbt_B1_day2,2022.2.4,Win32,59.82650314,,,,,,,,,,,,,,,,,,,,,,,,,,,,,,,,,,,,,,,,,,clan,images/br_clan.png,images/cb_clan.png,,clan,,,,,,,,,,,0.461111139,0.069444444,1,0,0,clan,0,48,48,40,1
,,,,,,00033,2023-09-19_06h38.30.494,vbt_B1_day2,2022.2.4,Win32,59.82650314,,,,,,,,,,,,,,,,,,,,,,,,,,,,,,,,,,,,,,,,,,jagen,images/br_jagen.png,images/cb_jagen.png,,jagen,,,,,,,,,,,0.461111139,0.069444444,1,0,0,jagen,0,49,49,6,1
,,,,,,00033,2023-09-19_06h38.30.494,vbt_B1_day2,2022.2.4,Win32,59.82650314,,,,,,,,,,,,,,,,,,,,,,,,,,,,,,,,,,,,,,,,,,inzicht,images/br_inzicht.png,images/cb_inzicht.png,,inzicht,,,,,,,,,,,0.461111139,0.069444444,1,0,0,inzicht,0,50,50,53,1
,,,,,,00033,2023-09-19_06h38.30.494,vbt_B1_day2,2022.2.4,Win32,59.82650314,,,,,,,,,,,,,,,,,,,,,,,,,,,,,,,,,,,,,,,,,,wijve,images/br_wijve.png,images/cb_wijve.png,,wijve,,,,,,,,,,,0.461111139,0.069444444,1,0,0,wijve,0,51,51,27,1
,,,,,,00033,2023-09-19_06h38.30.494,vbt_B1_day2,2022.2.4,Win32,59.82650314,,,,,,,,,,,,,,,,,,,,,,,,,,,,,,,,,,,,,,,,,,tweeling,images/br_tweeling.png,images/cb_tweeling.png,,tweeling,,,,,,,,,,,0.461111139,0.069444444,1,0,0,tweeling,0,52,52,58,1
,,,,,,00033,2023-09-19_06h38.30.494,vbt_B1_day2,2022.2.4,Win32,59.82650314,,,,,,,,,,,,,,,,,,,,,,,,,,,,,,,,,,,,,,,,,,zwager,images/br_zwager.png,images/cb_zwager.png,,zwager,,,,,,,,,,,0.461111139,0.069444444,1,0,0,zwager,0,53,53,49,1
,,,,,,00033,2023-09-19_06h38.30.494,vbt_B1_day2,2022.2.4,Win32,59.82650314,,,,,,,,,,,,,,,,,,,,,,,,,,,,,,,,,,,,,,,,,,zomers,images/br_zomers.png,images/cb_zomers.png,,zomers,,,,,,,,,,,0.461111139,0.069444444,1,0,0,zomers,0,54,54,48,1
,,,,,,00033,2023-09-19_06h38.30.494,vbt_B1_day2,2022.2.4,Win32,59.82650314,,,,,,,,,,,,,,,,,,,,,,,,,,,,,,,,,,,,,,,,,,lijnen,images/br_lijnen.png,images/cb_lijnen.png,,lijne.,,,,,,,,,,,0.461111139,0.069444444,1,0,0,lijne.,0,55,55,51,1
,,,,,,00033,2023-09-19_06h38.30.494,vbt_B1_day2,2022.2.4,Win32,59.82650314,,,,,,,,,,,,,,,,,,,,,,,,,,,,,,,,,,,,,,,,,,heilig,images/br_heilig.png,images/cb_heilig.png,,heilig,,,,,,,,,,,0.461111139,0.069444444,1,0,0,heilig,0,56,56,9,1
,,,,,,00033,2023-09-19_06h38.30.494,vbt_B1_day2,2022.2.4,Win32,59.82650314,,,,,,,,,,,,,,,,,,,,,,,,,,,,,,,,,,,,,,,,,,bereuwen,images/br_bereuwen.png,images/cb_bereuwen.png,,berew..,,,,,,,,,,,0.461111139,0.069444444,1,0,0,berew..,0,57,57,39,1
,,,,,,00033,2023-09-19_06h38.30.494,vbt_B1_day2,2022.2.4,Win32,59.82650314,,,,,,,,,,,,,,,,,,,,,,,,,,,,,,,,,,,,,,,,,,lokken,images/br_lokken.png,images/cb_lokken.png,,lokken,,,,,,,,,,,0.461111139,0.069444444,1,0,0,lokken,0,58,58,8,1
,,,,,,00033,2023-09-19_06h38.30.494,vbt_B1_day2,2022.2.4,Win32,59.82650314,,,,,,,,,,,,,,,,,,,,,,,,,,,,,,,,,,,,,,,,,,negel,images/br_negel.png,images/cb_negel.png,,negel,,,,,,,,,,,0.461111139,0.069444444,1,0,0,negel,0,59,59,24,1
,,,,,,00033,2023-09-19_06h38.30.494,vbt_B1_day2,2022.2.4,Win32,59.82650314,,,,,,,,,,,,,,,,,,,,,,,,,,,,,,,,,,,,,,,,,,,,,,,,,,,,,,,,,,,,,,,,,,,
