welcome_mouse.x,welcome_mouse.y,welcome_mouse.leftButton,welcome_mouse.midButton,welcome_mouse.rightButton,welcome_mouse.time,"ID",date,expName,psychopyVersion,OS,frameRate,participant,refresh_mouse.x,refresh_mouse.y,refresh_mouse.leftButton,refresh_mouse.midButton,refresh_mouse.rightButton,refresh_mouse.time,braille_mouse.x,braille_mouse.y,braille_mouse.leftButton,braille_mouse.midButton,braille_mouse.rightButton,braille_mouse.time,trials.thisRepN,trials.thisTrialN,trials.thisN,trials.thisIndex,trials.ran,nlLet,brLet,cbLet,trainInstr_mouse.x,trainInstr_mouse.y,trainInstr_mouse.leftButton,trainInstr_mouse.midButton,trainInstr_mouse.rightButton,trainInstr_mouse.time,translation_key.keys,translation_key.corr,translation_key.rt,word_rsp.text,word_mouse.x,word_mouse.y,word_mouse.leftButton,word_mouse.midButton,word_mouse.rightButton,word_mouse.time,train_loop.thisRepN,train_loop.thisTrialN,train_loop.thisN,train_loop.thisIndex,train_loop.ran,nlWrd,brWrd,cbWrd,test,testResp,mouse.x,mouse.y,mouse.leftButton,mouse.midButton,mouse.rightButton,testInstr_mouse.x,testInstr_mouse.y,testInstr_mouse.leftButton,testInstr_mouse.midButton,testInstr_mouse.rightButton,test_mouse.x,test_mouse.y,test_mouse.leftButton,test_mouse.midButton,test_mouse.rightButton,test_response.text,test_loop.thisRepN,test_loop.thisTrialN,test_loop.thisN,test_loop.thisIndex,test_loop.ran
0.232407393,-0.244444459,1,0,0,13.5447,55888,2023-09-25_13h30.15.518,vbt_B1_day2,2022.2.4,Win32,60.16847172,55888,,,,,,,,,,,,,,,,,,,,,,,,,,,,,,,,,,,,,,,,,,,,,,,,,,,,,,,,,,,,,,,,,,,
,,,,,,55888,2023-09-25_13h30.15.518,vbt_B1_day2,2022.2.4,Win32,60.16847172,55888,0.123148176,-0.205555598,1,0,0,9.6198,,,,,,,,,,,,,,,,,,,,,,,,,,,,,,,,,,,,,,,,,,,,,,,,,,,,,,,,,,,,,
,,,,,,55888,2023-09-25_13h30.15.518,vbt_B1_day2,2022.2.4,Win32,60.16847172,55888,,,,,,,0.174074102,-0.115740741,1,0,0,0.8503,0,0,0,4,1,e,images/br_e.png,images/cb_e.png,,,,,,,,,,,,,,,,,,,,,,,,,,,,,,,,,,,,,,,,,,,,,,,
,,,,,,55888,2023-09-25_13h30.15.518,vbt_B1_day2,2022.2.4,Win32,60.16847172,55888,,,,,,,0.174074102,-0.115740741,1,0,0,0.2828,0,1,1,2,1,c,images/br_c.png,images/cb_c.png,,,,,,,,,,,,,,,,,,,,,,,,,,,,,,,,,,,,,,,,,,,,,,,
,,,,,,55888,2023-09-25_13h30.15.518,vbt_B1_day2,2022.2.4,Win32,60.16847172,55888,,,,,,,0.228703746,-0.107407393,1,0,0,0.1008,0,2,2,12,1,m,images/br_m.png,images/cb_m.png,,,,,,,,,,,,,,,,,,,,,,,,,,,,,,,,,,,,,,,,,,,,,,,
,,,,,,55888,2023-09-25_13h30.15.518,vbt_B1_day2,2022.2.4,Win32,60.16847172,55888,,,,,,,0.242592635,0.037962949,1,0,0,0.8667,0,3,3,3,1,d,images/br_d.png,images/cb_d.png,,,,,,,,,,,,,,,,,,,,,,,,,,,,,,,,,,,,,,,,,,,,,,,
,,,,,,55888,2023-09-25_13h30.15.518,vbt_B1_day2,2022.2.4,Win32,60.16847172,55888,,,,,,,0.389814871,-0.130555541,1,0,0,1.4163,0,4,4,8,1,i,images/br_i.png,images/cb_i.png,,,,,,,,,,,,,,,,,,,,,,,,,,,,,,,,,,,,,,,,,,,,,,,
,,,,,,55888,2023-09-25_13h30.15.518,vbt_B1_day2,2022.2.4,Win32,60.16847172,55888,,,,,,,0.386111083,-0.130555541,1,0,0,0.6324,0,5,5,24,1,y,images/br_y.png,images/cb_y.png,,,,,,,,,,,,,,,,,,,,,,,,,,,,,,,,,,,,,,,,,,,,,,,
,,,,,,55888,2023-09-25_13h30.15.518,vbt_B1_day2,2022.2.4,Win32,60.16847172,55888,,,,,,,0.386111083,-0.131481524,1,0,0,0.8163,0,6,6,20,1,u,images/br_u.png,images/cb_u.png,,,,,,,,,,,,,,,,,,,,,,,,,,,,,,,,,,,,,,,,,,,,,,,
,,,,,,55888,2023-09-25_13h30.15.518,vbt_B1_day2,2022.2.4,Win32,60.16847172,55888,,,,,,,0.386111083,-0.135185171,1,0,0,0.7504,0,7,7,22,1,w,images/br_w.png,images/cb_w.png,,,,,,,,,,,,,,,,,,,,,,,,,,,,,,,,,,,,,,,,,,,,,,,
,,,,,,55888,2023-09-25_13h30.15.518,vbt_B1_day2,2022.2.4,Win32,60.16847172,55888,,,,,,,0.386111083,-0.142592607,1,0,0,0.2669,0,8,8,23,1,x,images/br_x.png,images/cb_x.png,,,,,,,,,,,,,,,,,,,,,,,,,,,,,,,,,,,,,,,,,,,,,,,
,,,,,,55888,2023-09-25_13h30.15.518,vbt_B1_day2,2022.2.4,Win32,60.16847172,55888,,,,,,,0.386111083,-0.157407407,1,0,0,0.6167,0,9,9,18,1,s,images/br_s.png,images/cb_s.png,,,,,,,,,,,,,,,,,,,,,,,,,,,,,,,,,,,,,,,,,,,,,,,
,,,,,,55888,2023-09-25_13h30.15.518,vbt_B1_day2,2022.2.4,Win32,60.16847172,55888,,,,,,,0.357407464,-0.133333347,1,0,0,1.1103,0,10,10,25,1,z,images/br_z.png,images/cb_z.png,,,,,,,,,,,,,,,,,,,,,,,,,,,,,,,,,,,,,,,,,,,,,,,
,,,,,,55888,2023-09-25_13h30.15.518,vbt_B1_day2,2022.2.4,Win32,60.16847172,55888,,,,,,,0.415740826,-0.12037037,1,0,0,0.4508,0,11,11,15,1,p,images/br_p.png,images/cb_p.png,,,,,,,,,,,,,,,,,,,,,,,,,,,,,,,,,,,,,,,,,,,,,,,
,,,,,,55888,2023-09-25_13h30.15.518,vbt_B1_day2,2022.2.4,Win32,60.16847172,55888,,,,,,,0.48518527,-0.111111111,1,0,0,2.0675,0,12,12,13,1,n,images/br_n.png,images/cb_n.png,,,,,,,,,,,,,,,,,,,,,,,,,,,,,,,,,,,,,,,,,,,,,,,
,,,,,,55888,2023-09-25_13h30.15.518,vbt_B1_day2,2022.2.4,Win32,60.16847172,55888,,,,,,,0.465740769,-0.09629631,1,0,0,0.8669,0,13,13,5,1,f,images/br_f.png,images/cb_f.png,,,,,,,,,,,,,,,,,,,,,,,,,,,,,,,,,,,,,,,,,,,,,,,
,,,,,,55888,2023-09-25_13h30.15.518,vbt_B1_day2,2022.2.4,Win32,60.16847172,55888,,,,,,,0.463888945,-0.103703746,1,0,0,0.5842,0,14,14,19,1,t,images/br_t.png,images/cb_t.png,,,,,,,,,,,,,,,,,,,,,,,,,,,,,,,,,,,,,,,,,,,,,,,
,,,,,,55888,2023-09-25_13h30.15.518,vbt_B1_day2,2022.2.4,Win32,60.16847172,55888,,,,,,,0.457407492,-0.106481481,1,0,0,1.1495,0,15,15,11,1,l,images/br_l.png,images/cb_l.png,,,,,,,,,,,,,,,,,,,,,,,,,,,,,,,,,,,,,,,,,,,,,,,
,,,,,,55888,2023-09-25_13h30.15.518,vbt_B1_day2,2022.2.4,Win32,60.16847172,55888,,,,,,,0.45185188,-0.108333376,1,0,0,0.8999,0,16,16,14,1,o,images/br_o.png,images/cb_o.png,,,,,,,,,,,,,,,,,,,,,,,,,,,,,,,,,,,,,,,,,,,,,,,
,,,,,,55888,2023-09-25_13h30.15.518,vbt_B1_day2,2022.2.4,Win32,60.16847172,55888,,,,,,,0.362962935,-0.104629658,1,0,0,0.3656,0,17,17,21,1,v,images/br_v.png,images/cb_v.png,,,,,,,,,,,,,,,,,,,,,,,,,,,,,,,,,,,,,,,,,,,,,,,
,,,,,,55888,2023-09-25_13h30.15.518,vbt_B1_day2,2022.2.4,Win32,60.16847172,55888,,,,,,,0.289814843,0.051851838,1,0,0,0.5333,0,18,18,0,1,a,images/br_a.png,images/cb_a.png,,,,,,,,,,,,,,,,,,,,,,,,,,,,,,,,,,,,,,,,,,,,,,,
,,,,,,55888,2023-09-25_13h30.15.518,vbt_B1_day2,2022.2.4,Win32,60.16847172,55888,,,,,,,0.334259316,-0.048148155,1,0,0,0.9502,0,19,19,17,1,r,images/br_r.png,images/cb_r.png,,,,,,,,,,,,,,,,,,,,,,,,,,,,,,,,,,,,,,,,,,,,,,,
,,,,,,55888,2023-09-25_13h30.15.518,vbt_B1_day2,2022.2.4,Win32,60.16847172,55888,,,,,,,0.296296296,-0.043518526,1,0,0,0.9002,0,20,20,10,1,k,images/br_k.png,images/cb_k.png,,,,,,,,,,,,,,,,,,,,,,,,,,,,,,,,,,,,,,,,,,,,,,,
,,,,,,55888,2023-09-25_13h30.15.518,vbt_B1_day2,2022.2.4,Win32,60.16847172,55888,,,,,,,0.353703675,-0.082407422,1,0,0,0.915,0,21,21,9,1,j,images/br_j.png,images/cb_j.png,,,,,,,,,,,,,,,,,,,,,,,,,,,,,,,,,,,,,,,,,,,,,,,
,,,,,,55888,2023-09-25_13h30.15.518,vbt_B1_day2,2022.2.4,Win32,60.16847172,55888,,,,,,,0.365740741,-0.098148134,1,0,0,1.2665,0,22,22,16,1,q,images/br_q.png,images/cb_q.png,,,,,,,,,,,,,,,,,,,,,,,,,,,,,,,,,,,,,,,,,,,,,,,
,,,,,,55888,2023-09-25_13h30.15.518,vbt_B1_day2,2022.2.4,Win32,60.16847172,55888,,,,,,,0.405555584,-0.104629658,1,0,0,0.9332,0,23,23,7,1,h,images/br_h.png,images/cb_h.png,,,,,,,,,,,,,,,,,,,,,,,,,,,,,,,,,,,,,,,,,,,,,,,
,,,,,,55888,2023-09-25_13h30.15.518,vbt_B1_day2,2022.2.4,Win32,60.16847172,55888,,,,,,,0.40370376,-0.101851852,1,0,0,0.2499,0,24,24,1,1,b,images/br_b.png,images/cb_b.png,,,,,,,,,,,,,,,,,,,,,,,,,,,,,,,,,,,,,,,,,,,,,,,
,,,,,,55888,2023-09-25_13h30.15.518,vbt_B1_day2,2022.2.4,Win32,60.16847172,55888,,,,,,,0.40370376,-0.101851852,1,0,0,0.3932,0,25,25,6,1,g,images/br_g.png,images/cb_g.png,,,,,,,,,,,,,,,,,,,,,,,,,,,,,,,,,,,,,,,,,,,,,,,
,,,,,,55888,2023-09-25_13h30.15.518,vbt_B1_day2,2022.2.4,Win32,60.16847172,55888,,,,,,,,,,,,,,,,,,,,,0.07685188,0.105555534,1,0,0,36.5221,,,,,,,,,,,,,,,,,,,,,,,,,,,,,,,,,,,,,,,,,
,,,,,,55888,2023-09-25_13h30.15.518,vbt_B1_day2,2022.2.4,Win32,60.16847172,55888,,,,,,,,,,,,,,,,,,,,,,,,,,,down,0,11.7043,,0.374074159,0.049999979,1,0,0,3.3503,0,0,0,131,1,opzicht,images/br_opzicht.png,images/cb_opzicht.png,0,,,,,,,,,,,,,,,,,,,,,,
,,,,,,55888,2023-09-25_13h30.15.518,vbt_B1_day2,2022.2.4,Win32,60.16847172,55888,,,,,,,,,,,,,,,,,,,,,,,,,,,down,0,3.4077,,0.373148176,0.048148155,1,0,0,5.0505,0,1,1,89,1,slapen,images/br_slapen.png,images/cb_slapen.png,0,,,,,,,,,,,,,,,,,,,,,,
,,,,,,55888,2023-09-25_13h30.15.518,vbt_B1_day2,2022.2.4,Win32,60.16847172,55888,,,,,,,,,,,,,,,,,,,,,,,,,,,down,0,2.1188,,0.373148176,0.047222208,1,0,0,7.4998,0,2,2,14,1,rijp,images/br_rijp.png,images/cb_rijp.png,0,,,,,,,,,,,,,,,,,,,,,,
,,,,,,55888,2023-09-25_13h30.15.518,vbt_B1_day2,2022.2.4,Win32,60.16847172,55888,,,,,,,,,,,,,,,,,,,,,,,,,,,down,0,2.973,,0.380555612,-0.053703697,1,0,0,3.583,0,3,3,78,1,leren,images/br_leren.png,images/cb_leren.png,0,,,,,,,,,,,,,,,,,,,,,,
,,,,,,55888,2023-09-25_13h30.15.518,vbt_B1_day2,2022.2.4,Win32,60.16847172,55888,,,,,,,,,,,,,,,,,,,,,,,,,,,down,0,4.4494,,0.352777834,-0.078703704,1,0,0,2.7673,0,4,4,40,1,schep,images/br_schep.png,images/cb_schep.png,0,,,,,,,,,,,,,,,,,,,,,,
,,,,,,55888,2023-09-25_13h30.15.518,vbt_B1_day2,2022.2.4,Win32,60.16847172,55888,,,,,,,,,,,,,,,,,,,,,,,,,,,down,0,2.6527,,0.329629686,-0.101851852,1,0,0,2.4501,0,5,5,36,1,vuur,images/br_vuur.png,images/cb_vuur.png,0,,,,,,,,,,,,,,,,,,,,,,
,,,,,,55888,2023-09-25_13h30.15.518,vbt_B1_day2,2022.2.4,Win32,60.16847172,55888,,,,,,,,,,,,,,,,,,,,,,,,,,,down,0,3.3078,,0.361111111,-0.031481496,1,0,0,2.0003,0,6,6,23,1,zout,images/br_zout.png,images/cb_zout.png,0,,,,,,,,,,,,,,,,,,,,,,
,,,,,,55888,2023-09-25_13h30.15.518,vbt_B1_day2,2022.2.4,Win32,60.16847172,55888,,,,,,,,,,,,,,,,,,,,,,,,,,,down,0,1.5907,,0.347222222,-0.065740762,1,0,0,4.6497,0,7,7,17,1,taal,images/br_taal.png,images/cb_taal.png,1,taal,,,,,,,,,,,,,,,,,,,,,
,,,,,,55888,2023-09-25_13h30.15.518,vbt_B1_day2,2022.2.4,Win32,60.16847172,55888,,,,,,,,,,,,,,,,,,,,,,,,,,,down,0,9.7069,,0.307407379,-0.052777785,1,0,0,7.4167,0,8,8,172,1,weigeren,images/br_weigeren.png,images/cb_weigeren.png,0,,,,,,,,,,,,,,,,,,,,,,
,,,,,,55888,2023-09-25_13h30.15.518,vbt_B1_day2,2022.2.4,Win32,60.16847172,55888,,,,,,,,,,,,,,,,,,,,,,,,,,,down,0,3.3892,,0.325925898,-0.025000007,1,0,0,2.3,0,9,9,95,1,vreten,images/br_vreten.png,images/cb_vreten.png,0,,,,,,,,,,,,,,,,,,,,,,
,,,,,,55888,2023-09-25_13h30.15.518,vbt_B1_day2,2022.2.4,Win32,60.16847172,55888,,,,,,,,,,,,,,,,,,,,,,,,,,,down,0,2.9761,,0.320370427,-0.063888903,1,0,0,2.1498,0,10,10,149,1,redding,images/br_redding.png,images/cb_redding.png,0,,,,,,,,,,,,,,,,,,,,,,
,,,,,,55888,2023-09-25_13h30.15.518,vbt_B1_day2,2022.2.4,Win32,60.16847172,55888,,,,,,,,,,,,,,,,,,,,,,,,,,,down,0,5.6712,,0.309259344,-0.087037051,1,0,0,2.3496,0,11,11,183,1,getuigen,images/br_getuigen.png,images/cb_getuigen.png,0,,,,,,,,,,,,,,,,,,,,,,
,,,,,,55888,2023-09-25_13h30.15.518,vbt_B1_day2,2022.2.4,Win32,60.16847172,55888,,,,,,,,,,,,,,,,,,,,,,,,,,,down,0,4.8172,,0.237963005,-0.118518547,1,0,0,2.1333,0,12,12,180,1,openbaar,images/br_openbaar.png,images/cb_openbaar.png,0,,,,,,,,,,,,,,,,,,,,,,
,,,,,,55888,2023-09-25_13h30.15.518,vbt_B1_day2,2022.2.4,Win32,60.16847172,55888,,,,,,,,,,,,,,,,,,,,,,,,,,,down,0,8.0405,,0.327777863,-0.184259273,1,0,0,3.6001,0,13,13,199,1,beseffen,images/br_beseffen.png,images/cb_beseffen.png,0,,,,,,,,,,,,,,,,,,,,,,
,,,,,,55888,2023-09-25_13h30.15.518,vbt_B1_day2,2022.2.4,Win32,60.16847172,55888,,,,,,,,,,,,,,,,,,,,,,,,,,,down,0,7.4379,,0.356481481,-0.098148134,1,0,0,1.3164,0,14,14,164,1,anarchie,images/br_anarchie.png,images/cb_anarchie.png,0,,,,,,,,,,,,,,,,,,,,,,
,,,,,,55888,2023-09-25_13h30.15.518,vbt_B1_day2,2022.2.4,Win32,60.16847172,55888,,,,,,,,,,,,,,,,,,,,,,,,,,,down,0,2.2676,,0.394444501,-0.054629644,1,0,0,2.4328,0,15,15,47,1,kabel,images/br_kabel.png,images/cb_kabel.png,0,,,,,,,,,,,,,,,,,,,,,,
,,,,,,55888,2023-09-25_13h30.15.518,vbt_B1_day2,2022.2.4,Win32,60.16847172,55888,,,,,,,,,,,,,,,,,,,,,,,,,,,down,0,1.1667,,0.386111083,-0.015740748,1,0,0,10.1003,0,16,16,13,1,kaal,images/br_kaal.png,images/cb_kaal.png,0,,,,,,,,,,,,,,,,,,,,,,
,,,,,,55888,2023-09-25_13h30.15.518,vbt_B1_day2,2022.2.4,Win32,60.16847172,55888,,,,,,,,,,,,,,,,,,,,,,,,,,,down,0,7.0106,,0.342592593,-0.125,1,0,0,1.7841,0,17,17,147,1,komisch,images/br_komisch.png,images/cb_komisch.png,0,,,,,,,,,,,,,,,,,,,,,,
,,,,,,55888,2023-09-25_13h30.15.518,vbt_B1_day2,2022.2.4,Win32,60.16847172,55888,,,,,,,,,,,,,,,,,,,,,,,,,,,down,0,10.7419,,0.174074102,-0.038888896,1,0,0,0.9169,0,18,18,52,1,wagon,images/br_wagon.png,images/cb_wagon.png,0,,,,,,,,,,,,,,,,,,,,,,
,,,,,,55888,2023-09-25_13h30.15.518,vbt_B1_day2,2022.2.4,Win32,60.16847172,55888,,,,,,,,,,,,,,,,,,,,,,,,,,,down,0,7.3907,,0.341666751,-0.130555541,1,0,0,2.1503,0,19,19,139,1,stiekem,images/br_stiekem.png,images/cb_stiekem.png,1,stiekem,,,,,,,,,,,,,,,,,,,,,
,,,,,,55888,2023-09-25_13h30.15.518,vbt_B1_day2,2022.2.4,Win32,60.16847172,55888,,,,,,,,,,,,,,,,,,,,,,,,,,,down,0,3.5094,,0.30277775,-0.123148176,1,0,0,2.1999,0,20,20,105,1,wijlen,images/br_wijlen.png,images/cb_wijlen.png,0,,,,,,,,,,,,,,,,,,,,,,
,,,,,,55888,2023-09-25_13h30.15.518,vbt_B1_day2,2022.2.4,Win32,60.16847172,55888,,,,,,,,,,,,,,,,,,,,,,,,,,,down,0,2.4742,,0.301851908,-0.114814829,1,0,0,1.0671,0,21,21,117,1,kennis,images/br_kennis.png,images/cb_kennis.png,0,,,,,,,,,,,,,,,,,,,,,,
,,,,,,55888,2023-09-25_13h30.15.518,vbt_B1_day2,2022.2.4,Win32,60.16847172,55888,,,,,,,,,,,,,,,,,,,,,,,,,,,down,0,5.5888,,0.343518575,-0.117592635,1,0,0,2,0,22,22,166,1,strikken,images/br_strikken.png,images/cb_strikken.png,0,,,,,,,,,,,,,,,,,,,,,,
,,,,,,55888,2023-09-25_13h30.15.518,vbt_B1_day2,2022.2.4,Win32,60.16847172,55888,,,,,,,,,,,,,,,,,,,,,,,,,,,down,0,5.551,,0.334259316,-0.114814829,1,0,0,2.9831,0,23,23,132,1,grappen,images/br_grappen.png,images/cb_grappen.png,0,,,,,,,,,,,,,,,,,,,,,,
,,,,,,55888,2023-09-25_13h30.15.518,vbt_B1_day2,2022.2.4,Win32,60.16847172,55888,,,,,,,,,,,,,,,,,,,,,,,,,,,down,0,3.7922,,0.32685188,-0.12962963,1,0,0,2.5009,0,24,24,67,1,zwart,images/br_zwart.png,images/cb_zwart.png,0,,,,,,,,,,,,,,,,,,,,,,
,,,,,,55888,2023-09-25_13h30.15.518,vbt_B1_day2,2022.2.4,Win32,60.16847172,55888,,,,,,,,,,,,,,,,,,,,,,,,,,,down,0,1.474,,0.336111139,-0.140740783,1,0,0,2.3168,0,25,25,35,1,lust,images/br_lust.png,images/cb_lust.png,0,,,,,,,,,,,,,,,,,,,,,,
,,,,,,55888,2023-09-25_13h30.15.518,vbt_B1_day2,2022.2.4,Win32,60.16847172,55888,,,,,,,,,,,,,,,,,,,,,,,,,,,down,0,5.2938,,0.30277775,-0.067592586,1,0,0,1.5334,0,26,26,143,1,hechten,images/br_hechten.png,images/cb_hechten.png,0,,,,,,,,,,,,,,,,,,,,,,
,,,,,,55888,2023-09-25_13h30.15.518,vbt_B1_day2,2022.2.4,Win32,60.16847172,55888,,,,,,,,,,,,,,,,,,,,,,,,,,,down,0,2.9856,,0.397222307,-0.087037051,1,0,0,1.5829,0,27,27,140,1,blijven,images/br_blijven.png,images/cb_blijven.png,0,,,,,,,,,,,,,,,,,,,,,,
,,,,,,55888,2023-09-25_13h30.15.518,vbt_B1_day2,2022.2.4,Win32,60.16847172,55888,,,,,,,,,,,,,,,,,,,,,,,,,,,down,0,5.2518,,0.309259344,-0.08888891,1,0,0,1.3667,0,28,28,185,1,mijnheer,images/br_mijnheer.png,images/cb_mijnheer.png,0,,,,,,,,,,,,,,,,,,,,,,
,,,,,,55888,2023-09-25_13h30.15.518,vbt_B1_day2,2022.2.4,Win32,60.16847172,55888,,,,,,,,,,,,,,,,,,,,,,,,,,,down,0,1.0692,,0.250925912,-0.125925912,1,0,0,1.3179,0,29,29,62,1,knaap,images/br_knaap.png,images/cb_knaap.png,0,,,,,,,,,,,,,,,,,,,,,,
,,,,,,55888,2023-09-25_13h30.15.518,vbt_B1_day2,2022.2.4,Win32,60.16847172,55888,,,,,,,,,,,,,,,,,,,,,,,,,,,down,0,11.8041,,0.32222225,-0.164814843,1,0,0,5.7339,0,30,30,111,1,ticket,images/br_ticket.png,images/cb_ticket.png,0,,,,,,,,,,,,,,,,,,,,,,
,,,,,,55888,2023-09-25_13h30.15.518,vbt_B1_day2,2022.2.4,Win32,60.16847172,55888,,,,,,,,,,,,,,,,,,,,,,,,,,,down,0,3.1198,,0.30277775,-0.133333347,1,0,0,1.8164,0,31,31,81,1,dubbel,images/br_dubbel.png,images/cb_dubbel.png,0,,,,,,,,,,,,,,,,,,,,,,
,,,,,,55888,2023-09-25_13h30.15.518,vbt_B1_day2,2022.2.4,Win32,60.16847172,55888,,,,,,,,,,,,,,,,,,,,,,,,,,,down,0,2.5685,,0.293518561,-0.001851859,1,0,0,1.5492,0,32,32,33,1,vlek,images/br_vlek.png,images/cb_vlek.png,0,,,,,,,,,,,,,,,,,,,,,,
,,,,,,55888,2023-09-25_13h30.15.518,vbt_B1_day2,2022.2.4,Win32,60.16847172,55888,,,,,,,,,,,,,,,,,,,,,,,,,,,down,0,2.386,,0.262037065,-0.068518533,1,0,0,1.4328,0,33,33,68,1,schat,images/br_schat.png,images/cb_schat.png,0,,,,,,,,,,,,,,,,,,,,,,
,,,,,,55888,2023-09-25_13h30.15.518,vbt_B1_day2,2022.2.4,Win32,60.16847172,55888,,,,,,,,,,,,,,,,,,,,,,,,,,,down,0,3.1449,,0.200925968,0.012962942,1,0,0,4.7828,0,34,34,144,1,eetlust,images/br_eetlust.png,images/cb_eetlust.png,0,,,,,,,,,,,,,,,,,,,,,,
,,,,,,55888,2023-09-25_13h30.15.518,vbt_B1_day2,2022.2.4,Win32,60.16847172,55888,,,,,,,,,,,,,,,,,,,,,,,,,,,down,0,1.6608,,0.295370384,0.02870369,1,0,0,1.2171,0,35,35,43,1,klauw,images/br_klauw.png,images/cb_klauw.png,0,,,,,,,,,,,,,,,,,,,,,,
,,,,,,55888,2023-09-25_13h30.15.518,vbt_B1_day2,2022.2.4,Win32,60.16847172,55888,,,,,,,,,,,,,,,,,,,,,,,,,,,down,0,1.1685,,0.363888917,-0.017592607,1,0,0,1.2843,0,36,36,7,1,geld,images/br_geld.png,images/cb_geld.png,0,,,,,,,,,,,,,,,,,,,,,,
,,,,,,55888,2023-09-25_13h30.15.518,vbt_B1_day2,2022.2.4,Win32,60.16847172,55888,,,,,,,,,,,,,,,,,,,,,,,,,,,down,0,3.3868,,0.253703718,-0.074074074,1,0,0,2.1829,0,37,37,66,1,lever,images/br_lever.png,images/cb_lever.png,0,,,,,,,,,,,,,,,,,,,,,,
,,,,,,55888,2023-09-25_13h30.15.518,vbt_B1_day2,2022.2.4,Win32,60.16847172,55888,,,,,,,,,,,,,,,,,,,,,,,,,,,down,0,3.8919,,0.202777792,-0.050000014,1,0,0,1.75,0,38,38,50,1,stoom,images/br_stoom.png,images/cb_stoom.png,0,,,,,,,,,,,,,,,,,,,,,,
,,,,,,55888,2023-09-25_13h30.15.518,vbt_B1_day2,2022.2.4,Win32,60.16847172,55888,,,,,,,,,,,,,,,,,,,,,,,,,,,down,0,7.4166,,0.112963005,-0.10555557,1,0,0,0.8169,0,39,39,26,1,leuk,images/br_leuk.png,images/cb_leuk.png,0,,,,,,,,,,,,,,,,,,,,,,
,,,,,,55888,2023-09-25_13h30.15.518,vbt_B1_day2,2022.2.4,Win32,60.16847172,55888,,,,,,,,,,,,,,,,,,,,,,,,,,,down,0,4.9018,,0.272222236,-0.110185199,1,0,0,1.3999,0,40,40,182,1,bijkomen,images/br_bijkomen.png,images/cb_bijkomen.png,0,,,,,,,,,,,,,,,,,,,,,,
,,,,,,55888,2023-09-25_13h30.15.518,vbt_B1_day2,2022.2.4,Win32,60.16847172,55888,,,,,,,,,,,,,,,,,,,,,,,,,,,down,0,2.492,,0.327777863,-0.17777782,1,0,0,2.4339,0,41,41,187,1,opkijken,images/br_opkijken.png,images/cb_opkijken.png,0,,,,,,,,,,,,,,,,,,,,,,
,,,,,,55888,2023-09-25_13h30.15.518,vbt_B1_day2,2022.2.4,Win32,60.16847172,55888,,,,,,,,,,,,,,,,,,,,,,,,,,,down,0,5.7236,,0.33148151,-0.217592593,1,0,0,2.5666,0,42,42,80,1,kanjer,images/br_kanjer.png,images/cb_kanjer.png,0,,,,,,,,,,,,,,,,,,,,,,
,,,,,,55888,2023-09-25_13h30.15.518,vbt_B1_day2,2022.2.4,Win32,60.16847172,55888,,,,,,,,,,,,,,,,,,,,,,,,,,,down,0,9.5104,,0.35555564,0.049074067,1,0,0,1.1843,0,43,43,85,1,heilig,images/br_heilig.png,images/cb_heilig.png,0,,,,,,,,,,,,,,,,,,,,,,
,,,,,,55888,2023-09-25_13h30.15.518,vbt_B1_day2,2022.2.4,Win32,60.16847172,55888,,,,,,,,,,,,,,,,,,,,,,,,,,,down,0,0.5693,,0.229629658,0.033333319,1,0,0,0.8991,0,44,44,0,1,slak,images/br_slak.png,images/cb_slak.png,0,,,,,,,,,,,,,,,,,,,,,,
,,,,,,55888,2023-09-25_13h30.15.518,vbt_B1_day2,2022.2.4,Win32,60.16847172,55888,,,,,,,,,,,,,,,,,,,,,,,,,,,down,0,1.0503,,0.187037079,-0.114814829,1,0,0,1.2169,0,45,45,5,1,blad,images/br_blad.png,images/cb_blad.png,0,,,,,,,,,,,,,,,,,,,,,,
,,,,,,55888,2023-09-25_13h30.15.518,vbt_B1_day2,2022.2.4,Win32,60.16847172,55888,,,,,,,,,,,,,,,,,,,,,,,,,,,down,0,5.2437,,0.249074088,-0.161111125,1,0,0,1.4672,0,46,46,130,1,keihard,images/br_keihard.png,images/cb_keihard.png,0,,,,,,,,,,,,,,,,,,,,,,
,,,,,,55888,2023-09-25_13h30.15.518,vbt_B1_day2,2022.2.4,Win32,60.16847172,55888,,,,,,,,,,,,,,,,,,,,,,,,,,,down,0,3.7846,,0.494444529,-0.300000014,1,0,0,2.3668,0,47,47,56,1,traag,images/br_traag.png,images/cb_traag.png,1,traag,,,,,,,,,,,,,,,,,,,,,
,,,,,,55888,2023-09-25_13h30.15.518,vbt_B1_day2,2022.2.4,Win32,60.16847172,55888,,,,,,,,,,,,,,,,,,,,,,,,,,,down,0,2.1699,,0.386111083,-0.045370384,1,0,0,0.9173,0,48,48,169,1,oprotten,images/br_oprotten.png,images/cb_oprotten.png,0,,,,,,,,,,,,,,,,,,,,,,
,,,,,,55888,2023-09-25_13h30.15.518,vbt_B1_day2,2022.2.4,Win32,60.16847172,55888,,,,,,,,,,,,,,,,,,,,,,,,,,,down,0,2.0273,,0.465740769,-0.049074067,1,0,0,1.4666,0,49,49,77,1,woede,images/br_woede.png,images/cb_woede.png,0,,,,,,,,,,,,,,,,,,,,,,
,,,,,,55888,2023-09-25_13h30.15.518,vbt_B1_day2,2022.2.4,Win32,60.16847172,55888,,,,,,,,,,,,,,,,,,,,,,,,,,,down,0,1.0573,,0.314814815,-0.162962949,1,0,0,2.1338,0,50,50,115,1,kleren,images/br_kleren.png,images/cb_kleren.png,0,,,,,,,,,,,,,,,,,,,,,,
,,,,,,55888,2023-09-25_13h30.15.518,vbt_B1_day2,2022.2.4,Win32,60.16847172,55888,,,,,,,,,,,,,,,,,,,,,,,,,,,down,0,3.7264,,0.27870369,-0.050925926,1,0,0,1.0495,0,51,51,151,1,aanzoek,images/br_aanzoek.png,images/cb_aanzoek.png,0,,,,,,,,,,,,,,,,,,,,,,
,,,,,,55888,2023-09-25_13h30.15.518,vbt_B1_day2,2022.2.4,Win32,60.16847172,55888,,,,,,,,,,,,,,,,,,,,,,,,,,,down,0,3.2248,,0.337962963,-0.067592586,1,0,0,1.7675,0,52,52,64,1,wegen,images/br_wegen.png,images/cb_wegen.png,0,,,,,,,,,,,,,,,,,,,,,,
,,,,,,55888,2023-09-25_13h30.15.518,vbt_B1_day2,2022.2.4,Win32,60.16847172,55888,,,,,,,,,,,,,,,,,,,,,,,,,,,down,0,1.8706,,0.470370399,-0.090740734,1,0,0,2.2833,0,53,53,75,1,snoep,images/br_snoep.png,images/cb_snoep.png,0,,,,,,,,,,,,,,,,,,,,,,
,,,,,,55888,2023-09-25_13h30.15.518,vbt_B1_day2,2022.2.4,Win32,60.16847172,55888,,,,,,,,,,,,,,,,,,,,,,,,,,,down,0,6.0759,,0.404629601,-0.063888903,1,0,0,1.3998,0,54,54,159,1,sufferd,images/br_sufferd.png,images/cb_sufferd.png,0,,,,,,,,,,,,,,,,,,,,,,
,,,,,,55888,2023-09-25_13h30.15.518,vbt_B1_day2,2022.2.4,Win32,60.16847172,55888,,,,,,,,,,,,,,,,,,,,,,,,,,,down,0,3.3236,,0.350926011,-0.052777785,1,0,0,1.2327,0,55,55,18,1,blik,images/br_blik.png,images/cb_blik.png,1,blik,,,,,,,,,,,,,,,,,,,,,
,,,,,,55888,2023-09-25_13h30.15.518,vbt_B1_day2,2022.2.4,Win32,60.16847172,55888,,,,,,,,,,,,,,,,,,,,,,,,,,,down,0,5.6678,,0.372222194,0.025925919,1,0,0,2.1499,0,56,56,76,1,afval,images/br_afval.png,images/cb_afval.png,0,,,,,,,,,,,,,,,,,,,,,,
,,,,,,55888,2023-09-25_13h30.15.518,vbt_B1_day2,2022.2.4,Win32,60.16847172,55888,,,,,,,,,,,,,,,,,,,,,,,,,,,down,0,2.4397,,0.306481538,-0.071296303,1,0,0,1.7164,0,57,57,61,1,groen,images/br_groen.png,images/cb_groen.png,0,,,,,,,,,,,,,,,,,,,,,,
,,,,,,55888,2023-09-25_13h30.15.518,vbt_B1_day2,2022.2.4,Win32,60.16847172,55888,,,,,,,,,,,,,,,,,,,,,,,,,,,down,0,1.768,,0.478703675,-0.071296303,1,0,0,1.4671,0,58,58,12,1,kust,images/br_kust.png,images/cb_kust.png,0,,,,,,,,,,,,,,,,,,,,,,
,,,,,,55888,2023-09-25_13h30.15.518,vbt_B1_day2,2022.2.4,Win32,60.16847172,55888,,,,,,,,,,,,,,,,,,,,,,,,,,,down,0,3.3689,,0.32685188,-0.052777785,1,0,0,1.6331,0,59,59,133,1,seizoen,images/br_seizoen.png,images/cb_seizoen.png,0,,,,,,,,,,,,,,,,,,,,,,
,,,,,,55888,2023-09-25_13h30.15.518,vbt_B1_day2,2022.2.4,Win32,60.16847172,55888,,,,,,,,,,,,,,,,,,,,,,,,,,,down,0,3.2883,,0.286111125,-0.165740755,1,0,0,2.7328,0,60,60,101,1,staren,images/br_staren.png,images/cb_staren.png,0,,,,,,,,,,,,,,,,,,,,,,
,,,,,,55888,2023-09-25_13h30.15.518,vbt_B1_day2,2022.2.4,Win32,60.16847172,55888,,,,,,,,,,,,,,,,,,,,,,,,,,,down,0,2.775,,0.419444473,-0.068518533,1,0,0,1.6498,0,61,61,16,1,ziek,images/br_ziek.png,images/cb_ziek.png,1,ziek,,,,,,,,,,,,,,,,,,,,,
,,,,,,55888,2023-09-25_13h30.15.518,vbt_B1_day2,2022.2.4,Win32,60.16847172,55888,,,,,,,,,,,,,,,,,,,,,,,,,,,down,0,2.2896,,0.299074102,-0.015740748,1,0,0,1.3995,0,62,62,113,1,koppen,images/br_koppen.png,images/cb_koppen.png,0,,,,,,,,,,,,,,,,,,,,,,
,,,,,,55888,2023-09-25_13h30.15.518,vbt_B1_day2,2022.2.4,Win32,60.16847172,55888,,,,,,,,,,,,,,,,,,,,,,,,,,,down,0,2.8201,,0.347222222,-0.066666674,1,0,0,1.6998,0,63,63,145,1,invloed,images/br_invloed.png,images/cb_invloed.png,0,,,,,,,,,,,,,,,,,,,,,,
,,,,,,55888,2023-09-25_13h30.15.518,vbt_B1_day2,2022.2.4,Win32,60.16847172,55888,,,,,,,,,,,,,,,,,,,,,,,,,,,down,0,3.0769,,0.334259316,-0.072222215,1,0,0,2.1008,0,64,64,137,1,trekker,images/br_trekker.png,images/cb_trekker.png,1,trekker,,,,,,,,,,,,,,,,,,,,,
,,,,,,55888,2023-09-25_13h30.15.518,vbt_B1_day2,2022.2.4,Win32,60.16847172,55888,,,,,,,,,,,,,,,,,,,,,,,,,,,down,0,2.0177,,0.488888917,0.100925905,1,0,0,1.4495,0,65,65,190,1,goedkoop,images/br_goedkoop.png,images/cb_goedkoop.png,0,,,,,,,,,,,,,,,,,,,,,,
,,,,,,55888,2023-09-25_13h30.15.518,vbt_B1_day2,2022.2.4,Win32,60.16847172,55888,,,,,,,,,,,,,,,,,,,,,,,,,,,down,0,2.7348,,0.311111168,-0.112963005,1,0,0,3.0004,0,66,66,92,1,geheim,images/br_geheim.png,images/cb_geheim.png,0,,,,,,,,,,,,,,,,,,,,,,
,,,,,,55888,2023-09-25_13h30.15.518,vbt_B1_day2,2022.2.4,Win32,60.16847172,55888,,,,,,,,,,,,,,,,,,,,,,,,,,,down,0,3.4344,,0.391666695,0.042592578,1,0,0,1.1007,0,67,67,192,1,schaamte,images/br_schaamte.png,images/cb_schaamte.png,0,,,,,,,,,,,,,,,,,,,,,,
,,,,,,55888,2023-09-25_13h30.15.518,vbt_B1_day2,2022.2.4,Win32,60.16847172,55888,,,,,,,,,,,,,,,,,,,,,,,,,,,down,0,2.2732,,0.287962949,-0.019444466,1,0,0,1.5836,0,68,68,110,1,zuster,images/br_zuster.png,images/cb_zuster.png,0,,,,,,,,,,,,,,,,,,,,,,
,,,,,,55888,2023-09-25_13h30.15.518,vbt_B1_day2,2022.2.4,Win32,60.16847172,55888,,,,,,,,,,,,,,,,,,,,,,,,,,,down,0,4.2894,,0.287962949,-0.041666667,1,0,0,1.5017,0,69,69,96,1,slagen,images/br_slagen.png,images/cb_slagen.png,1,slagen,,,,,,,,,,,,,,,,,,,,,
,,,,,,55888,2023-09-25_13h30.15.518,vbt_B1_day2,2022.2.4,Win32,60.16847172,55888,,,,,,,,,,,,,,,,,,,,,,,,,,,down,0,2.6051,,0.262962977,-0.104629658,1,0,0,1.7831,0,70,70,112,1,lukken,images/br_lukken.png,images/cb_lukken.png,0,,,,,,,,,,,,,,,,,,,,,,
,,,,,,55888,2023-09-25_13h30.15.518,vbt_B1_day2,2022.2.4,Win32,60.16847172,55888,,,,,,,,,,,,,,,,,,,,,,,,,,,down,0,3.4873,,0.275000042,-0.115740741,1,0,0,1.2996,0,71,71,11,1,mode,images/br_mode.png,images/cb_mode.png,0,,,,,,,,,,,,,,,,,,,,,,
,,,,,,55888,2023-09-25_13h30.15.518,vbt_B1_day2,2022.2.4,Win32,60.16847172,55888,,,,,,,,,,,,,,,,,,,,,,,,,,,down,0,9.5926,,0.325925898,-0.162037037,1,0,0,1.1837,0,72,72,45,1,piste,images/br_piste.png,images/cb_piste.png,0,,,,,,,,,,,,,,,,,,,,,,
,,,,,,55888,2023-09-25_13h30.15.518,vbt_B1_day2,2022.2.4,Win32,60.16847172,55888,,,,,,,,,,,,,,,,,,,,,,,,,,,down,0,5.006,,0.40370376,-0.060185185,1,0,0,0.9656,0,73,73,193,1,weeshuis,images/br_weeshuis.png,images/cb_weeshuis.png,0,,,,,,,,,,,,,,,,,,,,,,
,,,,,,55888,2023-09-25_13h30.15.518,vbt_B1_day2,2022.2.4,Win32,60.16847172,55888,,,,,,,,,,,,,,,,,,,,,,,,,,,down,0,3.9584,,0.25462963,-0.031481496,1,0,0,2.0336,0,74,74,104,1,zweven,images/br_zweven.png,images/cb_zweven.png,0,,,,,,,,,,,,,,,,,,,,,,
,,,,,,55888,2023-09-25_13h30.15.518,vbt_B1_day2,2022.2.4,Win32,60.16847172,55888,,,,,,,,,,,,,,,,,,,,,,,,,,,down,0,3.9432,,0.212962963,0.006481489,1,0,0,0.9326,0,75,75,150,1,gegeven,images/br_gegeven.png,images/cb_gegeven.png,0,,,,,,,,,,,,,,,,,,,,,,
,,,,,,55888,2023-09-25_13h30.15.518,vbt_B1_day2,2022.2.4,Win32,60.16847172,55888,,,,,,,,,,,,,,,,,,,,,,,,,,,down,0,3.6675,,0.244444459,0.03611109,1,0,0,1.1331,0,76,76,141,1,knielen,images/br_knielen.png,images/cb_knielen.png,0,,,,,,,,,,,,,,,,,,,,,,
,,,,,,55888,2023-09-25_13h30.15.518,vbt_B1_day2,2022.2.4,Win32,60.16847172,55888,,,,,,,,,,,,,,,,,,,,,,,,,,,down,0,1.4546,,0.452777863,-0.241666653,1,0,0,1.6667,0,77,77,57,1,steek,images/br_steek.png,images/cb_steek.png,1,steek,,,,,,,,,,,,,,,,,,,,,
,,,,,,55888,2023-09-25_13h30.15.518,vbt_B1_day2,2022.2.4,Win32,60.16847172,55888,,,,,,,,,,,,,,,,,,,,,,,,,,,down,0,3.7534,,0.309259344,-0.045370384,1,0,0,1.6668,0,78,78,158,1,innemen,images/br_innemen.png,images/cb_innemen.png,0,,,,,,,,,,,,,,,,,,,,,,
,,,,,,55888,2023-09-25_13h30.15.518,vbt_B1_day2,2022.2.4,Win32,60.16847172,55888,,,,,,,,,,,,,,,,,,,,,,,,,,,down,0,0.5358,,0.464814787,-0.053703697,1,0,0,1.7501,0,79,79,28,1,stal,images/br_stal.png,images/cb_stal.png,0,,,,,,,,,,,,,,,,,,,,,,
,,,,,,55888,2023-09-25_13h30.15.518,vbt_B1_day2,2022.2.4,Win32,60.16847172,55888,,,,,,,,,,,,,,,,,,,,,,,,,,,down,0,3.7852,,0.465740769,-0.110185199,1,0,0,1.9008,0,80,80,154,1,aflopen,images/br_aflopen.png,images/cb_aflopen.png,0,,,,,,,,,,,,,,,,,,,,,,
,,,,,,55888,2023-09-25_13h30.15.518,vbt_B1_day2,2022.2.4,Win32,60.16847172,55888,,,,,,,,,,,,,,,,,,,,,,,,,,,down,0,4.7511,,0.405555584,-0.135185171,1,0,0,1.9503,0,81,81,123,1,hiervan,images/br_hiervan.png,images/cb_hiervan.png,0,,,,,,,,,,,,,,,,,,,,,,
,,,,,,55888,2023-09-25_13h30.15.518,vbt_B1_day2,2022.2.4,Win32,60.16847172,55888,,,,,,,,,,,,,,,,,,,,,,,,,,,down,0,1.9763,,0.382407436,-0.057407414,1,0,0,1.517,0,82,82,21,1,mist,images/br_mist.png,images/cb_mist.png,0,,,,,,,,,,,,,,,,,,,,,,
,,,,,,55888,2023-09-25_13h30.15.518,vbt_B1_day2,2022.2.4,Win32,60.16847172,55888,,,,,,,,,,,,,,,,,,,,,,,,,,,down,0,3.888,,0.334259316,-0.005555577,1,0,0,2.2163,0,83,83,168,1,bisschop,images/br_bisschop.png,images/cb_bisschop.png,0,,,,,,,,,,,,,,,,,,,,,,
,,,,,,55888,2023-09-25_13h30.15.518,vbt_B1_day2,2022.2.4,Win32,60.16847172,55888,,,,,,,,,,,,,,,,,,,,,,,,,,,down,0,3.4595,,0.362962935,-0.069444444,1,0,0,1.7335,0,84,84,59,1,kring,images/br_kring.png,images/cb_kring.png,1,kring,,,,,,,,,,,,,,,,,,,,,
,,,,,,55888,2023-09-25_13h30.15.518,vbt_B1_day2,2022.2.4,Win32,60.16847172,55888,,,,,,,,,,,,,,,,,,,,,,,,,,,down,0,5.5005,,0.247222265,-0.036111125,1,0,0,1.1498,0,85,85,37,1,mijn,images/br_mijn.png,images/cb_mijn.png,0,,,,,,,,,,,,,,,,,,,,,,
,,,,,,55888,2023-09-25_13h30.15.518,vbt_B1_day2,2022.2.4,Win32,60.16847172,55888,,,,,,,,,,,,,,,,,,,,,,,,,,,down,0,3.2103,,0.416666667,-0.049074067,1,0,0,1.4502,0,86,86,160,1,daarheen,images/br_daarheen.png,images/cb_daarheen.png,0,,,,,,,,,,,,,,,,,,,,,,
,,,,,,55888,2023-09-25_13h30.15.518,vbt_B1_day2,2022.2.4,Win32,60.16847172,55888,,,,,,,,,,,,,,,,,,,,,,,,,,,down,0,3.7688,,0.207407422,-0.053703697,1,0,0,0.9164,0,87,87,127,1,doodmoe,images/br_doodmoe.png,images/cb_doodmoe.png,0,,,,,,,,,,,,,,,,,,,,,,
,,,,,,55888,2023-09-25_13h30.15.518,vbt_B1_day2,2022.2.4,Win32,60.16847172,55888,,,,,,,,,,,,,,,,,,,,,,,,,,,down,0,3.9204,,0.205555598,-0.130555541,1,0,0,1.1833,0,88,88,54,1,gebit,images/br_gebit.png,images/cb_gebit.png,0,,,,,,,,,,,,,,,,,,,,,,
,,,,,,55888,2023-09-25_13h30.15.518,vbt_B1_day2,2022.2.4,Win32,60.16847172,55888,,,,,,,,,,,,,,,,,,,,,,,,,,,down,0,2.4749,,0.208333333,-0.124074088,1,0,0,1.3166,0,89,89,125,1,aanzien,images/br_aanzien.png,images/cb_aanzien.png,0,,,,,,,,,,,,,,,,,,,,,,
,,,,,,55888,2023-09-25_13h30.15.518,vbt_B1_day2,2022.2.4,Win32,60.16847172,55888,,,,,,,,,,,,,,,,,,,,,,,,,,,down,0,3.5669,,0.290740755,-0.08425928,1,0,0,2.0008,0,90,90,3,1,mand,images/br_mand.png,images/cb_mand.png,0,,,,,,,,,,,,,,,,,,,,,,
,,,,,,55888,2023-09-25_13h30.15.518,vbt_B1_day2,2022.2.4,Win32,60.16847172,55888,,,,,,,,,,,,,,,,,,,,,,,,,,,down,0,0.92,,0.243518547,-0.078703704,1,0,0,1.7328,0,91,91,22,1,stof,images/br_stof.png,images/cb_stof.png,0,,,,,,,,,,,,,,,,,,,,,,
,,,,,,55888,2023-09-25_13h30.15.518,vbt_B1_day2,2022.2.4,Win32,60.16847172,55888,,,,,,,,,,,,,,,,,,,,,,,,,,,down,0,4.6345,,0.443518603,-0.010185206,1,0,0,1.117,0,92,92,197,1,spanning,images/br_spanning.png,images/cb_spanning.png,0,,,,,,,,,,,,,,,,,,,,,,
,,,,,,55888,2023-09-25_13h30.15.518,vbt_B1_day2,2022.2.4,Win32,60.16847172,55888,,,,,,,,,,,,,,,,,,,,,,,,,,,down,0,1.2328,,0.300000085,0.099999993,1,0,0,1.7995,0,93,93,29,1,baas,images/br_baas.png,images/cb_baas.png,0,,,,,,,,,,,,,,,,,,,,,,
,,,,,,55888,2023-09-25_13h30.15.518,vbt_B1_day2,2022.2.4,Win32,60.16847172,55888,,,,,,,,,,,,,,,,,,,,,,,,,,,down,0,6.7682,,0.213888875,0.152777778,1,0,0,1.7329,0,94,94,34,1,vorm,images/br_vorm.png,images/cb_vorm.png,0,,,,,,,,,,,,,,,,,,,,,,
,,,,,,55888,2023-09-25_13h30.15.518,vbt_B1_day2,2022.2.4,Win32,60.16847172,55888,,,,,,,,,,,,,,,,,,,,,,,,,,,down,0,3.7845,,0.472222222,0.032407407,1,0,0,1.5833,0,95,95,177,1,maaltijd,images/br_maaltijd.png,images/cb_maaltijd.png,1,maaltijd,,,,,,,,,,,,,,,,,,,,,
,,,,,,55888,2023-09-25_13h30.15.518,vbt_B1_day2,2022.2.4,Win32,60.16847172,55888,,,,,,,,,,,,,,,,,,,,,,,,,,,down,0,4.5198,,0.339814787,0.005555541,1,0,0,1.0663,0,96,96,82,1,muziek,images/br_muziek.png,images/cb_muziek.png,0,,,,,,,,,,,,,,,,,,,,,,
,,,,,,55888,2023-09-25_13h30.15.518,vbt_B1_day2,2022.2.4,Win32,60.16847172,55888,,,,,,,,,,,,,,,,,,,,,,,,,,,down,0,0.8488,,0.299074102,-0.078703704,1,0,0,1.3996,0,97,97,1,1,zaal,images/br_zaal.png,images/cb_zaal.png,0,,,,,,,,,,,,,,,,,,,,,,
,,,,,,55888,2023-09-25_13h30.15.518,vbt_B1_day2,2022.2.4,Win32,60.16847172,55888,,,,,,,,,,,,,,,,,,,,,,,,,,,down,0,3.6182,,0.219444487,-0.045370384,1,0,0,1.2829,0,98,98,46,1,jagen,images/br_jagen.png,images/cb_jagen.png,0,,,,,,,,,,,,,,,,,,,,,,
,,,,,,55888,2023-09-25_13h30.15.518,vbt_B1_day2,2022.2.4,Win32,60.16847172,55888,,,,,,,,,,,,,,,,,,,,,,,,,,,down,0,0.9353,,0.483333305,0.038888896,1,0,0,1.6337,0,99,99,8,1,knie,images/br_knie.png,images/cb_knie.png,0,,,,,,,,,,,,,,,,,,,,,,
,,,,,,55888,2023-09-25_13h30.15.518,vbt_B1_day2,2022.2.4,Win32,60.16847172,55888,,,,,,,,,,,,,,,,,,,,,,,,,,,down,0,2.0203,,0.282407407,-0.002777771,1,0,0,7.4991,0,100,100,119,1,liefje,images/br_liefje.png,images/cb_liefje.png,0,,,,,,,,,,,,,,,,,,,,,,
,,,,,,55888,2023-09-25_13h30.15.518,vbt_B1_day2,2022.2.4,Win32,60.16847172,55888,,,,,,,,,,,,,,,,,,,,,,,,,,,down,0,2.7705,,0.22129631,-0.014814836,1,0,0,1.6662,0,101,101,10,1,leek,images/br_leek.png,images/cb_leek.png,0,,,,,,,,,,,,,,,,,,,,,,
,,,,,,55888,2023-09-25_13h30.15.518,vbt_B1_day2,2022.2.4,Win32,60.16847172,55888,,,,,,,,,,,,,,,,,,,,,,,,,,,down,0,10.2866,,0.459259316,-0.138888889,1,0,0,1.9504,0,102,102,176,1,techniek,images/br_techniek.png,images/cb_techniek.png,1,techniek,,,,,,,,,,,,,,,,,,,,,
,,,,,,55888,2023-09-25_13h30.15.518,vbt_B1_day2,2022.2.4,Win32,60.16847172,55888,,,,,,,,,,,,,,,,,,,,,,,,,,,down,0,0.9245,,0.409259231,-0.014814836,1,0,0,1.6159,0,103,103,42,1,bleek,images/br_bleek.png,images/cb_bleek.png,0,,,,,,,,,,,,,,,,,,,,,,
,,,,,,55888,2023-09-25_13h30.15.518,vbt_B1_day2,2022.2.4,Win32,60.16847172,55888,,,,,,,,,,,,,,,,,,,,,,,,,,,down,0,4.3404,,0.406481566,0.053703697,1,0,0,1.683,0,104,104,155,1,gerucht,images/br_gerucht.png,images/cb_gerucht.png,0,,,,,,,,,,,,,,,,,,,,,,
,,,,,,55888,2023-09-25_13h30.15.518,vbt_B1_day2,2022.2.4,Win32,60.16847172,55888,,,,,,,,,,,,,,,,,,,,,,,,,,,down,0,0.2705,,0.344444416,-0.025000007,1,0,0,1.8672,0,105,105,48,1,steel,images/br_steel.png,images/cb_steel.png,0,,,,,,,,,,,,,,,,,,,,,,
,,,,,,55888,2023-09-25_13h30.15.518,vbt_B1_day2,2022.2.4,Win32,60.16847172,55888,,,,,,,,,,,,,,,,,,,,,,,,,,,down,0,0.7825,,0.324074074,-0.080555563,1,0,0,2.2835,0,106,106,2,1,jaar,images/br_jaar.png,images/cb_jaar.png,0,,,,,,,,,,,,,,,,,,,,,,
,,,,,,55888,2023-09-25_13h30.15.518,vbt_B1_day2,2022.2.4,Win32,60.16847172,55888,,,,,,,,,,,,,,,,,,,,,,,,,,,down,0,4.835,,0.309259344,-0.092592593,1,0,0,2.1326,0,107,107,161,1,attentie,images/br_attentie.png,images/cb_attentie.png,0,,,,,,,,,,,,,,,,,,,,,,
,,,,,,55888,2023-09-25_13h30.15.518,vbt_B1_day2,2022.2.4,Win32,60.16847172,55888,,,,,,,,,,,,,,,,,,,,,,,,,,,down,0,3.3351,,0.319444444,0.006481489,1,0,0,2.7164,0,108,108,122,1,waarvan,images/br_waarvan.png,images/cb_waarvan.png,0,,,,,,,,,,,,,,,,,,,,,,
,,,,,,55888,2023-09-25_13h30.15.518,vbt_B1_day2,2022.2.4,Win32,60.16847172,55888,,,,,,,,,,,,,,,,,,,,,,,,,,,down,0,2.8541,,0.289814843,-0.137037065,1,0,0,1.7997,0,109,109,31,1,poes,images/br_poes.png,images/cb_poes.png,0,,,,,,,,,,,,,,,,,,,,,,
,,,,,,55888,2023-09-25_13h30.15.518,vbt_B1_day2,2022.2.4,Win32,60.16847172,55888,,,,,,,,,,,,,,,,,,,,,,,,,,,down,0,2.5011,,0.337037122,-0.076851845,1,0,0,2.9156,0,110,110,146,1,opkomen,images/br_opkomen.png,images/cb_opkomen.png,0,,,,,,,,,,,,,,,,,,,,,,
,,,,,,55888,2023-09-25_13h30.15.518,vbt_B1_day2,2022.2.4,Win32,60.16847172,55888,,,,,,,,,,,,,,,,,,,,,,,,,,,down,0,2.068,,0.330555527,0.020370377,1,0,0,1.4822,0,111,111,120,1,klimmen,images/br_klimmen.png,images/cb_klimmen.png,0,,,,,,,,,,,,,,,,,,,,,,
,,,,,,55888,2023-09-25_13h30.15.518,vbt_B1_day2,2022.2.4,Win32,60.16847172,55888,,,,,,,,,,,,,,,,,,,,,,,,,,,down,0,1.8233,,0.330555527,0.020370377,1,0,0,2.0834,0,112,112,20,1,site,images/br_site.png,images/cb_site.png,0,,,,,,,,,,,,,,,,,,,,,,
,,,,,,55888,2023-09-25_13h30.15.518,vbt_B1_day2,2022.2.4,Win32,60.16847172,55888,,,,,,,,,,,,,,,,,,,,,,,,,,,down,0,10.1054,,0.392592677,0.017592571,1,0,0,0.9172,0,113,113,184,1,aandelen,images/br_aandelen.png,images/cb_aandelen.png,0,,,,,,,,,,,,,,,,,,,,,,
,,,,,,55888,2023-09-25_13h30.15.518,vbt_B1_day2,2022.2.4,Win32,60.16847172,55888,,,,,,,,,,,,,,,,,,,,,,,,,,,down,0,3.1701,,0.357407464,-0.067592586,1,0,0,1.4828,0,114,114,170,1,schatten,images/br_schatten.png,images/cb_schatten.png,0,,,,,,,,,,,,,,,,,,,,,,
,,,,,,55888,2023-09-25_13h30.15.518,vbt_B1_day2,2022.2.4,Win32,60.16847172,55888,,,,,,,,,,,,,,,,,,,,,,,,,,,down,0,2.8665,,0.25,0.037962949,1,0,0,1.7175,0,115,115,70,1,ijdel,images/br_ijdel.png,images/cb_ijdel.png,0,,,,,,,,,,,,,,,,,,,,,,
,,,,,,55888,2023-09-25_13h30.15.518,vbt_B1_day2,2022.2.4,Win32,60.16847172,55888,,,,,,,,,,,,,,,,,,,,,,,,,,,down,0,4.5375,,0.391666695,-0.143518519,1,0,0,1.0012,0,116,116,138,1,akkoord,images/br_akkoord.png,images/cb_akkoord.png,1,akkoord,,,,,,,,,,,,,,,,,,,,,
,,,,,,55888,2023-09-25_13h30.15.518,vbt_B1_day2,2022.2.4,Win32,60.16847172,55888,,,,,,,,,,,,,,,,,,,,,,,,,,,down,0,10.0845,,0.40833339,-0.040740755,1,0,0,2.0171,0,117,117,163,1,schuilen,images/br_schuilen.png,images/cb_schuilen.png,0,,,,,,,,,,,,,,,,,,,,,,
,,,,,,55888,2023-09-25_13h30.15.518,vbt_B1_day2,2022.2.4,Win32,60.16847172,55888,,,,,,,,,,,,,,,,,,,,,,,,,,,down,0,2.3415,,0.466666751,-0.0074074,1,0,0,1.2663,0,118,118,171,1,aarzelen,images/br_aarzelen.png,images/cb_aarzelen.png,0,,,,,,,,,,,,,,,,,,,,,,
,,,,,,55888,2023-09-25_13h30.15.518,vbt_B1_day2,2022.2.4,Win32,60.16847172,55888,,,,,,,,,,,,,,,,,,,,,,,,,,,down,0,2.2554,,0.513888889,-0.09629631,1,0,0,2.066,0,119,119,9,1,hier,images/br_hier.png,images/cb_hier.png,0,,,,,,,,,,,,,,,,,,,,,,
,,,,,,55888,2023-09-25_13h30.15.518,vbt_B1_day2,2022.2.4,Win32,60.16847172,55888,,,,,,,,,,,,,,,,,,,,,,,,,,,down,0,4.905,,0.399074131,-0.08888891,1,0,0,1.6828,0,120,120,30,1,uien,images/br_uien.png,images/cb_uien.png,0,,,,,,,,,,,,,,,,,,,,,,
,,,,,,55888,2023-09-25_13h30.15.518,vbt_B1_day2,2022.2.4,Win32,60.16847172,55888,,,,,,,,,,,,,,,,,,,,,,,,,,,down,0,2.3691,,0.397222307,-0.095370399,1,0,0,0.8828,0,121,121,58,1,tekst,images/br_tekst.png,images/cb_tekst.png,1,tekst,,,,,,,,,,,,,,,,,,,,,
,,,,,,55888,2023-09-25_13h30.15.518,vbt_B1_day2,2022.2.4,Win32,60.16847172,55888,,,,,,,,,,,,,,,,,,,,,,,,,,,down,0,2.0933,,0.634259259,-0.150925954,1,0,0,1.4167,0,122,122,103,1,joggen,images/br_joggen.png,images/cb_joggen.png,0,,,,,,,,,,,,,,,,,,,,,,
,,,,,,55888,2023-09-25_13h30.15.518,vbt_B1_day2,2022.2.4,Win32,60.16847172,55888,,,,,,,,,,,,,,,,,,,,,,,,,,,down,0,2.7402,,0.520370342,0.01944443,1,0,0,2.4003,0,123,123,124,1,bloeien,images/br_bloeien.png,images/cb_bloeien.png,0,,,,,,,,,,,,,,,,,,,,,,
,,,,,,55888,2023-09-25_13h30.15.518,vbt_B1_day2,2022.2.4,Win32,60.16847172,55888,,,,,,,,,,,,,,,,,,,,,,,,,,,down,0,2.0692,,0.273148148,-0.125925912,1,0,0,2.2172,0,124,124,60,1,jasje,images/br_jasje.png,images/cb_jasje.png,0,,,,,,,,,,,,,,,,,,,,,,
,,,,,,55888,2023-09-25_13h30.15.518,vbt_B1_day2,2022.2.4,Win32,60.16847172,55888,,,,,,,,,,,,,,,,,,,,,,,,,,,down,0,9.2106,,0.271296325,-0.111111111,1,0,0,1.1337,0,125,125,86,1,woning,images/br_woning.png,images/cb_woning.png,0,,,,,,,,,,,,,,,,,,,,,,
,,,,,,55888,2023-09-25_13h30.15.518,vbt_B1_day2,2022.2.4,Win32,60.16847172,55888,,,,,,,,,,,,,,,,,,,,,,,,,,,down,0,1.3358,,0.337962963,-0.133333347,1,0,0,2.1172,0,126,126,69,1,waken,images/br_waken.png,images/cb_waken.png,0,,,,,,,,,,,,,,,,,,,,,,
,,,,,,55888,2023-09-25_13h30.15.518,vbt_B1_day2,2022.2.4,Win32,60.16847172,55888,,,,,,,,,,,,,,,,,,,,,,,,,,,down,0,7.4645,,0.300925926,-0.030555548,1,0,0,1.3006,0,127,127,165,1,feestdag,images/br_feestdag.png,images/cb_feestdag.png,0,,,,,,,,,,,,,,,,,,,,,,
,,,,,,55888,2023-09-25_13h30.15.518,vbt_B1_day2,2022.2.4,Win32,60.16847172,55888,,,,,,,,,,,,,,,,,,,,,,,,,,,down,0,2.1735,,0.333333333,-0.005555577,1,0,0,3.7336,0,128,128,88,1,boeien,images/br_boeien.png,images/cb_boeien.png,0,,,,,,,,,,,,,,,,,,,,,,
,,,,,,55888,2023-09-25_13h30.15.518,vbt_B1_day2,2022.2.4,Win32,60.16847172,55888,,,,,,,,,,,,,,,,,,,,,,,,,,,down,0,3.7074,,0.356481481,-0.026851866,1,0,0,2.166,0,129,129,174,1,stemming,images/br_stemming.png,images/cb_stemming.png,0,,,,,,,,,,,,,,,,,,,,,,
,,,,,,55888,2023-09-25_13h30.15.518,vbt_B1_day2,2022.2.4,Win32,60.16847172,55888,,,,,,,,,,,,,,,,,,,,,,,,,,,down,0,4.2335,,0.312037009,-0.075925933,1,0,0,2.3493,0,130,130,153,1,vervoer,images/br_vervoer.png,images/cb_vervoer.png,0,,,,,,,,,,,,,,,,,,,,,,
,,,,,,55888,2023-09-25_13h30.15.518,vbt_B1_day2,2022.2.4,Win32,60.16847172,55888,,,,,,,,,,,,,,,,,,,,,,,,,,,down,0,6.557,,0.258333347,-0.112037023,1,0,0,2.0499,0,131,131,108,1,excuus,images/br_excuus.png,images/cb_excuus.png,0,,,,,,,,,,,,,,,,,,,,,,
,,,,,,55888,2023-09-25_13h30.15.518,vbt_B1_day2,2022.2.4,Win32,60.16847172,55888,,,,,,,,,,,,,,,,,,,,,,,,,,,down,0,2.8005,,0.372222194,-0.085185192,1,0,0,1.5154,0,132,132,99,1,koffie,images/br_koffie.png,images/cb_koffie.png,1,koffie,,,,,,,,,,,,,,,,,,,,,
,,,,,,55888,2023-09-25_13h30.15.518,vbt_B1_day2,2022.2.4,Win32,60.16847172,55888,,,,,,,,,,,,,,,,,,,,,,,,,,,down,0,2.151,,0.286111125,-0.054629644,1,0,0,2.4995,0,133,133,148,1,smullen,images/br_smullen.png,images/cb_smullen.png,0,,,,,,,,,,,,,,,,,,,,,,
,,,,,,55888,2023-09-25_13h30.15.518,vbt_B1_day2,2022.2.4,Win32,60.16847172,55888,,,,,,,,,,,,,,,,,,,,,,,,,,,down,0,4.4922,,0.271296325,-0.089814822,1,0,0,1.7502,0,134,134,175,1,heengaan,images/br_heengaan.png,images/cb_heengaan.png,0,,,,,,,,,,,,,,,,,,,,,,
,,,,,,55888,2023-09-25_13h30.15.518,vbt_B1_day2,2022.2.4,Win32,60.16847172,55888,,,,,,,,,,,,,,,,,,,,,,,,,,,down,0,2.7756,,0.275925954,-0.095370399,1,0,0,2.0666,0,135,135,189,1,aanraden,images/br_aanraden.png,images/cb_aanraden.png,0,,,,,,,,,,,,,,,,,,,,,,
,,,,,,55888,2023-09-25_13h30.15.518,vbt_B1_day2,2022.2.4,Win32,60.16847172,55888,,,,,,,,,,,,,,,,,,,,,,,,,,,down,0,4.2489,,0.381481453,-0.086111104,1,0,0,2.801,0,136,136,186,1,voorraad,images/br_voorraad.png,images/cb_voorraad.png,0,,,,,,,,,,,,,,,,,,,,,,
,,,,,,55888,2023-09-25_13h30.15.518,vbt_B1_day2,2022.2.4,Win32,60.16847172,55888,,,,,,,,,,,,,,,,,,,,,,,,,,,down,0,4.8839,,0.32685188,-0.054629644,1,0,0,2.1166,0,137,137,93,1,waarop,images/br_waarop.png,images/cb_waarop.png,0,,,,,,,,,,,,,,,,,,,,,,
,,,,,,55888,2023-09-25_13h30.15.518,vbt_B1_day2,2022.2.4,Win32,60.16847172,55888,,,,,,,,,,,,,,,,,,,,,,,,,,,down,0,10.5409,,0.311111168,-0.094444487,1,0,0,1.7671,0,138,138,94,1,oceaan,images/br_oceaan.png,images/cb_oceaan.png,0,,,,,,,,,,,,,,,,,,,,,,
,,,,,,55888,2023-09-25_13h30.15.518,vbt_B1_day2,2022.2.4,Win32,60.16847172,55888,,,,,,,,,,,,,,,,,,,,,,,,,,,down,0,7.2905,,0.35555564,-0.033333355,1,0,0,1.6828,0,139,139,142,1,snuiven,images/br_snuiven.png,images/cb_snuiven.png,0,,,,,,,,,,,,,,,,,,,,,,
,,,,,,55888,2023-09-25_13h30.15.518,vbt_B1_day2,2022.2.4,Win32,60.16847172,55888,,,,,,,,,,,,,,,,,,,,,,,,,,,down,0,5.3574,,0.351851852,-0.089814822,1,0,0,2.4166,0,140,140,198,1,bedoelen,images/br_bedoelen.png,images/cb_bedoelen.png,0,,,,,,,,,,,,,,,,,,,,,,
,,,,,,55888,2023-09-25_13h30.15.518,vbt_B1_day2,2022.2.4,Win32,60.16847172,55888,,,,,,,,,,,,,,,,,,,,,,,,,,,down,0,3.2743,,0.389814871,-0.074074074,1,0,0,3.7332,0,141,141,118,1,vinger,images/br_vinger.png,images/cb_vinger.png,0,,,,,,,,,,,,,,,,,,,,,,
,,,,,,55888,2023-09-25_13h30.15.518,vbt_B1_day2,2022.2.4,Win32,60.16847172,55888,,,,,,,,,,,,,,,,,,,,,,,,,,,down,0,1.3028,,0.398148148,-0.093518504,1,0,0,3.0495,0,142,142,109,1,totaal,images/br_totaal.png,images/cb_totaal.png,0,,,,,,,,,,,,,,,,,,,,,,
,,,,,,55888,2023-09-25_13h30.15.518,vbt_B1_day2,2022.2.4,Win32,60.16847172,55888,,,,,,,,,,,,,,,,,,,,,,,,,,,down,0,6.3217,,0.296296296,-0.017592607,1,0,0,2.1498,0,143,143,32,1,palm,images/br_palm.png,images/cb_palm.png,0,,,,,,,,,,,,,,,,,,,,,,
,,,,,,55888,2023-09-25_13h30.15.518,vbt_B1_day2,2022.2.4,Win32,60.16847172,55888,,,,,,,,,,,,,,,,,,,,,,,,,,,down,0,2.3349,,0.308333362,-0.059259273,1,0,0,1.4999,0,144,144,97,1,loyaal,images/br_loyaal.png,images/cb_loyaal.png,1,loyaal,,,,,,,,,,,,,,,,,,,,,
,,,,,,55888,2023-09-25_13h30.15.518,vbt_B1_day2,2022.2.4,Win32,60.16847172,55888,,,,,,,,,,,,,,,,,,,,,,,,,,,down,0,1.8186,,0.293518561,-0.09629631,1,0,0,1.6662,0,145,145,55,1,praat,images/br_praat.png,images/cb_praat.png,0,,,,,,,,,,,,,,,,,,,,,,
,,,,,,55888,2023-09-25_13h30.15.518,vbt_B1_day2,2022.2.4,Win32,60.16847172,55888,,,,,,,,,,,,,,,,,,,,,,,,,,,down,0,3.3604,,0.287962949,-0.087037051,1,0,0,1.8173,0,146,146,156,1,rechten,images/br_rechten.png,images/cb_rechten.png,0,,,,,,,,,,,,,,,,,,,,,,
,,,,,,55888,2023-09-25_13h30.15.518,vbt_B1_day2,2022.2.4,Win32,60.16847172,55888,,,,,,,,,,,,,,,,,,,,,,,,,,,down,0,3.8737,,0.243518547,-0.127777806,1,0,0,1.5506,0,147,147,24,1,jurk,images/br_jurk.png,images/cb_jurk.png,0,,,,,,,,,,,,,,,,,,,,,,
,,,,,,55888,2023-09-25_13h30.15.518,vbt_B1_day2,2022.2.4,Win32,60.16847172,55888,,,,,,,,,,,,,,,,,,,,,,,,,,,down,0,3.4576,,0.32685188,-0.090740734,1,0,0,1.7838,0,148,148,152,1,afnemen,images/br_afnemen.png,images/cb_afnemen.png,0,,,,,,,,,,,,,,,,,,,,,,
,,,,,,55888,2023-09-25_13h30.15.518,vbt_B1_day2,2022.2.4,Win32,60.16847172,55888,,,,,,,,,,,,,,,,,,,,,,,,,,,down,0,3.0516,,0.25462963,-0.101851852,1,0,0,2.1994,0,149,149,79,1,nodig,images/br_nodig.png,images/cb_nodig.png,0,,,,,,,,,,,,,,,,,,,,,,
,,,,,,55888,2023-09-25_13h30.15.518,vbt_B1_day2,2022.2.4,Win32,60.16847172,55888,,,,,,,,,,,,,,,,,,,,,,,,,,,down,0,5.0679,,0.381481453,-0.090740734,1,0,0,3.3323,0,150,150,173,1,apparaat,images/br_apparaat.png,images/cb_apparaat.png,0,,,,,,,,,,,,,,,,,,,,,,
,,,,,,55888,2023-09-25_13h30.15.518,vbt_B1_day2,2022.2.4,Win32,60.16847172,55888,,,,,,,,,,,,,,,,,,,,,,,,,,,down,0,4.3888,,0.309259344,-0.025000007,1,0,0,1.5827,0,151,151,107,1,maling,images/br_maling.png,images/cb_maling.png,0,,,,,,,,,,,,,,,,,,,,,,
,,,,,,55888,2023-09-25_13h30.15.518,vbt_B1_day2,2022.2.4,Win32,60.16847172,55888,,,,,,,,,,,,,,,,,,,,,,,,,,,down,0,6.0021,,0.363888917,-0.045370384,1,0,0,2.1991,0,152,152,157,1,uitlaat,images/br_uitlaat.png,images/cb_uitlaat.png,0,,,,,,,,,,,,,,,,,,,,,,
,,,,,,55888,2023-09-25_13h30.15.518,vbt_B1_day2,2022.2.4,Win32,60.16847172,55888,,,,,,,,,,,,,,,,,,,,,,,,,,,down,0,1.2601,,0.264814801,-0.107407393,1,0,0,2.3335,0,153,153,49,1,laken,images/br_laken.png,images/cb_laken.png,0,,,,,,,,,,,,,,,,,,,,,,
,,,,,,55888,2023-09-25_13h30.15.518,vbt_B1_day2,2022.2.4,Win32,60.16847172,55888,,,,,,,,,,,,,,,,,,,,,,,,,,,down,0,0.7509,,0.474074046,-0.008333347,1,0,0,4.3828,0,154,154,84,1,lokken,images/br_lokken.png,images/cb_lokken.png,0,,,,,,,,,,,,,,,,,,,,,,
,,,,,,55888,2023-09-25_13h30.15.518,vbt_B1_day2,2022.2.4,Win32,60.16847172,55888,,,,,,,,,,,,,,,,,,,,,,,,,,,down,0,2.37,,0.378703788,0.013888889,1,0,0,3.3825,0,155,155,44,1,flits,images/br_flits.png,images/cb_flits.png,0,,,,,,,,,,,,,,,,,,,,,,
,,,,,,55888,2023-09-25_13h30.15.518,vbt_B1_day2,2022.2.4,Win32,60.16847172,55888,,,,,,,,,,,,,,,,,,,,,,,,,,,down,0,4.4279,,0.41851849,-0.038888896,1,0,0,1.4499,0,156,156,167,1,eenhoorn,images/br_eenhoorn.png,images/cb_eenhoorn.png,0,,,,,,,,,,,,,,,,,,,,,,
,,,,,,55888,2023-09-25_13h30.15.518,vbt_B1_day2,2022.2.4,Win32,60.16847172,55888,,,,,,,,,,,,,,,,,,,,,,,,,,,down,0,3.8077,,0.288888931,-0.008333347,1,0,0,2.2841,0,157,157,71,1,bever,images/br_bever.png,images/cb_bever.png,0,,,,,,,,,,,,,,,,,,,,,,
,,,,,,55888,2023-09-25_13h30.15.518,vbt_B1_day2,2022.2.4,Win32,60.16847172,55888,,,,,,,,,,,,,,,,,,,,,,,,,,,down,0,3.084,,0.315740797,0.033333319,1,0,0,1.7498,0,158,158,15,1,soda,images/br_soda.png,images/cb_soda.png,0,,,,,,,,,,,,,,,,,,,,,,
,,,,,,55888,2023-09-25_13h30.15.518,vbt_B1_day2,2022.2.4,Win32,60.16847172,55888,,,,,,,,,,,,,,,,,,,,,,,,,,,down,0,3.1528,,0.491666723,0.000925912,1,0,0,2.7225,0,159,159,100,1,geduld,images/br_geduld.png,images/cb_geduld.png,0,,,,,,,,,,,,,,,,,,,,,,
,,,,,,55888,2023-09-25_13h30.15.518,vbt_B1_day2,2022.2.4,Win32,60.16847172,55888,,,,,,,,,,,,,,,,,,,,,,,,,,,down,0,4.6,,0.406481566,0.009259259,1,0,0,2.0756,0,160,160,135,1,gedicht,images/br_gedicht.png,images/cb_gedicht.png,0,,,,,,,,,,,,,,,,,,,,,,
,,,,,,55888,2023-09-25_13h30.15.518,vbt_B1_day2,2022.2.4,Win32,60.16847172,55888,,,,,,,,,,,,,,,,,,,,,,,,,,,down,0,3.0532,,0.337037122,0.03611109,1,0,0,1.4671,0,161,161,41,1,maken,images/br_maken.png,images/cb_maken.png,0,,,,,,,,,,,,,,,,,,,,,,
,,,,,,55888,2023-09-25_13h30.15.518,vbt_B1_day2,2022.2.4,Win32,60.16847172,55888,,,,,,,,,,,,,,,,,,,,,,,,,,,down,0,2.0526,,0.437962991,-0.095370399,1,0,0,1.6005,0,162,162,83,1,mening,images/br_mening.png,images/cb_mening.png,0,,,,,,,,,,,,,,,,,,,,,,
,,,,,,55888,2023-09-25_13h30.15.518,vbt_B1_day2,2022.2.4,Win32,60.16847172,55888,,,,,,,,,,,,,,,,,,,,,,,,,,,down,0,3.6772,,0.377777806,-0.203703704,1,0,0,1.0831,0,163,163,162,1,uitdelen,images/br_uitdelen.png,images/cb_uitdelen.png,0,,,,,,,,,,,,,,,,,,,,,,
,,,,,,55888,2023-09-25_13h30.15.518,vbt_B1_day2,2022.2.4,Win32,60.16847172,55888,,,,,,,,,,,,,,,,,,,,,,,,,,,down,0,1.23,,0.296296296,-0.062037044,1,0,0,3.0164,0,164,164,27,1,dans,images/br_dans.png,images/cb_dans.png,0,,,,,,,,,,,,,,,,,,,,,,
,,,,,,55888,2023-09-25_13h30.15.518,vbt_B1_day2,2022.2.4,Win32,60.16847172,55888,,,,,,,,,,,,,,,,,,,,,,,,,,,down,0,2.6942,,0.397222307,-0.113888917,1,0,0,2.2493,0,165,165,73,1,volop,images/br_volop.png,images/cb_volop.png,0,,,,,,,,,,,,,,,,,,,,,,
,,,,,,55888,2023-09-25_13h30.15.518,vbt_B1_day2,2022.2.4,Win32,60.16847172,55888,,,,,,,,,,,,,,,,,,,,,,,,,,,down,0,2.4008,,0.32222225,-0.070370392,1,0,0,1.9241,0,166,166,51,1,samen,images/br_samen.png,images/cb_samen.png,0,,,,,,,,,,,,,,,,,,,,,,
,,,,,,55888,2023-09-25_13h30.15.518,vbt_B1_day2,2022.2.4,Win32,60.16847172,55888,,,,,,,,,,,,,,,,,,,,,,,,,,,down,0,2.8356,,0.411111196,-0.051851873,1,0,0,1.283,0,167,167,19,1,geit,images/br_geit.png,images/cb_geit.png,1,geit,,,,,,,,,,,,,,,,,,,,,
,,,,,,55888,2023-09-25_13h30.15.518,vbt_B1_day2,2022.2.4,Win32,60.16847172,55888,,,,,,,,,,,,,,,,,,,,,,,,,,,down,0,3.1027,,0.3648149,-0.010185206,1,0,0,1.3886,0,168,168,106,1,zingen,images/br_zingen.png,images/cb_zingen.png,0,,,,,,,,,,,,,,,,,,,,,,
,,,,,,55888,2023-09-25_13h30.15.518,vbt_B1_day2,2022.2.4,Win32,60.16847172,55888,,,,,,,,,,,,,,,,,,,,,,,,,,,down,0,0.2894,,0.310185185,-0.054629644,1,0,0,1.5838,0,169,169,39,1,laag,images/br_laag.png,images/cb_laag.png,0,,,,,,,,,,,,,,,,,,,,,,
,,,,,,55888,2023-09-25_13h30.15.518,vbt_B1_day2,2022.2.4,Win32,60.16847172,55888,,,,,,,,,,,,,,,,,,,,,,,,,,,down,0,1.8602,,0.553703732,-0.077777792,1,0,0,2.4997,0,170,170,188,1,strekken,images/br_strekken.png,images/cb_strekken.png,0,,,,,,,,,,,,,,,,,,,,,,
,,,,,,55888,2023-09-25_13h30.15.518,vbt_B1_day2,2022.2.4,Win32,60.16847172,55888,,,,,,,,,,,,,,,,,,,,,,,,,,,down,0,2.2064,,0.236111111,-0.050925926,1,0,0,1.9173,0,171,171,4,1,moes,images/br_moes.png,images/cb_moes.png,0,,,,,,,,,,,,,,,,,,,,,,
,,,,,,55888,2023-09-25_13h30.15.518,vbt_B1_day2,2022.2.4,Win32,60.16847172,55888,,,,,,,,,,,,,,,,,,,,,,,,,,,down,0,6.8175,,0.319444444,-0.117592635,1,0,0,1.5228,0,172,172,136,1,waarbij,images/br_waarbij.png,images/cb_waarbij.png,1,waarbij,,,,,,,,,,,,,,,,,,,,,
,,,,,,55888,2023-09-25_13h30.15.518,vbt_B1_day2,2022.2.4,Win32,60.16847172,55888,,,,,,,,,,,,,,,,,,,,,,,,,,,down,0,7.7795,,0.349074046,-0.15370369,1,0,0,1.7486,0,173,173,178,1,huisdier,images/br_huisdier.png,images/cb_huisdier.png,1,huisdier,,,,,,,,,,,,,,,,,,,,,
,,,,,,55888,2023-09-25_13h30.15.518,vbt_B1_day2,2022.2.4,Win32,60.16847172,55888,,,,,,,,,,,,,,,,,,,,,,,,,,,down,0,4.6156,,0.404629601,-0.073148162,1,0,0,1.0324,0,174,174,181,1,toegeven,images/br_toegeven.png,images/cb_toegeven.png,0,,,,,,,,,,,,,,,,,,,,,,
,,,,,,55888,2023-09-25_13h30.15.518,vbt_B1_day2,2022.2.4,Win32,60.16847172,55888,,,,,,,,,,,,,,,,,,,,,,,,,,,down,0,1.6659,,0.414814843,-0.022222236,1,0,0,1.6323,0,175,175,72,1,strak,images/br_strak.png,images/cb_strak.png,0,,,,,,,,,,,,,,,,,,,,,,
,,,,,,55888,2023-09-25_13h30.15.518,vbt_B1_day2,2022.2.4,Win32,60.16847172,55888,,,,,,,,,,,,,,,,,,,,,,,,,,,down,0,6.459,,0.410185213,-0.042592614,1,0,0,3.0173,0,176,176,179,1,woestijn,images/br_woestijn.png,images/cb_woestijn.png,1,woestijn,,,,,,,,,,,,,,,,,,,,,
,,,,,,55888,2023-09-25_13h30.15.518,vbt_B1_day2,2022.2.4,Win32,60.16847172,55888,,,,,,,,,,,,,,,,,,,,,,,,,,,down,0,6.2424,,0.459259316,-0.137962977,1,0,0,1.4999,0,177,177,191,1,opheffen,images/br_opheffen.png,images/cb_opheffen.png,0,,,,,,,,,,,,,,,,,,,,,,
,,,,,,55888,2023-09-25_13h30.15.518,vbt_B1_day2,2022.2.4,Win32,60.16847172,55888,,,,,,,,,,,,,,,,,,,,,,,,,,,down,0,1.623,,0.40370376,-0.071296303,1,0,0,1.8176,0,178,178,126,1,kasteel,images/br_kasteel.png,images/cb_kasteel.png,0,,,,,,,,,,,,,,,,,,,,,,
,,,,,,55888,2023-09-25_13h30.15.518,vbt_B1_day2,2022.2.4,Win32,60.16847172,55888,,,,,,,,,,,,,,,,,,,,,,,,,,,down,0,1.6186,,0.286111125,-0.092592593,1,0,0,2.3322,0,179,179,38,1,baai,images/br_baai.png,images/cb_baai.png,0,,,,,,,,,,,,,,,,,,,,,,
,,,,,,55888,2023-09-25_13h30.15.518,vbt_B1_day2,2022.2.4,Win32,60.16847172,55888,,,,,,,,,,,,,,,,,,,,,,,,,,,down,0,8.1575,,0.289814843,-0.122222265,1,0,0,1.9838,0,180,180,194,1,driemaal,images/br_driemaal.png,images/cb_driemaal.png,0,,,,,,,,,,,,,,,,,,,,,,
,,,,,,55888,2023-09-25_13h30.15.518,vbt_B1_day2,2022.2.4,Win32,60.16847172,55888,,,,,,,,,,,,,,,,,,,,,,,,,,,down,0,3.9641,,0.237037023,-0.146296325,1,0,0,1.6327,0,181,181,63,1,flirt,images/br_flirt.png,images/cb_flirt.png,0,,,,,,,,,,,,,,,,,,,,,,
,,,,,,55888,2023-09-25_13h30.15.518,vbt_B1_day2,2022.2.4,Win32,60.16847172,55888,,,,,,,,,,,,,,,,,,,,,,,,,,,down,0,3.7036,,0.204629616,-0.165740755,1,0,0,3.4665,0,182,182,134,1,geliefd,images/br_geliefd.png,images/cb_geliefd.png,0,,,,,,,,,,,,,,,,,,,,,,
,,,,,,55888,2023-09-25_13h30.15.518,vbt_B1_day2,2022.2.4,Win32,60.16847172,55888,,,,,,,,,,,,,,,,,,,,,,,,,,,down,0,4.0579,,0.366666723,-0.12037037,1,0,0,1.567,0,183,183,195,1,middelen,images/br_middelen.png,images/cb_middelen.png,0,,,,,,,,,,,,,,,,,,,,,,
,,,,,,55888,2023-09-25_13h30.15.518,vbt_B1_day2,2022.2.4,Win32,60.16847172,55888,,,,,,,,,,,,,,,,,,,,,,,,,,,down,0,2.1073,,0.378703788,-0.121296282,1,0,0,3.2989,0,184,184,6,1,diep,images/br_diep.png,images/cb_diep.png,0,,,,,,,,,,,,,,,,,,,,,,
,,,,,,55888,2023-09-25_13h30.15.518,vbt_B1_day2,2022.2.4,Win32,60.16847172,55888,,,,,,,,,,,,,,,,,,,,,,,,,,,down,0,1.7182,,0.284259302,-0.14907406,1,0,0,3.868,0,185,185,74,1,graaf,images/br_graaf.png,images/cb_graaf.png,0,,,,,,,,,,,,,,,,,,,,,,
,,,,,,55888,2023-09-25_13h30.15.518,vbt_B1_day2,2022.2.4,Win32,60.16847172,55888,,,,,,,,,,,,,,,,,,,,,,,,,,,down,0,1.624,,0.066666709,-0.147222236,1,0,0,1.9664,0,186,186,114,1,vullen,images/br_vullen.png,images/cb_vullen.png,0,,,,,,,,,,,,,,,,,,,,,,
,,,,,,55888,2023-09-25_13h30.15.518,vbt_B1_day2,2022.2.4,Win32,60.16847172,55888,,,,,,,,,,,,,,,,,,,,,,,,,,,down,0,3.8208,,0.287962949,-0.037962984,1,0,0,1.2992,0,187,187,129,1,verhaal,images/br_verhaal.png,images/cb_verhaal.png,0,,,,,,,,,,,,,,,,,,,,,,
,,,,,,55888,2023-09-25_13h30.15.518,vbt_B1_day2,2022.2.4,Win32,60.16847172,55888,,,,,,,,,,,,,,,,,,,,,,,,,,,down,0,3.4204,,0.287962949,-0.037962984,1,0,0,1.1332,0,188,188,91,1,gezond,images/br_gezond.png,images/cb_gezond.png,0,,,,,,,,,,,,,,,,,,,,,,
,,,,,,55888,2023-09-25_13h30.15.518,vbt_B1_day2,2022.2.4,Win32,60.16847172,55888,,,,,,,,,,,,,,,,,,,,,,,,,,,down,0,6.555,,0.287962949,-0.037962984,1,0,0,0.7661,0,189,189,196,1,nakijken,images/br_nakijken.png,images/cb_nakijken.png,0,,,,,,,,,,,,,,,,,,,,,,
,,,,,,55888,2023-09-25_13h30.15.518,vbt_B1_day2,2022.2.4,Win32,60.16847172,55888,,,,,,,,,,,,,,,,,,,,,,,,,,,down,0,2.2528,,0.287962949,-0.037962984,1,0,0,0.6499,0,190,190,121,1,twijfel,images/br_twijfel.png,images/cb_twijfel.png,0,,,,,,,,,,,,,,,,,,,,,,
,,,,,,55888,2023-09-25_13h30.15.518,vbt_B1_day2,2022.2.4,Win32,60.16847172,55888,,,,,,,,,,,,,,,,,,,,,,,,,,,down,0,7.0027,,0.287962949,-0.037962984,1,0,0,1.0826,0,191,191,116,1,besmet,images/br_besmet.png,images/cb_besmet.png,0,,,,,,,,,,,,,,,,,,,,,,
,,,,,,55888,2023-09-25_13h30.15.518,vbt_B1_day2,2022.2.4,Win32,60.16847172,55888,,,,,,,,,,,,,,,,,,,,,,,,,,,down,0,0.6379,,0.287962949,-0.037962984,1,0,0,0.9168,0,192,192,25,1,plek,images/br_plek.png,images/cb_plek.png,0,,,,,,,,,,,,,,,,,,,,,,
,,,,,,55888,2023-09-25_13h30.15.518,vbt_B1_day2,2022.2.4,Win32,60.16847172,55888,,,,,,,,,,,,,,,,,,,,,,,,,,,down,0,1.5727,,0.287962949,-0.037962984,1,0,0,3.4491,0,193,193,87,1,toeval,images/br_toeval.png,images/cb_toeval.png,0,,,,,,,,,,,,,,,,,,,,,,
,,,,,,55888,2023-09-25_13h30.15.518,vbt_B1_day2,2022.2.4,Win32,60.16847172,55888,,,,,,,,,,,,,,,,,,,,,,,,,,,down,0,2.025,,0.287962949,-0.037962984,1,0,0,1.5663,0,194,194,65,1,parel,images/br_parel.png,images/cb_parel.png,0,,,,,,,,,,,,,,,,,,,,,,
,,,,,,55888,2023-09-25_13h30.15.518,vbt_B1_day2,2022.2.4,Win32,60.16847172,55888,,,,,,,,,,,,,,,,,,,,,,,,,,,down,0,2.4191,,0.287962949,-0.037962984,1,0,0,1.9745,0,195,195,90,1,geluid,images/br_geluid.png,images/cb_geluid.png,0,,,,,,,,,,,,,,,,,,,,,,
,,,,,,55888,2023-09-25_13h30.15.518,vbt_B1_day2,2022.2.4,Win32,60.16847172,55888,,,,,,,,,,,,,,,,,,,,,,,,,,,down,0,3.2686,,0.287962949,-0.037962984,1,0,0,1.1496,0,196,196,128,1,prikken,images/br_prikken.png,images/cb_prikken.png,0,,,,,,,,,,,,,,,,,,,,,,
,,,,,,55888,2023-09-25_13h30.15.518,vbt_B1_day2,2022.2.4,Win32,60.16847172,55888,,,,,,,,,,,,,,,,,,,,,,,,,,,down,0,1.2085,,0.287962949,-0.037962984,1,0,0,2.8169,0,197,197,102,1,legaal,images/br_legaal.png,images/cb_legaal.png,0,,,,,,,,,,,,,,,,,,,,,,
,,,,,,55888,2023-09-25_13h30.15.518,vbt_B1_day2,2022.2.4,Win32,60.16847172,55888,,,,,,,,,,,,,,,,,,,,,,,,,,,down,0,3.5195,,0.287962949,-0.037962984,1,0,0,1.2499,0,198,198,98,1,kreeft,images/br_kreeft.png,images/cb_kreeft.png,1,kreeft,,,,,,,,,,,,,,,,,,,,,
,,,,,,55888,2023-09-25_13h30.15.518,vbt_B1_day2,2022.2.4,Win32,60.16847172,55888,,,,,,,,,,,,,,,,,,,,,,,,,,,down,0,1.5899,,0.287962949,-0.037962984,1,0,0,1.0163,0,199,199,53,1,baron,images/br_baron.png,images/cb_baron.png,0,,,,,,,,,,,,,,,,,,,,,,
,,,,,,55888,2023-09-25_13h30.15.518,vbt_B1_day2,2022.2.4,Win32,60.16847172,55888,,,,,,,,,,,,,,,,,,,,,,,,,,,,,,,,,,,,,,,,,,,,,,,0.33148151,-0.110185199,1,0,0,,,,,,,,,,,,,,,,
,,,,,,55888,2023-09-25_13h30.15.518,vbt_B1_day2,2022.2.4,Win32,60.16847172,55888,,,,,,,,,,,,,,,,,,,,,,,,,,,,,,,,,,,,,,,,,,,,,,,,,,,,0.40370376,-0.048148155,1,0,0,,,,,,,,,,,
,,,,,,55888,2023-09-25_13h30.15.518,vbt_B1_day2,2022.2.4,Win32,60.16847172,55888,,,,,,,,,,,,,,,,,,,,,,,,,,,,,,,,,,,,,,,,,,lijnen,images/br_lijnen.png,images/cb_lijnen.png,,lijnen,,,,,,,,,,,0.200925968,0.11296297,1,0,0,lijnen,0,0,0,51,1
,,,,,,55888,2023-09-25_13h30.15.518,vbt_B1_day2,2022.2.4,Win32,60.16847172,55888,,,,,,,,,,,,,,,,,,,,,,,,,,,,,,,,,,,,,,,,,,systeem,images/br_systeem.png,images/cb_systeem.png,,systeem,,,,,,,,,,,0.562037009,-0.021296289,1,0,0,systeem,0,1,1,54,1
,,,,,,55888,2023-09-25_13h30.15.518,vbt_B1_day2,2022.2.4,Win32,60.16847172,55888,,,,,,,,,,,,,,,,,,,,,,,,,,,,,,,,,,,,,,,,,,agressie,images/br_agressie.png,images/cb_agressie.png,,agressie,,,,,,,,,,,0.376851824,0.009259259,1,0,0,agressie,0,2,2,59,1
,,,,,,55888,2023-09-25_13h30.15.518,vbt_B1_day2,2022.2.4,Win32,60.16847172,55888,,,,,,,,,,,,,,,,,,,,,,,,,,,,,,,,,,,,,,,,,,wijve,images/br_wijve.png,images/cb_wijve.png,,wijve,,,,,,,,,,,0.340740769,-0.022222236,1,0,0,wijve,0,3,3,27,1
,,,,,,55888,2023-09-25_13h30.15.518,vbt_B1_day2,2022.2.4,Win32,60.16847172,55888,,,,,,,,,,,,,,,,,,,,,,,,,,,,,,,,,,,,,,,,,,toeval,images/br_toeval.png,images/cb_toeval.png,,toeval,,,,,,,,,,,0.304629714,-0.003703718,1,0,0,toeval,0,4,4,11,1
,,,,,,55888,2023-09-25_13h30.15.518,vbt_B1_day2,2022.2.4,Win32,60.16847172,55888,,,,,,,,,,,,,,,,,,,,,,,,,,,,,,,,,,,,,,,,,,doodmoe,images/br_doodmoe.png,images/cb_doodmoe.png,,doodmoe,,,,,,,,,,,0.353703675,0.050925926,1,0,0,doodmoe,0,5,5,15,1
,,,,,,55888,2023-09-25_13h30.15.518,vbt_B1_day2,2022.2.4,Win32,60.16847172,55888,,,,,,,,,,,,,,,,,,,,,,,,,,,,,,,,,,,,,,,,,,krimmen,images/br_krimmen.png,images/cb_krimmen.png,,krimmen,,,,,,,,,,,0.410185213,0.059259238,1,0,0,krimmen,0,6,6,35,1
,,,,,,55888,2023-09-25_13h30.15.518,vbt_B1_day2,2022.2.4,Win32,60.16847172,55888,,,,,,,,,,,,,,,,,,,,,,,,,,,,,,,,,,,,,,,,,,breuk,images/br_breuk.png,images/cb_breuk.png,,breuk,,,,,,,,,,,0.335185157,0.126851859,1,0,0,breuk,0,7,7,45,1
,,,,,,55888,2023-09-25_13h30.15.518,vbt_B1_day2,2022.2.4,Win32,60.16847172,55888,,,,,,,,,,,,,,,,,,,,,,,,,,,,,,,,,,,,,,,,,,kasteel,images/br_kasteel.png,images/cb_kasteel.png,,kasteel,,,,,,,,,,,0.440740797,-0.025925919,1,0,0,kasteel,0,8,8,14,1
,,,,,,55888,2023-09-25_13h30.15.518,vbt_B1_day2,2022.2.4,Win32,60.16847172,55888,,,,,,,,,,,,,,,,,,,,,,,,,,,,,,,,,,,,,,,,,,bereuwen,images/br_bereuwen.png,images/cb_bereuwen.png,,bereuwen,,,,,,,,,,,0.391666695,0.134259259,1,0,0,bereuwen,0,9,9,39,1
,,,,,,55888,2023-09-25_13h30.15.518,vbt_B1_day2,2022.2.4,Win32,60.16847172,55888,,,,,,,,,,,,,,,,,,,,,,,,,,,,,,,,,,,,,,,,,,eenhoorn,images/br_eenhoorn.png,images/cb_eenhoorn.png,,eenhoorn,,,,,,,,,,,0.248148176,0.118518511,1,0,0,eenhoorn,0,10,10,19,1
,,,,,,55888,2023-09-25_13h30.15.518,vbt_B1_day2,2022.2.4,Win32,60.16847172,55888,,,,,,,,,,,,,,,,,,,,,,,,,,,,,,,,,,,,,,,,,,woning,images/br_woning.png,images/cb_woning.png,,woning,,,,,,,,,,,0.455555527,-0.036111125,1,0,0,woning,0,11,11,10,1
,,,,,,55888,2023-09-25_13h30.15.518,vbt_B1_day2,2022.2.4,Win32,60.16847172,55888,,,,,,,,,,,,,,,,,,,,,,,,,,,,,,,,,,,,,,,,,,trots,images/br_trots.png,images/cb_trots.png,,trots,,,,,,,,,,,0.424074102,-0.104629658,1,0,0,trots,0,12,12,44,1
,,,,,,55888,2023-09-25_13h30.15.518,vbt_B1_day2,2022.2.4,Win32,60.16847172,55888,,,,,,,,,,,,,,,,,,,,,,,,,,,,,,,,,,,,,,,,,,goon,images/br_goon.png,images/cb_goon.png,,goon,,,,,,,,,,,0.286111125,-0.041666667,1,0,0,goon,0,13,13,23,1
,,,,,,55888,2023-09-25_13h30.15.518,vbt_B1_day2,2022.2.4,Win32,60.16847172,55888,,,,,,,,,,,,,,,,,,,,,,,,,,,,,,,,,,,,,,,,,,zegel,images/br_zegel.png,images/cb_zegel.png,,zegel,,,,,,,,,,,0.357407464,0.035185178,1,0,0,zegel,0,14,14,46,1
,,,,,,55888,2023-09-25_13h30.15.518,vbt_B1_day2,2022.2.4,Win32,60.16847172,55888,,,,,,,,,,,,,,,,,,,,,,,,,,,,,,,,,,,,,,,,,,lurgen,images/br_lurgen.png,images/cb_lurgen.png,,lurgen,,,,,,,,,,,0.332407492,-0.064814815,1,0,0,lurgen,0,15,15,29,1
,,,,,,55888,2023-09-25_13h30.15.518,vbt_B1_day2,2022.2.4,Win32,60.16847172,55888,,,,,,,,,,,,,,,,,,,,,,,,,,,,,,,,,,,,,,,,,,joes,images/br_joes.png,images/cb_joes.png,,joes,,,,,,,,,,,0.367592564,0.018518519,1,0,0,joes,0,16,16,20,1
,,,,,,55888,2023-09-25_13h30.15.518,vbt_B1_day2,2022.2.4,Win32,60.16847172,55888,,,,,,,,,,,,,,,,,,,,,,,,,,,,,,,,,,,,,,,,,,dode,images/br_dode.png,images/cb_dode.png,,dode,,,,,,,,,,,0.311111168,0.030555548,1,0,0,dode,0,17,17,41,1
,,,,,,55888,2023-09-25_13h30.15.518,vbt_B1_day2,2022.2.4,Win32,60.16847172,55888,,,,,,,,,,,,,,,,,,,,,,,,,,,,,,,,,,,,,,,,,,diep,images/br_diep.png,images/cb_diep.png,,diep,,,,,,,,,,,0.389814871,0.214814804,1,0,0,diep,0,18,18,2,1
,,,,,,55888,2023-09-25_13h30.15.518,vbt_B1_day2,2022.2.4,Win32,60.16847172,55888,,,,,,,,,,,,,,,,,,,,,,,,,,,,,,,,,,,,,,,,,,negel,images/br_negel.png,images/cb_negel.png,,negel,,,,,,,,,,,0.308333362,0.02870369,1,0,0,negel,0,19,19,24,1
,,,,,,55888,2023-09-25_13h30.15.518,vbt_B1_day2,2022.2.4,Win32,60.16847172,55888,,,,,,,,,,,,,,,,,,,,,,,,,,,,,,,,,,,,,,,,,,piste,images/br_piste.png,images/cb_piste.png,,piste,,,,,,,,,,,0.518518519,-0.012962977,1,0,0,piste,0,20,20,5,1
,,,,,,55888,2023-09-25_13h30.15.518,vbt_B1_day2,2022.2.4,Win32,60.16847172,55888,,,,,,,,,,,,,,,,,,,,,,,,,,,,,,,,,,,,,,,,,,plannen,images/br_plannen.png,images/cb_plannen.png,,plannen,,,,,,,,,,,0.436111168,0.023148148,1,0,0,plannen,0,21,21,55,1
,,,,,,55888,2023-09-25_13h30.15.518,vbt_B1_day2,2022.2.4,Win32,60.16847172,55888,,,,,,,,,,,,,,,,,,,,,,,,,,,,,,,,,,,,,,,,,,kijlen,images/br_kijlen.png,images/cb_kijlen.png,,kijlen,,,,,,,,,,,0.391666695,-0.08888891,1,0,0,kijlen,0,22,22,31,1
,,,,,,55888,2023-09-25_13h30.15.518,vbt_B1_day2,2022.2.4,Win32,60.16847172,55888,,,,,,,,,,,,,,,,,,,,,,,,,,,,,,,,,,,,,,,,,,manieren,images/br_manieren.png,images/cb_manieren.png,,manieren,,,,,,,,,,,0.384259259,-0.044444437,1,0,0,manieren,0,23,23,56,1
,,,,,,55888,2023-09-25_13h30.15.518,vbt_B1_day2,2022.2.4,Win32,60.16847172,55888,,,,,,,,,,,,,,,,,,,,,,,,,,,,,,,,,,,,,,,,,,badon,images/br_badon.png,images/cb_badon.png,,badon,,,,,,,,,,,0.250925912,-0.071296303,1,0,0,badon,0,24,24,26,1
,,,,,,55888,2023-09-25_13h30.15.518,vbt_B1_day2,2022.2.4,Win32,60.16847172,55888,,,,,,,,,,,,,,,,,,,,,,,,,,,,,,,,,,,,,,,,,,geld,images/br_geld.png,images/cb_geld.png,,geld,,,,,,,,,,,0.376851824,-0.073148162,1,0,0,geld,0,25,25,3,1
,,,,,,55888,2023-09-25_13h30.15.518,vbt_B1_day2,2022.2.4,Win32,60.16847172,55888,,,,,,,,,,,,,,,,,,,,,,,,,,,,,,,,,,,,,,,,,,zwager,images/br_zwager.png,images/cb_zwager.png,,zwager,,,,,,,,,,,0.277777778,-0.091666681,1,0,0,zwager,0,26,26,49,1
,,,,,,55888,2023-09-25_13h30.15.518,vbt_B1_day2,2022.2.4,Win32,60.16847172,55888,,,,,,,,,,,,,,,,,,,,,,,,,,,,,,,,,,,,,,,,,,prekken,images/br_prekken.png,images/cb_prekken.png,,prekken,,,,,,,,,,,0.443518603,-0.076851845,1,0,0,prekken,0,27,27,34,1
,,,,,,55888,2023-09-25_13h30.15.518,vbt_B1_day2,2022.2.4,Win32,60.16847172,55888,,,,,,,,,,,,,,,,,,,,,,,,,,,,,,,,,,,,,,,,,,sora,images/br_sora.png,images/cb_sora.png,,sora,,,,,,,,,,,0.366666723,-0.085185192,1,0,0,sora,0,28,28,22,1
,,,,,,55888,2023-09-25_13h30.15.518,vbt_B1_day2,2022.2.4,Win32,60.16847172,55888,,,,,,,,,,,,,,,,,,,,,,,,,,,,,,,,,,,,,,,,,,ningen,images/br_ningen.png,images/cb_ningen.png,,ningen,,,,,,,,,,,0.296296296,-0.127777806,1,0,0,ningen,0,29,29,28,1
,,,,,,55888,2023-09-25_13h30.15.518,vbt_B1_day2,2022.2.4,Win32,60.16847172,55888,,,,,,,,,,,,,,,,,,,,,,,,,,,,,,,,,,,,,,,,,,anarchie,images/br_anarchie.png,images/cb_anarchie.png,,anarchie,,,,,,,,,,,0.293518561,-0.008333347,1,0,0,anarchie,0,30,30,16,1
,,,,,,55888,2023-09-25_13h30.15.518,vbt_B1_day2,2022.2.4,Win32,60.16847172,55888,,,,,,,,,,,,,,,,,,,,,,,,,,,,,,,,,,,,,,,,,,sjijfel,images/br_sjijfel.png,images/cb_sjijfel.png,,sji.hjel,,,,,,,,,,,0.297222279,0.0074074,1,0,0,sji.hjel,0,31,31,33,1
,,,,,,55888,2023-09-25_13h30.15.518,vbt_B1_day2,2022.2.4,Win32,60.16847172,55888,,,,,,,,,,,,,,,,,,,,,,,,,,,,,,,,,,,,,,,,,,aanzien,images/br_aanzien.png,images/cb_aanzien.png,,aanzien,,,,,,,,,,,0.348148205,-0.010185206,1,0,0,aanzien,0,32,32,13,1
,,,,,,55888,2023-09-25_13h30.15.518,vbt_B1_day2,2022.2.4,Win32,60.16847172,55888,,,,,,,,,,,,,,,,,,,,,,,,,,,,,,,,,,,,,,,,,,sifferd,images/br_sifferd.png,images/cb_sifferd.png,,sifferd,,,,,,,,,,,0.215740769,0.008333312,1,0,0,sifferd,0,33,33,32,1
,,,,,,55888,2023-09-25_13h30.15.518,vbt_B1_day2,2022.2.4,Win32,60.16847172,55888,,,,,,,,,,,,,,,,,,,,,,,,,,,,,,,,,,,,,,,,,,bloeien,images/br_bloeien.png,images/cb_bloeien.png,,bloeien,,,,,,,,,,,0.337962963,-0.057407414,1,0,0,bloeien,0,34,34,12,1
,,,,,,55888,2023-09-25_13h30.15.518,vbt_B1_day2,2022.2.4,Win32,60.16847172,55888,,,,,,,,,,,,,,,,,,,,,,,,,,,,,,,,,,,,,,,,,,kabel,images/br_kabel.png,images/cb_kabel.png,,kabel,,,,,,,,,,,0.368518547,-0.058333326,1,0,0,kabel,0,35,35,7,1
,,,,,,55888,2023-09-25_13h30.15.518,vbt_B1_day2,2022.2.4,Win32,60.16847172,55888,,,,,,,,,,,,,,,,,,,,,,,,,,,,,,,,,,,,,,,,,,koorts,images/br_koorts.png,images/cb_koorts.png,,koorts,,,,,,,,,,,0.330555527,-0.141666695,1,0,0,koorts,0,36,36,50,1
,,,,,,55888,2023-09-25_13h30.15.518,vbt_B1_day2,2022.2.4,Win32,60.16847172,55888,,,,,,,,,,,,,,,,,,,,,,,,,,,,,,,,,,,,,,,,,,jagen,images/br_jagen.png,images/cb_jagen.png,,jogen,,,,,,,,,,,0.202777792,-0.14444443,1,0,0,jogen,0,37,37,6,1
,,,,,,55888,2023-09-25_13h30.15.518,vbt_B1_day2,2022.2.4,Win32,60.16847172,55888,,,,,,,,,,,,,,,,,,,,,,,,,,,,,,,,,,,,,,,,,,stes,images/br_stes.png,images/cb_stes.png,,stes,,,,,,,,,,,0.255555541,-0.093518504,1,0,0,stes,0,38,38,21,1
,,,,,,55888,2023-09-25_13h30.15.518,vbt_B1_day2,2022.2.4,Win32,60.16847172,55888,,,,,,,,,,,,,,,,,,,,,,,,,,,,,,,,,,,,,,,,,,welzijn,images/br_welzijn.png,images/cb_welzijn.png,,welzijn,,,,,,,,,,,0.42314812,-0.062962956,1,0,0,welzijn,0,39,39,52,1
,,,,,,55888,2023-09-25_13h30.15.518,vbt_B1_day2,2022.2.4,Win32,60.16847172,55888,,,,,,,,,,,,,,,,,,,,,,,,,,,,,,,,,,,,,,,,,,thema,images/br_thema.png,images/cb_thema.png,,thema,,,,,,,,,,,0.280555584,0,1,0,0,thema,0,40,40,47,1
,,,,,,55888,2023-09-25_13h30.15.518,vbt_B1_day2,2022.2.4,Win32,60.16847172,55888,,,,,,,,,,,,,,,,,,,,,,,,,,,,,,,,,,,,,,,,,,tand,images/br_tand.png,images/cb_tand.png,,tand,,,,,,,,,,,0.402777778,-0.024074095,1,0,0,tand,0,41,41,42,1
,,,,,,55888,2023-09-25_13h30.15.518,vbt_B1_day2,2022.2.4,Win32,60.16847172,55888,,,,,,,,,,,,,,,,,,,,,,,,,,,,,,,,,,,,,,,,,,clan,images/br_clan.png,images/cb_clan.png,,clan,,,,,,,,,,,0.411111196,-0.031481496,1,0,0,clan,0,42,42,40,1
,,,,,,55888,2023-09-25_13h30.15.518,vbt_B1_day2,2022.2.4,Win32,60.16847172,55888,,,,,,,,,,,,,,,,,,,,,,,,,,,,,,,,,,,,,,,,,,heengeen,images/br_heengeen.png,images/cb_heengeen.png,,heengeen,,,,,,,,,,,0.305555556,-0.064814815,1,0,0,heengeen,0,43,43,38,1
,,,,,,55888,2023-09-25_13h30.15.518,vbt_B1_day2,2022.2.4,Win32,60.16847172,55888,,,,,,,,,,,,,,,,,,,,,,,,,,,,,,,,,,,,,,,,,,heilig,images/br_heilig.png,images/cb_heilig.png,,heilig,,,,,,,,,,,0.311111168,-0.00462963,1,0,0,heilig,0,44,44,9,1
,,,,,,55888,2023-09-25_13h30.15.518,vbt_B1_day2,2022.2.4,Win32,60.16847172,55888,,,,,,,,,,,,,,,,,,,,,,,,,,,,,,,,,,,,,,,,,,inzicht,images/br_inzicht.png,images/cb_inzicht.png,,inzicht,,,,,,,,,,,0.316666638,-0.061111132,1,0,0,inzicht,0,45,45,53,1
,,,,,,55888,2023-09-25_13h30.15.518,vbt_B1_day2,2022.2.4,Win32,60.16847172,55888,,,,,,,,,,,,,,,,,,,,,,,,,,,,,,,,,,,,,,,,,,flits,images/br_flits.png,images/cb_flits.png,,flits,,,,,,,,,,,0.308333362,-0.102777764,1,0,0,flits,0,46,46,4,1
,,,,,,55888,2023-09-25_13h30.15.518,vbt_B1_day2,2022.2.4,Win32,60.16847172,55888,,,,,,,,,,,,,,,,,,,,,,,,,,,,,,,,,,,,,,,,,,strikken,images/br_strikken.png,images/cb_strikken.png,,strikken,,,,,,,,,,,0.295370384,-0.114814829,1,0,0,strikken,0,47,47,18,1
,,,,,,55888,2023-09-25_13h30.15.518,vbt_B1_day2,2022.2.4,Win32,60.16847172,55888,,,,,,,,,,,,,,,,,,,,,,,,,,,,,,,,,,,,,,,,,,opdatten,images/br_opdatten.png,images/cb_opdatten.png,,opdatten,,,,,,,,,,,0.312962991,-0.013888889,1,0,0,opdatten,0,48,48,37,1
,,,,,,55888,2023-09-25_13h30.15.518,vbt_B1_day2,2022.2.4,Win32,60.16847172,55888,,,,,,,,,,,,,,,,,,,,,,,,,,,,,,,,,,,,,,,,,,kenzis,images/br_kenzis.png,images/cb_kenzis.png,,kenzis,,,,,,,,,,,0.250925912,-0.060185185,1,0,0,kenzis,0,49,49,30,1
,,,,,,55888,2023-09-25_13h30.15.518,vbt_B1_day2,2022.2.4,Win32,60.16847172,55888,,,,,,,,,,,,,,,,,,,,,,,,,,,,,,,,,,,,,,,,,,moes,images/br_moes.png,images/cb_moes.png,,moes,,,,,,,,,,,0.191666709,-0.060185185,1,0,0,moes,0,50,50,0,1
,,,,,,55888,2023-09-25_13h30.15.518,vbt_B1_day2,2022.2.4,Win32,60.16847172,55888,,,,,,,,,,,,,,,,,,,,,,,,,,,,,,,,,,,,,,,,,,ophuimen,images/br_ophuimen.png,images/cb_ophuimen.png,,opheumen,,,,,,,,,,,0.282407407,0.002777771,1,0,0,opheumen,0,51,51,36,1
,,,,,,55888,2023-09-25_13h30.15.518,vbt_B1_day2,2022.2.4,Win32,60.16847172,55888,,,,,,,,,,,,,,,,,,,,,,,,,,,,,,,,,,,,,,,,,,feestdag,images/br_feestdag.png,images/cb_feestdag.png,,feestdag,,,,,,,,,,,0.292592578,-0.01203703,1,0,0,feestdag,0,52,52,17,1
,,,,,,55888,2023-09-25_13h30.15.518,vbt_B1_day2,2022.2.4,Win32,60.16847172,55888,,,,,,,,,,,,,,,,,,,,,,,,,,,,,,,,,,,,,,,,,,blad,images/br_blad.png,images/cb_blad.png,,blad,,,,,,,,,,,0.292592578,-0.012962977,1,0,0,blad,0,53,53,1,1
,,,,,,55888,2023-09-25_13h30.15.518,vbt_B1_day2,2022.2.4,Win32,60.16847172,55888,,,,,,,,,,,,,,,,,,,,,,,,,,,,,,,,,,,,,,,,,,zomers,images/br_zomers.png,images/cb_zomers.png,,zomers,,,,,,,,,,,0.292592578,-0.013888889,1,0,0,zomers,0,54,54,48,1
,,,,,,55888,2023-09-25_13h30.15.518,vbt_B1_day2,2022.2.4,Win32,60.16847172,55888,,,,,,,,,,,,,,,,,,,,,,,,,,,,,,,,,,,,,,,,,,tweeling,images/br_tweeling.png,images/cb_tweeling.png,,tweeling,,,,,,,,,,,0.292592578,-0.014814836,1,0,0,tweeling,0,55,55,58,1
,,,,,,55888,2023-09-25_13h30.15.518,vbt_B1_day2,2022.2.4,Win32,60.16847172,55888,,,,,,,,,,,,,,,,,,,,,,,,,,,,,,,,,,,,,,,,,,aanvraag,images/br_aanvraag.png,images/cb_aanvraag.png,,aanvraag,,,,,,,,,,,0.292592578,-0.015740748,1,0,0,aanvraag,0,56,56,57,1
,,,,,,55888,2023-09-25_13h30.15.518,vbt_B1_day2,2022.2.4,Win32,60.16847172,55888,,,,,,,,,,,,,,,,,,,,,,,,,,,,,,,,,,,,,,,,,,lokken,images/br_lokken.png,images/cb_lokken.png,,lokken,,,,,,,,,,,0.292592578,-0.01666666,1,0,0,lokken,0,57,57,8,1
,,,,,,55888,2023-09-25_13h30.15.518,vbt_B1_day2,2022.2.4,Win32,60.16847172,55888,,,,,,,,,,,,,,,,,,,,,,,,,,,,,,,,,,,,,,,,,,jong,images/br_jong.png,images/cb_jong.png,,jong,,,,,,,,,,,0.292592578,-0.018518519,1,0,0,jong,0,58,58,43,1
,,,,,,55888,2023-09-25_13h30.15.518,vbt_B1_day2,2022.2.4,Win32,60.16847172,55888,,,,,,,,,,,,,,,,,,,,,,,,,,,,,,,,,,,,,,,,,,remel,images/br_remel.png,images/cb_remel.png,,remel,,,,,,,,,,,0.292592578,-0.019444466,1,0,0,remel,0,59,59,25,1
,,,,,,55888,2023-09-25_13h30.15.518,vbt_B1_day2,2022.2.4,Win32,60.16847172,55888,,,,,,,,,,,,,,,,,,,,,,,,,,,,,,,,,,,,,,,,,,,,,,,,,,,,,,,,,,,,,,,,,,,
