welcome_mouse.x,welcome_mouse.y,welcome_mouse.leftButton,welcome_mouse.midButton,welcome_mouse.rightButton,welcome_mouse.time,"ID",date,expName,psychopyVersion,OS,frameRate,refresh_mouse.x,refresh_mouse.y,refresh_mouse.leftButton,refresh_mouse.midButton,refresh_mouse.rightButton,refresh_mouse.time,braille_mouse.x,braille_mouse.y,braille_mouse.leftButton,braille_mouse.midButton,braille_mouse.rightButton,braille_mouse.time,trials.thisRepN,trials.thisTrialN,trials.thisN,trials.thisIndex,trials.ran,nlLet,brLet,cbLet,trainInstr_mouse.x,trainInstr_mouse.y,trainInstr_mouse.leftButton,trainInstr_mouse.midButton,trainInstr_mouse.rightButton,trainInstr_mouse.time,translation_key.keys,translation_key.corr,translation_key.rt,word_rsp.text,word_mouse.x,word_mouse.y,word_mouse.leftButton,word_mouse.midButton,word_mouse.rightButton,word_mouse.time,train_loop.thisRepN,train_loop.thisTrialN,train_loop.thisN,train_loop.thisIndex,train_loop.ran,nlWrd,brWrd,cbWrd,test,testResp,mouse.x,mouse.y,mouse.leftButton,mouse.midButton,mouse.rightButton,testInstr_mouse.x,testInstr_mouse.y,testInstr_mouse.leftButton,testInstr_mouse.midButton,testInstr_mouse.rightButton,test_mouse.x,test_mouse.y,test_mouse.leftButton,test_mouse.midButton,test_mouse.rightButton,test_response.text,test_loop.thisRepN,test_loop.thisTrialN,test_loop.thisN,test_loop.thisIndex,test_loop.ran
-0.320703125,0.285394965,1,0,0,2.6187,00008,2023-07-25_18h09.25.285,vbt_B1_day2,2022.2.4,MacIntel,59.99880002,,,,,,,,,,,,,,,,,,,,,,,,,,,,,,,,,,,,,,,,,,,,,,,,,,,,,,,,,,,,,,,,,,,
,,,,,,00008,2023-07-25_18h09.25.285,vbt_B1_day2,2022.2.4,MacIntel,59.99880002,-0.320703125,0.285394965,1,0,0,0.9798,,,,,,,,,,,,,,,,,,,,,,,,,,,,,,,,,,,,,,,,,,,,,,,,,,,,,,,,,,,,,
,,,,,,00008,2023-07-25_18h09.25.285,vbt_B1_day2,2022.2.4,MacIntel,59.99880002,,,,,,,-0.320703125,0.285394965,1,0,0,10.7,0,0,0,3,1,d,images/br_d.png,images/cb_d.png,,,,,,,,,,,,,,,,,,,,,,,,,,,,,,,,,,,,,,,,,,,,,,,
,,,,,,00008,2023-07-25_18h09.25.285,vbt_B1_day2,2022.2.4,MacIntel,59.99880002,,,,,,,-0.320703125,0.285394965,1,0,0,0.1984,0,1,1,9,1,j,images/br_j.png,images/cb_j.png,,,,,,,,,,,,,,,,,,,,,,,,,,,,,,,,,,,,,,,,,,,,,,,
,,,,,,00008,2023-07-25_18h09.25.285,vbt_B1_day2,2022.2.4,MacIntel,59.99880002,,,,,,,-0.174518229,0.009149306,1,0,0,3.8331,0,2,2,0,1,a,images/br_a.png,images/cb_a.png,,,,,,,,,,,,,,,,,,,,,,,,,,,,,,,,,,,,,,,,,,,,,,,
,,,,,,00008,2023-07-25_18h09.25.285,vbt_B1_day2,2022.2.4,MacIntel,59.99880002,,,,,,,-0.174774306,0.009149306,1,0,0,9.883,0,3,3,24,1,y,images/br_y.png,images/cb_y.png,,,,,,,,,,,,,,,,,,,,,,,,,,,,,,,,,,,,,,,,,,,,,,,
,,,,,,00008,2023-07-25_18h09.25.285,vbt_B1_day2,2022.2.4,MacIntel,59.99880002,,,,,,,-0.174774306,0.009149306,1,0,0,0.2332,0,4,4,6,1,g,images/br_g.png,images/cb_g.png,,,,,,,,,,,,,,,,,,,,,,,,,,,,,,,,,,,,,,,,,,,,,,,
,,,,,,00008,2023-07-25_18h09.25.285,vbt_B1_day2,2022.2.4,MacIntel,59.99880002,,,,,,,-0.174774306,0.009149306,1,0,0,7.7151,0,5,5,7,1,h,images/br_h.png,images/cb_h.png,,,,,,,,,,,,,,,,,,,,,,,,,,,,,,,,,,,,,,,,,,,,,,,
,,,,,,00008,2023-07-25_18h09.25.285,vbt_B1_day2,2022.2.4,MacIntel,59.99880002,,,,,,,-0.175290799,0.009149306,1,0,0,0.3025,0,6,6,8,1,i,images/br_i.png,images/cb_i.png,,,,,,,,,,,,,,,,,,,,,,,,,,,,,,,,,,,,,,,,,,,,,,,
,,,,,,00008,2023-07-25_18h09.25.285,vbt_B1_day2,2022.2.4,MacIntel,59.99880002,,,,,,,-0.193016493,-0.01593316,1,0,0,4.5176,0,7,7,14,1,o,images/br_o.png,images/cb_o.png,,,,,,,,,,,,,,,,,,,,,,,,,,,,,,,,,,,,,,,,,,,,,,,
,,,,,,00008,2023-07-25_18h09.25.285,vbt_B1_day2,2022.2.4,MacIntel,59.99880002,,,,,,,-0.193016493,-0.018797743,1,0,0,3.7491,0,8,8,18,1,s,images/br_s.png,images/cb_s.png,,,,,,,,,,,,,,,,,,,,,,,,,,,,,,,,,,,,,,,,,,,,,,,
,,,,,,00008,2023-07-25_18h09.25.285,vbt_B1_day2,2022.2.4,MacIntel,59.99880002,,,,,,,-0.193016493,-0.018797743,1,0,0,7.8996,0,9,9,22,1,w,images/br_w.png,images/cb_w.png,,,,,,,,,,,,,,,,,,,,,,,,,,,,,,,,,,,,,,,,,,,,,,,
,,,,,,00008,2023-07-25_18h09.25.285,vbt_B1_day2,2022.2.4,MacIntel,59.99880002,,,,,,,-0.199279514,-0.035894097,1,0,0,0.315,0,10,10,2,1,c,images/br_c.png,images/cb_c.png,,,,,,,,,,,,,,,,,,,,,,,,,,,,,,,,,,,,,,,,,,,,,,,
,,,,,,00008,2023-07-25_18h09.25.285,vbt_B1_day2,2022.2.4,MacIntel,59.99880002,,,,,,,-0.118376736,-0.013611111,1,0,0,0.7848,0,11,11,10,1,k,images/br_k.png,images/cb_k.png,,,,,,,,,,,,,,,,,,,,,,,,,,,,,,,,,,,,,,,,,,,,,,,
,,,,,,00008,2023-07-25_18h09.25.285,vbt_B1_day2,2022.2.4,MacIntel,59.99880002,,,,,,,-0.118376736,-0.013611111,1,0,0,25.3838,0,12,12,21,1,v,images/br_v.png,images/cb_v.png,,,,,,,,,,,,,,,,,,,,,,,,,,,,,,,,,,,,,,,,,,,,,,,
,,,,,,00008,2023-07-25_18h09.25.285,vbt_B1_day2,2022.2.4,MacIntel,59.99880002,,,,,,,-0.121740451,-0.100690104,1,0,0,0.5485,0,13,13,17,1,r,images/br_r.png,images/cb_r.png,,,,,,,,,,,,,,,,,,,,,,,,,,,,,,,,,,,,,,,,,,,,,,,
,,,,,,00008,2023-07-25_18h09.25.285,vbt_B1_day2,2022.2.4,MacIntel,59.99880002,,,,,,,-0.121740451,-0.100690104,1,0,0,3.4827,0,14,14,25,1,z,images/br_z.png,images/cb_z.png,,,,,,,,,,,,,,,,,,,,,,,,,,,,,,,,,,,,,,,,,,,,,,,
,,,,,,00008,2023-07-25_18h09.25.285,vbt_B1_day2,2022.2.4,MacIntel,59.99880002,,,,,,,-0.121740451,-0.100690104,1,0,0,2.5316,0,15,15,1,1,b,images/br_b.png,images/cb_b.png,,,,,,,,,,,,,,,,,,,,,,,,,,,,,,,,,,,,,,,,,,,,,,,
,,,,,,00008,2023-07-25_18h09.25.285,vbt_B1_day2,2022.2.4,MacIntel,59.99880002,,,,,,,-0.141996528,-0.162734375,1,0,0,0.101,0,16,16,4,1,e,images/br_e.png,images/cb_e.png,,,,,,,,,,,,,,,,,,,,,,,,,,,,,,,,,,,,,,,,,,,,,,,
,,,,,,00008,2023-07-25_18h09.25.285,vbt_B1_day2,2022.2.4,MacIntel,59.99880002,,,,,,,-0.141996528,-0.162734375,1,0,0,6.9007,0,17,17,5,1,f,images/br_f.png,images/cb_f.png,,,,,,,,,,,,,,,,,,,,,,,,,,,,,,,,,,,,,,,,,,,,,,,
,,,,,,00008,2023-07-25_18h09.25.285,vbt_B1_day2,2022.2.4,MacIntel,59.99880002,,,,,,,-0.179661458,-0.221436632,1,0,0,0.2155,0,18,18,16,1,q,images/br_q.png,images/cb_q.png,,,,,,,,,,,,,,,,,,,,,,,,,,,,,,,,,,,,,,,,,,,,,,,
,,,,,,00008,2023-07-25_18h09.25.285,vbt_B1_day2,2022.2.4,MacIntel,59.99880002,,,,,,,-0.179661458,-0.221436632,1,0,0,2.5823,0,19,19,19,1,t,images/br_t.png,images/cb_t.png,,,,,,,,,,,,,,,,,,,,,,,,,,,,,,,,,,,,,,,,,,,,,,,
,,,,,,00008,2023-07-25_18h09.25.285,vbt_B1_day2,2022.2.4,MacIntel,59.99880002,,,,,,,-0.184678819,-0.236032986,1,0,0,0.0662,0,20,20,11,1,l,images/br_l.png,images/cb_l.png,,,,,,,,,,,,,,,,,,,,,,,,,,,,,,,,,,,,,,,,,,,,,,,
,,,,,,00008,2023-07-25_18h09.25.285,vbt_B1_day2,2022.2.4,MacIntel,59.99880002,,,,,,,-0.186553819,-0.246310764,1,0,0,0.5013,0,21,21,15,1,p,images/br_p.png,images/cb_p.png,,,,,,,,,,,,,,,,,,,,,,,,,,,,,,,,,,,,,,,,,,,,,,,
,,,,,,00008,2023-07-25_18h09.25.285,vbt_B1_day2,2022.2.4,MacIntel,59.99880002,,,,,,,-0.136171875,-0.199548611,1,0,0,16.2514,0,22,22,13,1,n,images/br_n.png,images/cb_n.png,,,,,,,,,,,,,,,,,,,,,,,,,,,,,,,,,,,,,,,,,,,,,,,
,,,,,,00008,2023-07-25_18h09.25.285,vbt_B1_day2,2022.2.4,MacIntel,59.99880002,,,,,,,-0.137664931,-0.219592014,1,0,0,12.3012,0,23,23,20,1,u,images/br_u.png,images/cb_u.png,,,,,,,,,,,,,,,,,,,,,,,,,,,,,,,,,,,,,,,,,,,,,,,
,,,,,,00008,2023-07-25_18h09.25.285,vbt_B1_day2,2022.2.4,MacIntel,59.99880002,,,,,,,-0.146137153,-0.227261285,1,0,0,0.6337,0,24,24,23,1,x,images/br_x.png,images/cb_x.png,,,,,,,,,,,,,,,,,,,,,,,,,,,,,,,,,,,,,,,,,,,,,,,
,,,,,,00008,2023-07-25_18h09.25.285,vbt_B1_day2,2022.2.4,MacIntel,59.99880002,,,,,,,-0.146137153,-0.227261285,1,0,0,7.7653,0,25,25,12,1,m,images/br_m.png,images/cb_m.png,,,,,,,,,,,,,,,,,,,,,,,,,,,,,,,,,,,,,,,,,,,,,,,
,,,,,,00008,2023-07-25_18h09.25.285,vbt_B1_day2,2022.2.4,MacIntel,59.99880002,,,,,,,,,,,,,,,,,,,,,-0.12687934,-0.224466146,1,0,0,34.7165,,,,,,,,,,,,,,,,,,,,,,,,,,,,,,,,,,,,,,,,,
,,,,,,00008,2023-07-25_18h09.25.285,vbt_B1_day2,2022.2.4,MacIntel,59.99880002,,,,,,,,,,,,,,,,,,,,,,,,,,,down,0,47.8402,,-0.12687934,-0.224466146,1,0,0,2.0594,0,0,0,162,1,uitdelen,images/br_uitdelen.png,images/cb_uitdelen.png,0,,,,,,,,,,,,,,,,,,,,,,
,,,,,,00008,2023-07-25_18h09.25.285,vbt_B1_day2,2022.2.4,MacIntel,59.99880002,,,,,,,,,,,,,,,,,,,,,,,,,,,down,0,34.1524,,-0.12687934,-0.224466146,1,0,0,23.0508,0,1,1,44,1,flits,images/br_flits.png,images/cb_flits.png,0,,,,,,,,,,,,,,,,,,,,,,
,,,,,,00008,2023-07-25_18h09.25.285,vbt_B1_day2,2022.2.4,MacIntel,59.99880002,,,,,,,,,,,,,,,,,,,,,,,,,,,down,0,56.7017,,0.113506944,-0.244470486,1,0,0,1.4835,0,2,2,176,1,techniek,images/br_techniek.png,images/cb_techniek.png,1,techniek,,,,,,,,,,,,,,,,,,,,,
,,,,,,00008,2023-07-25_18h09.25.285,vbt_B1_day2,2022.2.4,MacIntel,59.99880002,,,,,,,,,,,,,,,,,,,,,,,,,,,down,0,39.4353,,0.113506944,-0.244470486,1,0,0,0.6482,0,3,3,88,1,boeien,images/br_boeien.png,images/cb_boeien.png,0,,,,,,,,,,,,,,,,,,,,,,
,,,,,,00008,2023-07-25_18h09.25.285,vbt_B1_day2,2022.2.4,MacIntel,59.99880002,,,,,,,,,,,,,,,,,,,,,,,,,,,down,0,24.3672,,0.113506944,-0.244470486,1,0,0,0.6004,0,4,4,87,1,toeval,images/br_toeval.png,images/cb_toeval.png,0,,,,,,,,,,,,,,,,,,,,,,
,,,,,,00008,2023-07-25_18h09.25.285,vbt_B1_day2,2022.2.4,MacIntel,59.99880002,,,,,,,,,,,,,,,,,,,,,,,,,,,down,0,27.8709,,0.113506944,-0.244470486,1,0,0,0.5169,0,5,5,182,1,bijkomen,images/br_bijkomen.png,images/cb_bijkomen.png,0,,,,,,,,,,,,,,,,,,,,,,
,,,,,,00008,2023-07-25_18h09.25.285,vbt_B1_day2,2022.2.4,MacIntel,59.99880002,,,,,,,,,,,,,,,,,,,,,,,,,,,down,0,52.3661,,0.113506944,-0.244470486,1,0,0,0.8014,0,6,6,2,1,jaar,images/br_jaar.png,images/cb_jaar.png,0,,,,,,,,,,,,,,,,,,,,,,
,,,,,,00008,2023-07-25_18h09.25.285,vbt_B1_day2,2022.2.4,MacIntel,59.99880002,,,,,,,,,,,,,,,,,,,,,,,,,,,down,0,23.0181,,0.113506944,-0.244470486,1,0,0,2.0833,0,7,7,41,1,maken,images/br_maken.png,images/cb_maken.png,0,,,,,,,,,,,,,,,,,,,,,,
,,,,,,00008,2023-07-25_18h09.25.285,vbt_B1_day2,2022.2.4,MacIntel,59.99880002,,,,,,,,,,,,,,,,,,,,,,,,,,,down,0,24.7828,,0.112994792,-0.243702257,1,0,0,0.4694,0,8,8,89,1,slapen,images/br_slapen.png,images/cb_slapen.png,0,,,,,,,,,,,,,,,,,,,,,,
,,,,,,00008,2023-07-25_18h09.25.285,vbt_B1_day2,2022.2.4,MacIntel,59.99880002,,,,,,,,,,,,,,,,,,,,,,,,,,,down,0,27.5002,,0.11405816,-0.243702257,1,0,0,0.4504,0,9,9,167,1,eenhoorn,images/br_eenhoorn.png,images/cb_eenhoorn.png,0,,,,,,,,,,,,,,,,,,,,,,
,,,,,,00008,2023-07-25_18h09.25.285,vbt_B1_day2,2022.2.4,MacIntel,59.99880002,,,,,,,,,,,,,,,,,,,,,,,,,,,down,0,16.6689,,0.11405816,-0.243702257,1,0,0,0.3987,0,10,10,64,1,wegen,images/br_wegen.png,images/cb_wegen.png,0,,,,,,,,,,,,,,,,,,,,,,
,,,,,,00008,2023-07-25_18h09.25.285,vbt_B1_day2,2022.2.4,MacIntel,59.99880002,,,,,,,,,,,,,,,,,,,,,,,,,,,down,0,44.8701,,0.11405816,-0.243702257,1,0,0,1.0839,0,11,11,156,1,rechten,images/br_rechten.png,images/cb_rechten.png,0,,,,,,,,,,,,,,,,,,,,,,
,,,,,,00008,2023-07-25_18h09.25.285,vbt_B1_day2,2022.2.4,MacIntel,59.99880002,,,,,,,,,,,,,,,,,,,,,,,,,,,down,0,20.4945,,0.11405816,-0.243702257,1,0,0,0.4327,0,12,12,12,1,kust,images/br_kust.png,images/cb_kust.png,0,,,,,,,,,,,,,,,,,,,,,,
,,,,,,00008,2023-07-25_18h09.25.285,vbt_B1_day2,2022.2.4,MacIntel,59.99880002,,,,,,,,,,,,,,,,,,,,,,,,,,,down,0,55.2603,,0.11405816,-0.243702257,1,0,0,0.5167,0,13,13,179,1,woestijn,images/br_woestijn.png,images/cb_woestijn.png,1,woestijn,,,,,,,,,,,,,,,,,,,,,
,,,,,,00008,2023-07-25_18h09.25.285,vbt_B1_day2,2022.2.4,MacIntel,59.99880002,,,,,,,,,,,,,,,,,,,,,,,,,,,down,0,5.2668,,0.11405816,-0.243702257,1,0,0,1.2991,0,14,14,194,1,driemaal,images/br_driemaal.png,images/cb_driemaal.png,0,,,,,,,,,,,,,,,,,,,,,,
,,,,,,00008,2023-07-25_18h09.25.285,vbt_B1_day2,2022.2.4,MacIntel,59.99880002,,,,,,,,,,,,,,,,,,,,,,,,,,,down,0,16.3746,,0.11296441,-0.268311632,1,0,0,1.8501,0,15,15,172,1,weigeren,images/br_weigeren.png,images/cb_weigeren.png,0,,,,,,,,,,,,,,,,,,,,,,
,,,,,,00008,2023-07-25_18h09.25.285,vbt_B1_day2,2022.2.4,MacIntel,59.99880002,,,,,,,,,,,,,,,,,,,,,,,,,,,down,0,7.7367,,0.11296441,-0.268311632,1,0,0,0.7667,0,16,16,31,1,poes,images/br_poes.png,images/cb_poes.png,0,,,,,,,,,,,,,,,,,,,,,,
,,,,,,00008,2023-07-25_18h09.25.285,vbt_B1_day2,2022.2.4,MacIntel,59.99880002,,,,,,,,,,,,,,,,,,,,,,,,,,,down,0,9.7038,,0.11296441,-0.268311632,1,0,0,2.6335,0,17,17,190,1,goedkoop,images/br_goedkoop.png,images/cb_goedkoop.png,0,,,,,,,,,,,,,,,,,,,,,,
,,,,,,00008,2023-07-25_18h09.25.285,vbt_B1_day2,2022.2.4,MacIntel,59.99880002,,,,,,,,,,,,,,,,,,,,,,,,,,,down,0,18.1818,,0.11296441,-0.268311632,1,0,0,0.7496,0,18,18,109,1,totaal,images/br_totaal.png,images/cb_totaal.png,0,,,,,,,,,,,,,,,,,,,,,,
,,,,,,00008,2023-07-25_18h09.25.285,vbt_B1_day2,2022.2.4,MacIntel,59.99880002,,,,,,,,,,,,,,,,,,,,,,,,,,,down,0,16.9112,,0.11296441,-0.268311632,1,0,0,0.6498,0,19,19,0,1,slak,images/br_slak.png,images/cb_slak.png,0,,,,,,,,,,,,,,,,,,,,,,
,,,,,,00008,2023-07-25_18h09.25.285,vbt_B1_day2,2022.2.4,MacIntel,59.99880002,,,,,,,,,,,,,,,,,,,,,,,,,,,down,0,7.1444,,0.11296441,-0.268311632,1,0,0,0.6654,0,20,20,145,1,invloed,images/br_invloed.png,images/cb_invloed.png,0,,,,,,,,,,,,,,,,,,,,,,
,,,,,,00008,2023-07-25_18h09.25.285,vbt_B1_day2,2022.2.4,MacIntel,59.99880002,,,,,,,,,,,,,,,,,,,,,,,,,,,down,0,8.8505,,0.11296441,-0.268311632,1,0,0,0.3997,0,21,21,38,1,baai,images/br_baai.png,images/cb_baai.png,0,,,,,,,,,,,,,,,,,,,,,,
,,,,,,00008,2023-07-25_18h09.25.285,vbt_B1_day2,2022.2.4,MacIntel,59.99880002,,,,,,,,,,,,,,,,,,,,,,,,,,,down,0,8.2047,,0.117335069,-0.271727431,1,0,0,0.3664,0,22,22,27,1,dans,images/br_dans.png,images/cb_dans.png,0,,,,,,,,,,,,,,,,,,,,,,
,,,,,,00008,2023-07-25_18h09.25.285,vbt_B1_day2,2022.2.4,MacIntel,59.99880002,,,,,,,,,,,,,,,,,,,,,,,,,,,down,0,8.2312,,0.117078993,-0.271471354,1,0,0,0.865,0,23,23,25,1,plek,images/br_plek.png,images/cb_plek.png,0,,,,,,,,,,,,,,,,,,,,,,
,,,,,,00008,2023-07-25_18h09.25.285,vbt_B1_day2,2022.2.4,MacIntel,59.99880002,,,,,,,,,,,,,,,,,,,,,,,,,,,down,0,13.7071,,0.117078993,-0.271471354,1,0,0,1.2998,0,24,24,169,1,oprotten,images/br_oprotten.png,images/cb_oprotten.png,0,,,,,,,,,,,,,,,,,,,,,,
,,,,,,00008,2023-07-25_18h09.25.285,vbt_B1_day2,2022.2.4,MacIntel,59.99880002,,,,,,,,,,,,,,,,,,,,,,,,,,,down,0,3.9424,,0.117078993,-0.271471354,1,0,0,1.1325,0,25,25,101,1,staren,images/br_staren.png,images/cb_staren.png,0,,,,,,,,,,,,,,,,,,,,,,
,,,,,,00008,2023-07-25_18h09.25.285,vbt_B1_day2,2022.2.4,MacIntel,59.99880002,,,,,,,,,,,,,,,,,,,,,,,,,,,down,0,58.9169,,0.117078993,-0.271471354,1,0,0,0.3676,0,26,26,111,1,ticket,images/br_ticket.png,images/cb_ticket.png,0,,,,,,,,,,,,,,,,,,,,,,
,,,,,,00008,2023-07-25_18h09.25.285,vbt_B1_day2,2022.2.4,MacIntel,59.99880002,,,,,,,,,,,,,,,,,,,,,,,,,,,down,0,9.691,,0.117078993,-0.271471354,1,0,0,0.3807,0,27,27,198,1,bedoelen,images/br_bedoelen.png,images/cb_bedoelen.png,0,,,,,,,,,,,,,,,,,,,,,,
,,,,,,00008,2023-07-25_18h09.25.285,vbt_B1_day2,2022.2.4,MacIntel,59.99880002,,,,,,,,,,,,,,,,,,,,,,,,,,,down,0,15.6112,,0.117078993,-0.271471354,1,0,0,1.4472,0,28,28,17,1,taal,images/br_taal.png,images/cb_taal.png,1,taal,,,,,,,,,,,,,,,,,,,,,
,,,,,,00008,2023-07-25_18h09.25.285,vbt_B1_day2,2022.2.4,MacIntel,59.99880002,,,,,,,,,,,,,,,,,,,,,,,,,,,down,0,37.142,,0.117078993,-0.271471354,1,0,0,0.4332,0,29,29,174,1,stemming,images/br_stemming.png,images/cb_stemming.png,0,,,,,,,,,,,,,,,,,,,,,,
,,,,,,00008,2023-07-25_18h09.25.285,vbt_B1_day2,2022.2.4,MacIntel,59.99880002,,,,,,,,,,,,,,,,,,,,,,,,,,,down,0,12.8695,,0.117078993,-0.271471354,1,0,0,0.7174,0,30,30,40,1,schep,images/br_schep.png,images/cb_schep.png,0,,,,,,,,,,,,,,,,,,,,,,
,,,,,,00008,2023-07-25_18h09.25.285,vbt_B1_day2,2022.2.4,MacIntel,59.99880002,,,,,,,,,,,,,,,,,,,,,,,,,,,down,0,5.8824,,0.117078993,-0.271471354,1,0,0,1.4667,0,31,31,117,1,kennis,images/br_kennis.png,images/cb_kennis.png,0,,,,,,,,,,,,,,,,,,,,,,
,,,,,,00008,2023-07-25_18h09.25.285,vbt_B1_day2,2022.2.4,MacIntel,59.99880002,,,,,,,,,,,,,,,,,,,,,,,,,,,down,0,6.4368,,0.117078993,-0.271471354,1,0,0,0.6316,0,32,32,46,1,jagen,images/br_jagen.png,images/cb_jagen.png,0,,,,,,,,,,,,,,,,,,,,,,
,,,,,,00008,2023-07-25_18h09.25.285,vbt_B1_day2,2022.2.4,MacIntel,59.99880002,,,,,,,,,,,,,,,,,,,,,,,,,,,down,0,17.734,,0.117078993,-0.271471354,1,0,0,0.3502,0,33,33,96,1,slagen,images/br_slagen.png,images/cb_slagen.png,1,slagen,,,,,,,,,,,,,,,,,,,,,
,,,,,,00008,2023-07-25_18h09.25.285,vbt_B1_day2,2022.2.4,MacIntel,59.99880002,,,,,,,,,,,,,,,,,,,,,,,,,,,down,0,7.1415,,0.116822917,-0.271471354,1,0,0,0.7676,0,34,34,100,1,geduld,images/br_geduld.png,images/cb_geduld.png,0,,,,,,,,,,,,,,,,,,,,,,
,,,,,,00008,2023-07-25_18h09.25.285,vbt_B1_day2,2022.2.4,MacIntel,59.99880002,,,,,,,,,,,,,,,,,,,,,,,,,,,down,0,5.5168,,0.121197917,-0.270716146,1,0,0,0.8005,0,35,35,9,1,hier,images/br_hier.png,images/cb_hier.png,0,,,,,,,,,,,,,,,,,,,,,,
,,,,,,00008,2023-07-25_18h09.25.285,vbt_B1_day2,2022.2.4,MacIntel,59.99880002,,,,,,,,,,,,,,,,,,,,,,,,,,,down,0,32.1686,,0.116215278,-0.268420139,1,0,0,0.3664,0,36,36,181,1,toegeven,images/br_toegeven.png,images/cb_toegeven.png,0,,,,,,,,,,,,,,,,,,,,,,
,,,,,,00008,2023-07-25_18h09.25.285,vbt_B1_day2,2022.2.4,MacIntel,59.99880002,,,,,,,,,,,,,,,,,,,,,,,,,,,down,0,39.4455,,-0.060290799,-0.296154514,1,0,0,1.7331,0,37,37,177,1,maaltijd,images/br_maaltijd.png,images/cb_maaltijd.png,1,faaltijd,,,,,,,,,,,,,,,,,,,,,
,,,,,,00008,2023-07-25_18h09.25.285,vbt_B1_day2,2022.2.4,MacIntel,59.99880002,,,,,,,,,,,,,,,,,,,,,,,,,,,down,0,12.3876,,-0.060290799,-0.296154514,1,0,0,0.6661,0,38,38,115,1,kleren,images/br_kleren.png,images/cb_kleren.png,0,,,,,,,,,,,,,,,,,,,,,,
,,,,,,00008,2023-07-25_18h09.25.285,vbt_B1_day2,2022.2.4,MacIntel,59.99880002,,,,,,,,,,,,,,,,,,,,,,,,,,,down,0,19.1702,,-0.062226562,-0.303693576,1,0,0,0.7844,0,39,39,142,1,snuiven,images/br_snuiven.png,images/cb_snuiven.png,0,,,,,,,,,,,,,,,,,,,,,,
,,,,,,00008,2023-07-25_18h09.25.285,vbt_B1_day2,2022.2.4,MacIntel,59.99880002,,,,,,,,,,,,,,,,,,,,,,,,,,,down,0,5.5741,,-0.062226562,-0.303693576,1,0,0,1.0969,0,40,40,48,1,steel,images/br_steel.png,images/cb_steel.png,0,,,,,,,,,,,,,,,,,,,,,,
,,,,,,00008,2023-07-25_18h09.25.285,vbt_B1_day2,2022.2.4,MacIntel,59.99880002,,,,,,,,,,,,,,,,,,,,,,,,,,,down,0,16.2192,,-0.076063368,-0.321124132,1,0,0,0.7008,0,41,41,75,1,snoep,images/br_snoep.png,images/cb_snoep.png,0,,,,,,,,,,,,,,,,,,,,,,
,,,,,,00008,2023-07-25_18h09.25.285,vbt_B1_day2,2022.2.4,MacIntel,59.99880002,,,,,,,,,,,,,,,,,,,,,,,,,,,down,0,5.3877,,-0.076063368,-0.321124132,1,0,0,0.6146,0,42,42,80,1,kanjer,images/br_kanjer.png,images/cb_kanjer.png,0,,,,,,,,,,,,,,,,,,,,,,
,,,,,,00008,2023-07-25_18h09.25.285,vbt_B1_day2,2022.2.4,MacIntel,59.99880002,,,,,,,,,,,,,,,,,,,,,,,,,,,down,0,9.6192,,-0.076063368,-0.321124132,1,0,0,0.7834,0,43,43,43,1,klauw,images/br_klauw.png,images/cb_klauw.png,0,,,,,,,,,,,,,,,,,,,,,,
,,,,,,00008,2023-07-25_18h09.25.285,vbt_B1_day2,2022.2.4,MacIntel,59.99880002,,,,,,,,,,,,,,,,,,,,,,,,,,,down,0,17.3891,,-0.076063368,-0.321124132,1,0,0,2.7327,0,44,44,184,1,aandelen,images/br_aandelen.png,images/cb_aandelen.png,0,,,,,,,,,,,,,,,,,,,,,,
,,,,,,00008,2023-07-25_18h09.25.285,vbt_B1_day2,2022.2.4,MacIntel,59.99880002,,,,,,,,,,,,,,,,,,,,,,,,,,,down,0,6.309,,-0.076579861,-0.321124132,1,0,0,2.8327,0,45,45,91,1,gezond,images/br_gezond.png,images/cb_gezond.png,0,,,,,,,,,,,,,,,,,,,,,,
,,,,,,00008,2023-07-25_18h09.25.285,vbt_B1_day2,2022.2.4,MacIntel,59.99880002,,,,,,,,,,,,,,,,,,,,,,,,,,,down,0,4.7946,,-0.076579861,-0.321124132,1,0,0,0.7636,0,46,46,113,1,koppen,images/br_koppen.png,images/cb_koppen.png,0,,,,,,,,,,,,,,,,,,,,,,
,,,,,,00008,2023-07-25_18h09.25.285,vbt_B1_day2,2022.2.4,MacIntel,59.99880002,,,,,,,,,,,,,,,,,,,,,,,,,,,down,0,4.3838,,-0.076579861,-0.321124132,1,0,0,0.801,0,47,47,3,1,mand,images/br_mand.png,images/cb_mand.png,0,,,,,,,,,,,,,,,,,,,,,,
,,,,,,00008,2023-07-25_18h09.25.285,vbt_B1_day2,2022.2.4,MacIntel,59.99880002,,,,,,,,,,,,,,,,,,,,,,,,,,,down,0,8.0761,,-0.076579861,-0.321124132,1,0,0,0.6009,0,48,48,83,1,mening,images/br_mening.png,images/cb_mening.png,0,,,,,,,,,,,,,,,,,,,,,,
,,,,,,00008,2023-07-25_18h09.25.285,vbt_B1_day2,2022.2.4,MacIntel,59.99880002,,,,,,,,,,,,,,,,,,,,,,,,,,,down,0,8.4299,,-0.076579861,-0.321124132,1,0,0,0.5505,0,49,49,45,1,piste,images/br_piste.png,images/cb_piste.png,0,,,,,,,,,,,,,,,,,,,,,,
,,,,,,00008,2023-07-25_18h09.25.285,vbt_B1_day2,2022.2.4,MacIntel,59.99880002,,,,,,,,,,,,,,,,,,,,,,,,,,,down,0,13.2197,,-0.076579861,-0.321124132,1,0,0,0.3836,0,50,50,77,1,woede,images/br_woede.png,images/cb_woede.png,0,,,,,,,,,,,,,,,,,,,,,,
,,,,,,00008,2023-07-25_18h09.25.285,vbt_B1_day2,2022.2.4,MacIntel,59.99880002,,,,,,,,,,,,,,,,,,,,,,,,,,,down,0,7.0701,,-0.076579861,-0.321124132,1,0,0,0.7335,0,51,51,118,1,vinger,images/br_vinger.png,images/cb_vinger.png,0,,,,,,,,,,,,,,,,,,,,,,
,,,,,,00008,2023-07-25_18h09.25.285,vbt_B1_day2,2022.2.4,MacIntel,59.99880002,,,,,,,,,,,,,,,,,,,,,,,,,,,down,0,6.0421,,-0.076840278,-0.320868056,1,0,0,3.95,0,52,52,69,1,waken,images/br_waken.png,images/cb_waken.png,0,,,,,,,,,,,,,,,,,,,,,,
,,,,,,00008,2023-07-25_18h09.25.285,vbt_B1_day2,2022.2.4,MacIntel,59.99880002,,,,,,,,,,,,,,,,,,,,,,,,,,,down,0,24.8199,,-0.076840278,-0.320868056,1,0,0,0.3156,0,53,53,158,1,innemen,images/br_innemen.png,images/cb_innemen.png,0,,,,,,,,,,,,,,,,,,,,,,
,,,,,,00008,2023-07-25_18h09.25.285,vbt_B1_day2,2022.2.4,MacIntel,59.99880002,,,,,,,,,,,,,,,,,,,,,,,,,,,down,0,2.8502,,-0.076840278,-0.320868056,1,0,0,0.5656,0,54,54,72,1,strak,images/br_strak.png,images/cb_strak.png,0,,,,,,,,,,,,,,,,,,,,,,
,,,,,,00008,2023-07-25_18h09.25.285,vbt_B1_day2,2022.2.4,MacIntel,59.99880002,,,,,,,,,,,,,,,,,,,,,,,,,,,down,0,1.4652,,-0.076840278,-0.320868056,1,0,0,1.0179,0,55,55,39,1,laag,images/br_laag.png,images/cb_laag.png,0,,,,,,,,,,,,,,,,,,,,,,
,,,,,,00008,2023-07-25_18h09.25.285,vbt_B1_day2,2022.2.4,MacIntel,59.99880002,,,,,,,,,,,,,,,,,,,,,,,,,,,down,0,14.9745,,-0.076840278,-0.320868056,1,0,0,0.4168,0,56,56,159,1,sufferd,images/br_sufferd.png,images/cb_sufferd.png,0,,,,,,,,,,,,,,,,,,,,,,
,,,,,,00008,2023-07-25_18h09.25.285,vbt_B1_day2,2022.2.4,MacIntel,59.99880002,,,,,,,,,,,,,,,,,,,,,,,,,,,down,0,6.0752,,-0.076840278,-0.320868056,1,0,0,0.4832,0,57,57,165,1,feestdag,images/br_feestdag.png,images/cb_feestdag.png,0,,,,,,,,,,,,,,,,,,,,,,
,,,,,,00008,2023-07-25_18h09.25.285,vbt_B1_day2,2022.2.4,MacIntel,59.99880002,,,,,,,,,,,,,,,,,,,,,,,,,,,down,0,10.201,,-0.076840278,-0.320868056,1,0,0,0.5171,0,58,58,189,1,aanraden,images/br_aanraden.png,images/cb_aanraden.png,0,,,,,,,,,,,,,,,,,,,,,,
,,,,,,00008,2023-07-25_18h09.25.285,vbt_B1_day2,2022.2.4,MacIntel,59.99880002,,,,,,,,,,,,,,,,,,,,,,,,,,,down,0,18.3751,,-0.216892361,-0.198728299,1,0,0,25.083,0,59,59,135,1,gedicht,images/br_gedicht.png,images/cb_gedicht.png,0,,,,,,,,,,,,,,,,,,,,,,
,,,,,,00008,2023-07-25_18h09.25.285,vbt_B1_day2,2022.2.4,MacIntel,59.99880002,,,,,,,,,,,,,,,,,,,,,,,,,,,down,0,9.1372,,-0.216892361,-0.198728299,1,0,0,1.417,0,60,60,164,1,anarchie,images/br_anarchie.png,images/cb_anarchie.png,0,,,,,,,,,,,,,,,,,,,,,,
,,,,,,00008,2023-07-25_18h09.25.285,vbt_B1_day2,2022.2.4,MacIntel,59.99880002,,,,,,,,,,,,,,,,,,,,,,,,,,,down,0,20.0404,,-0.216892361,-0.198728299,1,0,0,0.633,0,61,61,42,1,bleek,images/br_bleek.png,images/cb_bleek.png,0,,,,,,,,,,,,,,,,,,,,,,
,,,,,,00008,2023-07-25_18h09.25.285,vbt_B1_day2,2022.2.4,MacIntel,59.99880002,,,,,,,,,,,,,,,,,,,,,,,,,,,down,0,8.3673,,-0.216892361,-0.198728299,1,0,0,0.8172,0,62,62,1,1,zaal,images/br_zaal.png,images/cb_zaal.png,0,,,,,,,,,,,,,,,,,,,,,,
,,,,,,00008,2023-07-25_18h09.25.285,vbt_B1_day2,2022.2.4,MacIntel,59.99880002,,,,,,,,,,,,,,,,,,,,,,,,,,,down,0,10.7425,,-0.216892361,-0.198728299,1,0,0,7.0343,0,63,63,116,1,besmet,images/br_besmet.png,images/cb_besmet.png,0,,,,,,,,,,,,,,,,,,,,,,
,,,,,,00008,2023-07-25_18h09.25.285,vbt_B1_day2,2022.2.4,MacIntel,59.99880002,,,,,,,,,,,,,,,,,,,,,,,,,,,down,0,13.1429,,-0.216892361,-0.198728299,1,0,0,1.3338,0,64,64,149,1,redding,images/br_redding.png,images/cb_redding.png,0,,,,,,,,,,,,,,,,,,,,,,
,,,,,,00008,2023-07-25_18h09.25.285,vbt_B1_day2,2022.2.4,MacIntel,59.99880002,,,,,,,,,,,,,,,,,,,,,,,,,,,down,0,6.4033,,-0.216892361,-0.198728299,1,0,0,0.6839,0,65,65,110,1,zuster,images/br_zuster.png,images/cb_zuster.png,0,,,,,,,,,,,,,,,,,,,,,,
,,,,,,00008,2023-07-25_18h09.25.285,vbt_B1_day2,2022.2.4,MacIntel,59.99880002,,,,,,,,,,,,,,,,,,,,,,,,,,,down,0,11.5499,,-0.216892361,-0.198728299,1,0,0,6.2672,0,66,66,52,1,wagon,images/br_wagon.png,images/cb_wagon.png,0,,,,,,,,,,,,,,,,,,,,,,
,,,,,,00008,2023-07-25_18h09.25.285,vbt_B1_day2,2022.2.4,MacIntel,59.99880002,,,,,,,,,,,,,,,,,,,,,,,,,,,down,0,11.9066,,-0.216892361,-0.198728299,1,0,0,0.4171,0,67,67,24,1,jurk,images/br_jurk.png,images/cb_jurk.png,0,,,,,,,,,,,,,,,,,,,,,,
,,,,,,00008,2023-07-25_18h09.25.285,vbt_B1_day2,2022.2.4,MacIntel,59.99880002,,,,,,,,,,,,,,,,,,,,,,,,,,,down,0,36.9432,,-0.216892361,-0.198728299,1,0,0,0.5971,0,68,68,136,1,waarbij,images/br_waarbij.png,images/cb_waarbij.png,1,waarbij,,,,,,,,,,,,,,,,,,,,,
,,,,,,00008,2023-07-25_18h09.25.285,vbt_B1_day2,2022.2.4,MacIntel,59.99880002,,,,,,,,,,,,,,,,,,,,,,,,,,,down,0,5.9217,,-0.216892361,-0.198728299,1,0,0,6.2346,0,69,69,168,1,bisschop,images/br_bisschop.png,images/cb_bisschop.png,0,,,,,,,,,,,,,,,,,,,,,,
,,,,,,00008,2023-07-25_18h09.25.285,vbt_B1_day2,2022.2.4,MacIntel,59.99880002,,,,,,,,,,,,,,,,,,,,,,,,,,,down,0,21.9874,,-0.216892361,-0.198728299,1,0,0,0.4671,0,70,70,16,1,ziek,images/br_ziek.png,images/cb_ziek.png,1,ziek,,,,,,,,,,,,,,,,,,,,,
,,,,,,00008,2023-07-25_18h09.25.285,vbt_B1_day2,2022.2.4,MacIntel,59.99880002,,,,,,,,,,,,,,,,,,,,,,,,,,,down,0,7.536,,-0.216892361,-0.198728299,1,0,0,1.032,0,71,71,166,1,strikken,images/br_strikken.png,images/cb_strikken.png,0,,,,,,,,,,,,,,,,,,,,,,
,,,,,,00008,2023-07-25_18h09.25.285,vbt_B1_day2,2022.2.4,MacIntel,59.99880002,,,,,,,,,,,,,,,,,,,,,,,,,,,down,0,9.0057,,-0.216892361,-0.198728299,1,0,0,0.4667,0,72,72,92,1,geheim,images/br_geheim.png,images/cb_geheim.png,0,,,,,,,,,,,,,,,,,,,,,,
,,,,,,00008,2023-07-25_18h09.25.285,vbt_B1_day2,2022.2.4,MacIntel,59.99880002,,,,,,,,,,,,,,,,,,,,,,,,,,,down,0,11.8218,,-0.216892361,-0.198728299,1,0,0,0.4862,0,73,73,122,1,waarvan,images/br_waarvan.png,images/cb_waarvan.png,0,,,,,,,,,,,,,,,,,,,,,,
,,,,,,00008,2023-07-25_18h09.25.285,vbt_B1_day2,2022.2.4,MacIntel,59.99880002,,,,,,,,,,,,,,,,,,,,,,,,,,,down,0,2.7348,,-0.216892361,-0.198728299,1,0,0,0.5173,0,74,74,8,1,knie,images/br_knie.png,images/cb_knie.png,0,,,,,,,,,,,,,,,,,,,,,,
,,,,,,00008,2023-07-25_18h09.25.285,vbt_B1_day2,2022.2.4,MacIntel,59.99880002,,,,,,,,,,,,,,,,,,,,,,,,,,,down,0,11.0666,,-0.216892361,-0.198728299,1,0,0,0.4822,0,75,75,137,1,trekker,images/br_trekker.png,images/cb_trekker.png,1,trekken,,,,,,,,,,,,,,,,,,,,,
,,,,,,00008,2023-07-25_18h09.25.285,vbt_B1_day2,2022.2.4,MacIntel,59.99880002,,,,,,,,,,,,,,,,,,,,,,,,,,,down,0,10.3841,,-0.216892361,-0.198728299,1,0,0,0.8819,0,76,76,144,1,eetlust,images/br_eetlust.png,images/cb_eetlust.png,0,,,,,,,,,,,,,,,,,,,,,,
,,,,,,00008,2023-07-25_18h09.25.285,vbt_B1_day2,2022.2.4,MacIntel,59.99880002,,,,,,,,,,,,,,,,,,,,,,,,,,,down,0,23.6697,,-0.216892361,-0.198728299,1,0,0,0.3842,0,77,77,94,1,oceaan,images/br_oceaan.png,images/cb_oceaan.png,0,,,,,,,,,,,,,,,,,,,,,,
,,,,,,00008,2023-07-25_18h09.25.285,vbt_B1_day2,2022.2.4,MacIntel,59.99880002,,,,,,,,,,,,,,,,,,,,,,,,,,,down,0,6.8822,,-0.216892361,-0.198728299,1,0,0,0.8663,0,78,78,127,1,doodmoe,images/br_doodmoe.png,images/cb_doodmoe.png,0,,,,,,,,,,,,,,,,,,,,,,
,,,,,,00008,2023-07-25_18h09.25.285,vbt_B1_day2,2022.2.4,MacIntel,59.99880002,,,,,,,,,,,,,,,,,,,,,,,,,,,down,0,3.9171,,-0.216892361,-0.198728299,1,0,0,3.5493,0,79,79,22,1,stof,images/br_stof.png,images/cb_stof.png,0,,,,,,,,,,,,,,,,,,,,,,
,,,,,,00008,2023-07-25_18h09.25.285,vbt_B1_day2,2022.2.4,MacIntel,59.99880002,,,,,,,,,,,,,,,,,,,,,,,,,,,down,0,8.9581,,-0.216892361,-0.198472222,1,0,0,3.6851,0,80,80,105,1,wijlen,images/br_wijlen.png,images/cb_wijlen.png,0,,,,,,,,,,,,,,,,,,,,,,
,,,,,,00008,2023-07-25_18h09.25.285,vbt_B1_day2,2022.2.4,MacIntel,59.99880002,,,,,,,,,,,,,,,,,,,,,,,,,,,down,0,5.6998,,-0.217165799,-0.198467882,1,0,0,4.1534,0,81,81,63,1,flirt,images/br_flirt.png,images/cb_flirt.png,0,,,,,,,,,,,,,,,,,,,,,,
,,,,,,00008,2023-07-25_18h09.25.285,vbt_B1_day2,2022.2.4,MacIntel,59.99880002,,,,,,,,,,,,,,,,,,,,,,,,,,,down,0,6.9006,,-0.217165799,-0.198467882,1,0,0,0.968,0,82,82,161,1,attentie,images/br_attentie.png,images/cb_attentie.png,0,,,,,,,,,,,,,,,,,,,,,,
,,,,,,00008,2023-07-25_18h09.25.285,vbt_B1_day2,2022.2.4,MacIntel,59.99880002,,,,,,,,,,,,,,,,,,,,,,,,,,,down,0,7.821,,-0.217165799,-0.198467882,1,0,0,1.4315,0,83,83,121,1,twijfel,images/br_twijfel.png,images/cb_twijfel.png,0,,,,,,,,,,,,,,,,,,,,,,
,,,,,,00008,2023-07-25_18h09.25.285,vbt_B1_day2,2022.2.4,MacIntel,59.99880002,,,,,,,,,,,,,,,,,,,,,,,,,,,down,0,6.5499,,-0.217165799,-0.198467882,1,0,0,0.6678,0,84,84,79,1,nodig,images/br_nodig.png,images/cb_nodig.png,0,,,,,,,,,,,,,,,,,,,,,,
,,,,,,00008,2023-07-25_18h09.25.285,vbt_B1_day2,2022.2.4,MacIntel,59.99880002,,,,,,,,,,,,,,,,,,,,,,,,,,,down,0,5.5515,,-0.217165799,-0.198467882,1,0,0,6.9691,0,85,85,70,1,ijdel,images/br_ijdel.png,images/cb_ijdel.png,0,,,,,,,,,,,,,,,,,,,,,,
,,,,,,00008,2023-07-25_18h09.25.285,vbt_B1_day2,2022.2.4,MacIntel,59.99880002,,,,,,,,,,,,,,,,,,,,,,,,,,,down,0,10.0999,,-0.217165799,-0.198467882,1,0,0,0.2805,0,86,86,47,1,kabel,images/br_kabel.png,images/cb_kabel.png,0,,,,,,,,,,,,,,,,,,,,,,
,,,,,,00008,2023-07-25_18h09.25.285,vbt_B1_day2,2022.2.4,MacIntel,59.99880002,,,,,,,,,,,,,,,,,,,,,,,,,,,down,0,3.884,,-0.217165799,-0.198467882,1,0,0,0.6834,0,87,87,20,1,site,images/br_site.png,images/cb_site.png,0,,,,,,,,,,,,,,,,,,,,,,
,,,,,,00008,2023-07-25_18h09.25.285,vbt_B1_day2,2022.2.4,MacIntel,59.99880002,,,,,,,,,,,,,,,,,,,,,,,,,,,down,0,29.0662,,-0.217165799,-0.198467882,1,0,0,0.9811,0,88,88,196,1,nakijken,images/br_nakijken.png,images/cb_nakijken.png,0,,,,,,,,,,,,,,,,,,,,,,
,,,,,,00008,2023-07-25_18h09.25.285,vbt_B1_day2,2022.2.4,MacIntel,59.99880002,,,,,,,,,,,,,,,,,,,,,,,,,,,down,0,7.0663,,-0.217165799,-0.198467882,1,0,0,0.4315,0,89,89,49,1,laken,images/br_laken.png,images/cb_laken.png,0,,,,,,,,,,,,,,,,,,,,,,
,,,,,,00008,2023-07-25_18h09.25.285,vbt_B1_day2,2022.2.4,MacIntel,59.99880002,,,,,,,,,,,,,,,,,,,,,,,,,,,down,0,13.1349,,-0.217699653,-0.198211806,1,0,0,1.4005,0,90,90,173,1,apparaat,images/br_apparaat.png,images/cb_apparaat.png,0,,,,,,,,,,,,,,,,,,,,,,
,,,,,,00008,2023-07-25_18h09.25.285,vbt_B1_day2,2022.2.4,MacIntel,59.99880002,,,,,,,,,,,,,,,,,,,,,,,,,,,down,0,10.6998,,-0.216393229,-0.197677951,1,0,0,3.0677,0,91,91,185,1,mijnheer,images/br_mijnheer.png,images/cb_mijnheer.png,0,,,,,,,,,,,,,,,,,,,,,,
,,,,,,00008,2023-07-25_18h09.25.285,vbt_B1_day2,2022.2.4,MacIntel,59.99880002,,,,,,,,,,,,,,,,,,,,,,,,,,,down,0,6.2193,,-0.216393229,-0.197677951,1,0,0,0.6521,0,92,92,148,1,smullen,images/br_smullen.png,images/cb_smullen.png,0,,,,,,,,,,,,,,,,,,,,,,
,,,,,,00008,2023-07-25_18h09.25.285,vbt_B1_day2,2022.2.4,MacIntel,59.99880002,,,,,,,,,,,,,,,,,,,,,,,,,,,down,0,18.219,,-0.216393229,-0.197677951,1,0,0,0.6824,0,93,93,130,1,keihard,images/br_keihard.png,images/cb_keihard.png,0,,,,,,,,,,,,,,,,,,,,,,
,,,,,,00008,2023-07-25_18h09.25.285,vbt_B1_day2,2022.2.4,MacIntel,59.99880002,,,,,,,,,,,,,,,,,,,,,,,,,,,down,0,13.0343,,-0.216393229,-0.197677951,1,0,0,0.4664,0,94,94,36,1,vuur,images/br_vuur.png,images/cb_vuur.png,0,,,,,,,,,,,,,,,,,,,,,,
,,,,,,00008,2023-07-25_18h09.25.285,vbt_B1_day2,2022.2.4,MacIntel,59.99880002,,,,,,,,,,,,,,,,,,,,,,,,,,,down,0,3.5174,,-0.216393229,-0.197677951,1,0,0,0.616,0,95,95,53,1,baron,images/br_baron.png,images/cb_baron.png,0,,,,,,,,,,,,,,,,,,,,,,
,,,,,,00008,2023-07-25_18h09.25.285,vbt_B1_day2,2022.2.4,MacIntel,59.99880002,,,,,,,,,,,,,,,,,,,,,,,,,,,down,0,17.8676,,-0.216393229,-0.197677951,1,0,0,0.4503,0,96,96,59,1,kring,images/br_kring.png,images/cb_kring.png,1,kring,,,,,,,,,,,,,,,,,,,,,
,,,,,,00008,2023-07-25_18h09.25.285,vbt_B1_day2,2022.2.4,MacIntel,59.99880002,,,,,,,,,,,,,,,,,,,,,,,,,,,down,0,1.0508,,-0.216393229,-0.197677951,1,0,0,0.5166,0,97,97,62,1,knaap,images/br_knaap.png,images/cb_knaap.png,0,,,,,,,,,,,,,,,,,,,,,,
,,,,,,00008,2023-07-25_18h09.25.285,vbt_B1_day2,2022.2.4,MacIntel,59.99880002,,,,,,,,,,,,,,,,,,,,,,,,,,,down,0,8.8675,,-0.216649306,-0.197677951,1,0,0,8.3506,0,98,98,61,1,groen,images/br_groen.png,images/cb_groen.png,0,,,,,,,,,,,,,,,,,,,,,,
,,,,,,00008,2023-07-25_18h09.25.285,vbt_B1_day2,2022.2.4,MacIntel,59.99880002,,,,,,,,,,,,,,,,,,,,,,,,,,,down,0,8.2876,,-0.216649306,-0.197677951,1,0,0,0.9314,0,99,99,34,1,vorm,images/br_vorm.png,images/cb_vorm.png,0,,,,,,,,,,,,,,,,,,,,,,
,,,,,,00008,2023-07-25_18h09.25.285,vbt_B1_day2,2022.2.4,MacIntel,59.99880002,,,,,,,,,,,,,,,,,,,,,,,,,,,down,0,13.0672,,-0.217174479,-0.197677951,1,0,0,1.1519,0,100,100,57,1,steek,images/br_steek.png,images/cb_steek.png,1,steek,,,,,,,,,,,,,,,,,,,,,
,,,,,,00008,2023-07-25_18h09.25.285,vbt_B1_day2,2022.2.4,MacIntel,59.99880002,,,,,,,,,,,,,,,,,,,,,,,,,,,down,0,2.7672,,-0.217174479,-0.197677951,1,0,0,0.4485,0,101,101,134,1,geliefd,images/br_geliefd.png,images/cb_geliefd.png,0,,,,,,,,,,,,,,,,,,,,,,
,,,,,,00008,2023-07-25_18h09.25.285,vbt_B1_day2,2022.2.4,MacIntel,59.99880002,,,,,,,,,,,,,,,,,,,,,,,,,,,down,0,8.3056,,-0.217174479,-0.197677951,1,0,0,1.8171,0,102,102,58,1,tekst,images/br_tekst.png,images/cb_tekst.png,1,tekst ,,,,,,,,,,,,,,,,,,,,,
,,,,,,00008,2023-07-25_18h09.25.285,vbt_B1_day2,2022.2.4,MacIntel,59.99880002,,,,,,,,,,,,,,,,,,,,,,,,,,,down,0,1.1407,,-0.209743924,-0.198559028,1,0,0,0.4505,0,103,103,114,1,vullen,images/br_vullen.png,images/cb_vullen.png,0,,,,,,,,,,,,,,,,,,,,,,
,,,,,,00008,2023-07-25_18h09.25.285,vbt_B1_day2,2022.2.4,MacIntel,59.99880002,,,,,,,,,,,,,,,,,,,,,,,,,,,down,0,6.0168,,-0.209743924,-0.198559028,1,0,0,0.8179,0,104,104,54,1,gebit,images/br_gebit.png,images/cb_gebit.png,0,,,,,,,,,,,,,,,,,,,,,,
,,,,,,00008,2023-07-25_18h09.25.285,vbt_B1_day2,2022.2.4,MacIntel,59.99880002,,,,,,,,,,,,,,,,,,,,,,,,,,,down,0,2.2675,,-0.21,-0.198559028,1,0,0,2.5188,0,105,105,65,1,parel,images/br_parel.png,images/cb_parel.png,0,,,,,,,,,,,,,,,,,,,,,,
,,,,,,00008,2023-07-25_18h09.25.285,vbt_B1_day2,2022.2.4,MacIntel,59.99880002,,,,,,,,,,,,,,,,,,,,,,,,,,,down,0,5.3851,,-0.135355903,-0.14124566,1,0,0,1.6169,0,106,106,28,1,stal,images/br_stal.png,images/cb_stal.png,0,,,,,,,,,,,,,,,,,,,,,,
,,,,,,00008,2023-07-25_18h09.25.285,vbt_B1_day2,2022.2.4,MacIntel,59.99880002,,,,,,,,,,,,,,,,,,,,,,,,,,,down,0,6.7181,,-0.135355903,-0.14124566,1,0,0,0.5337,0,107,107,138,1,akkoord,images/br_akkoord.png,images/cb_akkoord.png,1,akkoord,,,,,,,,,,,,,,,,,,,,,
,,,,,,00008,2023-07-25_18h09.25.285,vbt_B1_day2,2022.2.4,MacIntel,59.99880002,,,,,,,,,,,,,,,,,,,,,,,,,,,down,0,1.0519,,-0.135355903,-0.14124566,1,0,0,0.6011,0,108,108,32,1,palm,images/br_palm.png,images/cb_palm.png,0,,,,,,,,,,,,,,,,,,,,,,
,,,,,,00008,2023-07-25_18h09.25.285,vbt_B1_day2,2022.2.4,MacIntel,59.99880002,,,,,,,,,,,,,,,,,,,,,,,,,,,down,0,6.2683,,-0.135355903,-0.142009549,1,0,0,0.52,0,109,109,95,1,vreten,images/br_vreten.png,images/cb_vreten.png,0,,,,,,,,,,,,,,,,,,,,,,
,,,,,,00008,2023-07-25_18h09.25.285,vbt_B1_day2,2022.2.4,MacIntel,59.99880002,,,,,,,,,,,,,,,,,,,,,,,,,,,down,0,3.2504,,-0.135355903,-0.142009549,1,0,0,1.0993,0,110,110,155,1,gerucht,images/br_gerucht.png,images/cb_gerucht.png,0,,,,,,,,,,,,,,,,,,,,,,
,,,,,,00008,2023-07-25_18h09.25.285,vbt_B1_day2,2022.2.4,MacIntel,59.99880002,,,,,,,,,,,,,,,,,,,,,,,,,,,down,0,3.0037,,-0.135355903,-0.141753472,1,0,0,1.5322,0,111,111,187,1,opkijken,images/br_opkijken.png,images/cb_opkijken.png,0,,,,,,,,,,,,,,,,,,,,,,
,,,,,,00008,2023-07-25_18h09.25.285,vbt_B1_day2,2022.2.4,MacIntel,59.99880002,,,,,,,,,,,,,,,,,,,,,,,,,,,down,0,17.25,,-0.135355903,-0.141493056,1,0,0,0.8849,0,112,112,68,1,schat,images/br_schat.png,images/cb_schat.png,0,,,,,,,,,,,,,,,,,,,,,,
,,,,,,00008,2023-07-25_18h09.25.285,vbt_B1_day2,2022.2.4,MacIntel,59.99880002,,,,,,,,,,,,,,,,,,,,,,,,,,,down,0,0.9498,,-0.135355903,-0.141493056,1,0,0,0.8645,0,113,113,133,1,seizoen,images/br_seizoen.png,images/cb_seizoen.png,0,,,,,,,,,,,,,,,,,,,,,,
,,,,,,00008,2023-07-25_18h09.25.285,vbt_B1_day2,2022.2.4,MacIntel,59.99880002,,,,,,,,,,,,,,,,,,,,,,,,,,,down,0,3.7168,,-0.135355903,-0.141493056,1,0,0,0.5665,0,114,114,66,1,lever,images/br_lever.png,images/cb_lever.png,0,,,,,,,,,,,,,,,,,,,,,,
,,,,,,00008,2023-07-25_18h09.25.285,vbt_B1_day2,2022.2.4,MacIntel,59.99880002,,,,,,,,,,,,,,,,,,,,,,,,,,,down,0,1.7689,,-0.135355903,-0.141493056,1,0,0,0.5855,0,115,115,186,1,voorraad,images/br_voorraad.png,images/cb_voorraad.png,0,,,,,,,,,,,,,,,,,,,,,,
,,,,,,00008,2023-07-25_18h09.25.285,vbt_B1_day2,2022.2.4,MacIntel,59.99880002,,,,,,,,,,,,,,,,,,,,,,,,,,,down,0,8.0662,,-0.135355903,-0.141493056,1,0,0,0.8839,0,116,116,146,1,opkomen,images/br_opkomen.png,images/cb_opkomen.png,0,,,,,,,,,,,,,,,,,,,,,,
,,,,,,00008,2023-07-25_18h09.25.285,vbt_B1_day2,2022.2.4,MacIntel,59.99880002,,,,,,,,,,,,,,,,,,,,,,,,,,,down,0,4.6194,,-0.135355903,-0.141493056,1,0,0,0.5848,0,117,117,55,1,praat,images/br_praat.png,images/cb_praat.png,0,,,,,,,,,,,,,,,,,,,,,,
,,,,,,00008,2023-07-25_18h09.25.285,vbt_B1_day2,2022.2.4,MacIntel,59.99880002,,,,,,,,,,,,,,,,,,,,,,,,,,,down,0,4.6876,,-0.135355903,-0.141493056,1,0,0,0.4657,0,118,118,123,1,hiervan,images/br_hiervan.png,images/cb_hiervan.png,0,,,,,,,,,,,,,,,,,,,,,,
,,,,,,00008,2023-07-25_18h09.25.285,vbt_B1_day2,2022.2.4,MacIntel,59.99880002,,,,,,,,,,,,,,,,,,,,,,,,,,,down,0,19.8218,,0.057738715,-0.273767361,1,0,0,0.584,0,119,119,99,1,koffie,images/br_koffie.png,images/cb_koffie.png,1,koffie,,,,,,,,,,,,,,,,,,,,,
,,,,,,00008,2023-07-25_18h09.25.285,vbt_B1_day2,2022.2.4,MacIntel,59.99880002,,,,,,,,,,,,,,,,,,,,,,,,,,,down,0,24.9193,,0.057738715,-0.273767361,1,0,0,0.4509,0,120,120,195,1,middelen,images/br_middelen.png,images/cb_middelen.png,0,,,,,,,,,,,,,,,,,,,,,,
,,,,,,00008,2023-07-25_18h09.25.285,vbt_B1_day2,2022.2.4,MacIntel,59.99880002,,,,,,,,,,,,,,,,,,,,,,,,,,,down,0,11.017,,0.057738715,-0.273767361,1,0,0,9.67,0,121,121,147,1,komisch,images/br_komisch.png,images/cb_komisch.png,0,,,,,,,,,,,,,,,,,,,,,,
,,,,,,00008,2023-07-25_18h09.25.285,vbt_B1_day2,2022.2.4,MacIntel,59.99880002,,,,,,,,,,,,,,,,,,,,,,,,,,,down,0,5.3233,,0.057738715,-0.273767361,1,0,0,0.8828,0,122,122,124,1,bloeien,images/br_bloeien.png,images/cb_bloeien.png,0,,,,,,,,,,,,,,,,,,,,,,
,,,,,,00008,2023-07-25_18h09.25.285,vbt_B1_day2,2022.2.4,MacIntel,59.99880002,,,,,,,,,,,,,,,,,,,,,,,,,,,down,0,2.4848,,0.056931424,-0.273250868,1,0,0,2.8977,0,123,123,106,1,zingen,images/br_zingen.png,images/cb_zingen.png,0,,,,,,,,,,,,,,,,,,,,,,
,,,,,,00008,2023-07-25_18h09.25.285,vbt_B1_day2,2022.2.4,MacIntel,59.99880002,,,,,,,,,,,,,,,,,,,,,,,,,,,down,0,11.268,,0.056931424,-0.273250868,1,0,0,0.5027,0,124,124,128,1,prikken,images/br_prikken.png,images/cb_prikken.png,0,,,,,,,,,,,,,,,,,,,,,,
,,,,,,00008,2023-07-25_18h09.25.285,vbt_B1_day2,2022.2.4,MacIntel,59.99880002,,,,,,,,,,,,,,,,,,,,,,,,,,,down,0,5.6365,,0.056931424,-0.273250868,1,0,0,3.0354,0,125,125,7,1,geld,images/br_geld.png,images/cb_geld.png,0,,,,,,,,,,,,,,,,,,,,,,
,,,,,,00008,2023-07-25_18h09.25.285,vbt_B1_day2,2022.2.4,MacIntel,59.99880002,,,,,,,,,,,,,,,,,,,,,,,,,,,down,0,12.3726,,0.056653646,-0.272456597,1,0,0,2.3337,0,126,126,193,1,weeshuis,images/br_weeshuis.png,images/cb_weeshuis.png,0,,,,,,,,,,,,,,,,,,,,,,
,,,,,,00008,2023-07-25_18h09.25.285,vbt_B1_day2,2022.2.4,MacIntel,59.99880002,,,,,,,,,,,,,,,,,,,,,,,,,,,down,0,3.8911,,0.056653646,-0.272456597,1,0,0,0.5019,0,127,127,191,1,opheffen,images/br_opheffen.png,images/cb_opheffen.png,0,,,,,,,,,,,,,,,,,,,,,,
,,,,,,00008,2023-07-25_18h09.25.285,vbt_B1_day2,2022.2.4,MacIntel,59.99880002,,,,,,,,,,,,,,,,,,,,,,,,,,,down,0,7.2181,,0.056653646,-0.272456597,1,0,0,2.9369,0,128,128,74,1,graaf,images/br_graaf.png,images/cb_graaf.png,0,,,,,,,,,,,,,,,,,,,,,,
,,,,,,00008,2023-07-25_18h09.25.285,vbt_B1_day2,2022.2.4,MacIntel,59.99880002,,,,,,,,,,,,,,,,,,,,,,,,,,,down,0,8.9885,,0.056653646,-0.272456597,1,0,0,1.3487,0,129,129,18,1,blik,images/br_blik.png,images/cb_blik.png,1,blik,,,,,,,,,,,,,,,,,,,,,
,,,,,,00008,2023-07-25_18h09.25.285,vbt_B1_day2,2022.2.4,MacIntel,59.99880002,,,,,,,,,,,,,,,,,,,,,,,,,,,down,0,3.9053,,0.056653646,-0.272456597,1,0,0,0.7661,0,130,130,37,1,mijn,images/br_mijn.png,images/cb_mijn.png,0,,,,,,,,,,,,,,,,,,,,,,
,,,,,,00008,2023-07-25_18h09.25.285,vbt_B1_day2,2022.2.4,MacIntel,59.99880002,,,,,,,,,,,,,,,,,,,,,,,,,,,down,0,6.8337,,0.056653646,-0.272456597,1,0,0,1.3349,0,131,131,90,1,geluid,images/br_geluid.png,images/cb_geluid.png,0,,,,,,,,,,,,,,,,,,,,,,
,,,,,,00008,2023-07-25_18h09.25.285,vbt_B1_day2,2022.2.4,MacIntel,59.99880002,,,,,,,,,,,,,,,,,,,,,,,,,,,down,0,6.1164,,0.056653646,-0.272456597,1,0,0,0.7472,0,132,132,197,1,spanning,images/br_spanning.png,images/cb_spanning.png,0,,,,,,,,,,,,,,,,,,,,,,
,,,,,,00008,2023-07-25_18h09.25.285,vbt_B1_day2,2022.2.4,MacIntel,59.99880002,,,,,,,,,,,,,,,,,,,,,,,,,,,down,0,6.8016,,0.056653646,-0.272456597,1,0,0,0.7663,0,133,133,102,1,legaal,images/br_legaal.png,images/cb_legaal.png,0,,,,,,,,,,,,,,,,,,,,,,
,,,,,,00008,2023-07-25_18h09.25.285,vbt_B1_day2,2022.2.4,MacIntel,59.99880002,,,,,,,,,,,,,,,,,,,,,,,,,,,down,0,4.2501,,0.056653646,-0.272456597,1,0,0,0.715,0,134,134,103,1,joggen,images/br_joggen.png,images/cb_joggen.png,0,,,,,,,,,,,,,,,,,,,,,,
,,,,,,00008,2023-07-25_18h09.25.285,vbt_B1_day2,2022.2.4,MacIntel,59.99880002,,,,,,,,,,,,,,,,,,,,,,,,,,,down,0,5.0673,,0.056653646,-0.272456597,1,0,0,0.7333,0,135,135,151,1,aanzoek,images/br_aanzoek.png,images/cb_aanzoek.png,0,,,,,,,,,,,,,,,,,,,,,,
,,,,,,00008,2023-07-25_18h09.25.285,vbt_B1_day2,2022.2.4,MacIntel,59.99880002,,,,,,,,,,,,,,,,,,,,,,,,,,,down,0,5.8468,,0.056653646,-0.272456597,1,0,0,1.2347,0,136,136,107,1,maling,images/br_maling.png,images/cb_maling.png,0,,,,,,,,,,,,,,,,,,,,,,
,,,,,,00008,2023-07-25_18h09.25.285,vbt_B1_day2,2022.2.4,MacIntel,59.99880002,,,,,,,,,,,,,,,,,,,,,,,,,,,down,0,7.7357,,0.056653646,-0.272456597,1,0,0,0.6694,0,137,137,60,1,jasje,images/br_jasje.png,images/cb_jasje.png,0,,,,,,,,,,,,,,,,,,,,,,
,,,,,,00008,2023-07-25_18h09.25.285,vbt_B1_day2,2022.2.4,MacIntel,59.99880002,,,,,,,,,,,,,,,,,,,,,,,,,,,down,0,5.1996,,0.056375868,-0.271649306,1,0,0,1.0494,0,138,138,26,1,leuk,images/br_leuk.png,images/cb_leuk.png,0,,,,,,,,,,,,,,,,,,,,,,
,,,,,,00008,2023-07-25_18h09.25.285,vbt_B1_day2,2022.2.4,MacIntel,59.99880002,,,,,,,,,,,,,,,,,,,,,,,,,,,down,0,12.7707,,0.056375868,-0.271393229,1,0,0,2.5321,0,139,139,153,1,vervoer,images/br_vervoer.png,images/cb_vervoer.png,0,,,,,,,,,,,,,,,,,,,,,,
,,,,,,00008,2023-07-25_18h09.25.285,vbt_B1_day2,2022.2.4,MacIntel,59.99880002,,,,,,,,,,,,,,,,,,,,,,,,,,,down,0,5.3056,,0.056375868,-0.271393229,1,0,0,0.3689,0,140,140,132,1,grappen,images/br_grappen.png,images/cb_grappen.png,0,,,,,,,,,,,,,,,,,,,,,,
,,,,,,00008,2023-07-25_18h09.25.285,vbt_B1_day2,2022.2.4,MacIntel,59.99880002,,,,,,,,,,,,,,,,,,,,,,,,,,,down,0,9.2504,,0.056375868,-0.271393229,1,0,0,0.8499,0,141,141,29,1,baas,images/br_baas.png,images/cb_baas.png,0,,,,,,,,,,,,,,,,,,,,,,
,,,,,,00008,2023-07-25_18h09.25.285,vbt_B1_day2,2022.2.4,MacIntel,59.99880002,,,,,,,,,,,,,,,,,,,,,,,,,,,down,0,3.4487,,0.056375868,-0.271393229,1,0,0,1.1492,0,142,142,108,1,excuus,images/br_excuus.png,images/cb_excuus.png,0,,,,,,,,,,,,,,,,,,,,,,
,,,,,,00008,2023-07-25_18h09.25.285,vbt_B1_day2,2022.2.4,MacIntel,59.99880002,,,,,,,,,,,,,,,,,,,,,,,,,,,down,0,8.4565,,0.056375868,-0.271393229,1,0,0,1.0859,0,143,143,73,1,volop,images/br_volop.png,images/cb_volop.png,0,,,,,,,,,,,,,,,,,,,,,,
,,,,,,00008,2023-07-25_18h09.25.285,vbt_B1_day2,2022.2.4,MacIntel,59.99880002,,,,,,,,,,,,,,,,,,,,,,,,,,,down,0,3.4005,,0.056119792,-0.271393229,1,0,0,1.2508,0,144,144,10,1,leek,images/br_leek.png,images/cb_leek.png,0,,,,,,,,,,,,,,,,,,,,,,
,,,,,,00008,2023-07-25_18h09.25.285,vbt_B1_day2,2022.2.4,MacIntel,59.99880002,,,,,,,,,,,,,,,,,,,,,,,,,,,down,0,7.749,,0.056119792,-0.271393229,1,0,0,0.5172,0,145,145,71,1,bever,images/br_bever.png,images/cb_bever.png,0,,,,,,,,,,,,,,,,,,,,,,
,,,,,,00008,2023-07-25_18h09.25.285,vbt_B1_day2,2022.2.4,MacIntel,59.99880002,,,,,,,,,,,,,,,,,,,,,,,,,,,down,0,9.6358,,0.056119792,-0.271137153,1,0,0,5.3009,0,146,146,11,1,mode,images/br_mode.png,images/cb_mode.png,0,,,,,,,,,,,,,,,,,,,,,,
,,,,,,00008,2023-07-25_18h09.25.285,vbt_B1_day2,2022.2.4,MacIntel,59.99880002,,,,,,,,,,,,,,,,,,,,,,,,,,,down,0,7.3962,,0.056119792,-0.271137153,1,0,0,0.4322,0,147,147,30,1,uien,images/br_uien.png,images/cb_uien.png,0,,,,,,,,,,,,,,,,,,,,,,
,,,,,,00008,2023-07-25_18h09.25.285,vbt_B1_day2,2022.2.4,MacIntel,59.99880002,,,,,,,,,,,,,,,,,,,,,,,,,,,down,0,3.9668,,0.056119792,-0.271137153,1,0,0,6.9836,0,148,148,81,1,dubbel,images/br_dubbel.png,images/cb_dubbel.png,0,,,,,,,,,,,,,,,,,,,,,,
,,,,,,00008,2023-07-25_18h09.25.285,vbt_B1_day2,2022.2.4,MacIntel,59.99880002,,,,,,,,,,,,,,,,,,,,,,,,,,,down,0,8.1576,,0.055863715,-0.271137153,1,0,0,7.2987,0,149,149,192,1,schaamte,images/br_schaamte.png,images/cb_schaamte.png,0,,,,,,,,,,,,,,,,,,,,,,
,,,,,,00008,2023-07-25_18h09.25.285,vbt_B1_day2,2022.2.4,MacIntel,59.99880002,,,,,,,,,,,,,,,,,,,,,,,,,,,down,0,6.3002,,0.055863715,-0.271137153,1,0,0,1.1038,0,150,150,93,1,waarop,images/br_waarop.png,images/cb_waarop.png,0,,,,,,,,,,,,,,,,,,,,,,
,,,,,,00008,2023-07-25_18h09.25.285,vbt_B1_day2,2022.2.4,MacIntel,59.99880002,,,,,,,,,,,,,,,,,,,,,,,,,,,down,0,3.6419,,0.055863715,-0.271137153,1,0,0,0.6662,0,151,151,13,1,kaal,images/br_kaal.png,images/cb_kaal.png,0,,,,,,,,,,,,,,,,,,,,,,
,,,,,,00008,2023-07-25_18h09.25.285,vbt_B1_day2,2022.2.4,MacIntel,59.99880002,,,,,,,,,,,,,,,,,,,,,,,,,,,down,0,12.5171,,0.055863715,-0.271137153,1,0,0,0.837,0,152,152,51,1,samen,images/br_samen.png,images/cb_samen.png,0,,,,,,,,,,,,,,,,,,,,,,
,,,,,,00008,2023-07-25_18h09.25.285,vbt_B1_day2,2022.2.4,MacIntel,59.99880002,,,,,,,,,,,,,,,,,,,,,,,,,,,down,0,8.0745,,0.055863715,-0.271137153,1,0,0,4.3338,0,153,153,98,1,kreeft,images/br_kreeft.png,images/cb_kreeft.png,1,kreeft,,,,,,,,,,,,,,,,,,,,,
,,,,,,00008,2023-07-25_18h09.25.285,vbt_B1_day2,2022.2.4,MacIntel,59.99880002,,,,,,,,,,,,,,,,,,,,,,,,,,,down,0,4.8979,,0.055863715,-0.271137153,1,0,0,0.3512,0,154,154,33,1,vlek,images/br_vlek.png,images/cb_vlek.png,0,,,,,,,,,,,,,,,,,,,,,,
,,,,,,00008,2023-07-25_18h09.25.285,vbt_B1_day2,2022.2.4,MacIntel,59.99880002,,,,,,,,,,,,,,,,,,,,,,,,,,,down,0,5.184,,0.055863715,-0.271137153,1,0,0,0.4535,0,155,155,19,1,geit,images/br_geit.png,images/cb_geit.png,1,geit,,,,,,,,,,,,,,,,,,,,,
,,,,,,00008,2023-07-25_18h09.25.285,vbt_B1_day2,2022.2.4,MacIntel,59.99880002,,,,,,,,,,,,,,,,,,,,,,,,,,,down,0,6.0423,,0.055607639,-0.271137153,1,0,0,1.117,0,156,156,50,1,stoom,images/br_stoom.png,images/cb_stoom.png,0,,,,,,,,,,,,,,,,,,,,,,
,,,,,,00008,2023-07-25_18h09.25.285,vbt_B1_day2,2022.2.4,MacIntel,59.99880002,,,,,,,,,,,,,,,,,,,,,,,,,,,down,0,5.1603,,0.055607639,-0.271137153,1,0,0,2.3661,0,157,157,163,1,schuilen,images/br_schuilen.png,images/cb_schuilen.png,0,,,,,,,,,,,,,,,,,,,,,,
,,,,,,00008,2023-07-25_18h09.25.285,vbt_B1_day2,2022.2.4,MacIntel,59.99880002,,,,,,,,,,,,,,,,,,,,,,,,,,,down,0,12.1056,,0.05531684,-0.269479167,1,0,0,1.7483,0,158,158,139,1,stiekem,images/br_stiekem.png,images/cb_stiekem.png,1,stiekem,,,,,,,,,,,,,,,,,,,,,
,,,,,,00008,2023-07-25_18h09.25.285,vbt_B1_day2,2022.2.4,MacIntel,59.99880002,,,,,,,,,,,,,,,,,,,,,,,,,,,down,0,7.1172,,0.05531684,-0.269479167,1,0,0,1.369,0,159,159,154,1,aflopen,images/br_aflopen.png,images/cb_aflopen.png,0,,,,,,,,,,,,,,,,,,,,,,
,,,,,,00008,2023-07-25_18h09.25.285,vbt_B1_day2,2022.2.4,MacIntel,59.99880002,,,,,,,,,,,,,,,,,,,,,,,,,,,down,0,6.2903,,0.05531684,-0.269479167,1,0,0,2.1373,0,160,160,78,1,leren,images/br_leren.png,images/cb_leren.png,0,,,,,,,,,,,,,,,,,,,,,,
,,,,,,00008,2023-07-25_18h09.25.285,vbt_B1_day2,2022.2.4,MacIntel,59.99880002,,,,,,,,,,,,,,,,,,,,,,,,,,,down,0,5.3408,,0.05531684,-0.269479167,1,0,0,0.6318,0,161,161,119,1,liefje,images/br_liefje.png,images/cb_liefje.png,0,,,,,,,,,,,,,,,,,,,,,,
,,,,,,00008,2023-07-25_18h09.25.285,vbt_B1_day2,2022.2.4,MacIntel,59.99880002,,,,,,,,,,,,,,,,,,,,,,,,,,,down,0,6.525,,0.05531684,-0.269479167,1,0,0,0.8337,0,162,162,140,1,blijven,images/br_blijven.png,images/cb_blijven.png,0,,,,,,,,,,,,,,,,,,,,,,
,,,,,,00008,2023-07-25_18h09.25.285,vbt_B1_day2,2022.2.4,MacIntel,59.99880002,,,,,,,,,,,,,,,,,,,,,,,,,,,down,0,8.1285,,0.05531684,-0.269479167,1,0,0,1.6356,0,163,163,21,1,mist,images/br_mist.png,images/cb_mist.png,0,,,,,,,,,,,,,,,,,,,,,,
,,,,,,00008,2023-07-25_18h09.25.285,vbt_B1_day2,2022.2.4,MacIntel,59.99880002,,,,,,,,,,,,,,,,,,,,,,,,,,,down,0,21.326,,0.05531684,-0.269479167,1,0,0,0.5173,0,164,164,170,1,schatten,images/br_schatten.png,images/cb_schatten.png,0,,,,,,,,,,,,,,,,,,,,,,
,,,,,,00008,2023-07-25_18h09.25.285,vbt_B1_day2,2022.2.4,MacIntel,59.99880002,,,,,,,,,,,,,,,,,,,,,,,,,,,down,0,4.7248,,0.05531684,-0.269479167,1,0,0,1.2506,0,165,165,84,1,lokken,images/br_lokken.png,images/cb_lokken.png,0,,,,,,,,,,,,,,,,,,,,,,
,,,,,,00008,2023-07-25_18h09.25.285,vbt_B1_day2,2022.2.4,MacIntel,59.99880002,,,,,,,,,,,,,,,,,,,,,,,,,,,down,0,5.0405,,0.05531684,-0.269479167,1,0,0,0.8849,0,166,166,112,1,lukken,images/br_lukken.png,images/cb_lukken.png,0,,,,,,,,,,,,,,,,,,,,,,
,,,,,,00008,2023-07-25_18h09.25.285,vbt_B1_day2,2022.2.4,MacIntel,59.99880002,,,,,,,,,,,,,,,,,,,,,,,,,,,down,0,21.8908,,0.05531684,-0.269479167,1,0,0,0.698,0,167,167,150,1,gegeven,images/br_gegeven.png,images/cb_gegeven.png,0,,,,,,,,,,,,,,,,,,,,,,
,,,,,,00008,2023-07-25_18h09.25.285,vbt_B1_day2,2022.2.4,MacIntel,59.99880002,,,,,,,,,,,,,,,,,,,,,,,,,,,down,0,2.7682,,0.05531684,-0.269479167,1,0,0,0.5324,0,168,168,85,1,heilig,images/br_heilig.png,images/cb_heilig.png,0,,,,,,,,,,,,,,,,,,,,,,
,,,,,,00008,2023-07-25_18h09.25.285,vbt_B1_day2,2022.2.4,MacIntel,59.99880002,,,,,,,,,,,,,,,,,,,,,,,,,,,down,0,18.7091,,0.05531684,-0.269479167,1,0,0,0.3338,0,169,169,4,1,moes,images/br_moes.png,images/cb_moes.png,0,,,,,,,,,,,,,,,,,,,,,,
,,,,,,00008,2023-07-25_18h09.25.285,vbt_B1_day2,2022.2.4,MacIntel,59.99880002,,,,,,,,,,,,,,,,,,,,,,,,,,,down,0,9.2754,,0.05531684,-0.269479167,1,0,0,0.3312,0,170,170,104,1,zweven,images/br_zweven.png,images/cb_zweven.png,0,,,,,,,,,,,,,,,,,,,,,,
,,,,,,00008,2023-07-25_18h09.25.285,vbt_B1_day2,2022.2.4,MacIntel,59.99880002,,,,,,,,,,,,,,,,,,,,,,,,,,,down,0,13.5004,,0.05531684,-0.269479167,1,0,0,0.5168,0,171,171,23,1,zout,images/br_zout.png,images/cb_zout.png,0,,,,,,,,,,,,,,,,,,,,,,
,,,,,,00008,2023-07-25_18h09.25.285,vbt_B1_day2,2022.2.4,MacIntel,59.99880002,,,,,,,,,,,,,,,,,,,,,,,,,,,down,0,11.6922,,0.05531684,-0.269479167,1,0,0,0.6823,0,172,172,97,1,loyaal,images/br_loyaal.png,images/cb_loyaal.png,1,loyaal,,,,,,,,,,,,,,,,,,,,,
,,,,,,00008,2023-07-25_18h09.25.285,vbt_B1_day2,2022.2.4,MacIntel,59.99880002,,,,,,,,,,,,,,,,,,,,,,,,,,,down,0,15.8314,,0.051263021,-0.269479167,1,0,0,0.2862,0,173,173,125,1,aanzien,images/br_aanzien.png,images/cb_aanzien.png,0,,,,,,,,,,,,,,,,,,,,,,
,,,,,,00008,2023-07-25_18h09.25.285,vbt_B1_day2,2022.2.4,MacIntel,59.99880002,,,,,,,,,,,,,,,,,,,,,,,,,,,down,0,27.1664,,0.051263021,-0.269479167,1,0,0,0.282,0,174,174,120,1,klimmen,images/br_klimmen.png,images/cb_klimmen.png,0,,,,,,,,,,,,,,,,,,,,,,
,,,,,,00008,2023-07-25_18h09.25.285,vbt_B1_day2,2022.2.4,MacIntel,59.99880002,,,,,,,,,,,,,,,,,,,,,,,,,,,down,0,6.3,,0.051263021,-0.269479167,1,0,0,0.3831,0,175,175,56,1,traag,images/br_traag.png,images/cb_traag.png,1,traag,,,,,,,,,,,,,,,,,,,,,
,,,,,,00008,2023-07-25_18h09.25.285,vbt_B1_day2,2022.2.4,MacIntel,59.99880002,,,,,,,,,,,,,,,,,,,,,,,,,,,down,0,0.725,,0.051263021,-0.269479167,1,0,0,0.6036,0,176,176,86,1,woning,images/br_woning.png,images/cb_woning.png,0,,,,,,,,,,,,,,,,,,,,,,
,,,,,,00008,2023-07-25_18h09.25.285,vbt_B1_day2,2022.2.4,MacIntel,59.99880002,,,,,,,,,,,,,,,,,,,,,,,,,,,down,0,2.0743,,0.051263021,-0.269479167,1,0,0,0.5992,0,177,177,143,1,hechten,images/br_hechten.png,images/cb_hechten.png,0,,,,,,,,,,,,,,,,,,,,,,
,,,,,,00008,2023-07-25_18h09.25.285,vbt_B1_day2,2022.2.4,MacIntel,59.99880002,,,,,,,,,,,,,,,,,,,,,,,,,,,down,0,6.1247,,0.051263021,-0.269479167,1,0,0,1.35,0,178,178,180,1,openbaar,images/br_openbaar.png,images/cb_openbaar.png,0,,,,,,,,,,,,,,,,,,,,,,
,,,,,,00008,2023-07-25_18h09.25.285,vbt_B1_day2,2022.2.4,MacIntel,59.99880002,,,,,,,,,,,,,,,,,,,,,,,,,,,down,0,5.0681,,0.051263021,-0.269479167,1,0,0,0.85,0,179,179,188,1,strekken,images/br_strekken.png,images/cb_strekken.png,0,,,,,,,,,,,,,,,,,,,,,,
,,,,,,00008,2023-07-25_18h09.25.285,vbt_B1_day2,2022.2.4,MacIntel,59.99880002,,,,,,,,,,,,,,,,,,,,,,,,,,,down,0,1.3391,,0.051263021,-0.269479167,1,0,0,0.6982,0,180,180,67,1,zwart,images/br_zwart.png,images/cb_zwart.png,0,,,,,,,,,,,,,,,,,,,,,,
,,,,,,00008,2023-07-25_18h09.25.285,vbt_B1_day2,2022.2.4,MacIntel,59.99880002,,,,,,,,,,,,,,,,,,,,,,,,,,,down,0,6.3299,,-0.006519097,-0.244661458,1,0,0,0.563,0,181,181,76,1,afval,images/br_afval.png,images/cb_afval.png,0,,,,,,,,,,,,,,,,,,,,,,
,,,,,,00008,2023-07-25_18h09.25.285,vbt_B1_day2,2022.2.4,MacIntel,59.99880002,,,,,,,,,,,,,,,,,,,,,,,,,,,down,0,5.2015,,-0.005698785,-0.243033854,1,0,0,0.6156,0,182,182,131,1,opzicht,images/br_opzicht.png,images/cb_opzicht.png,0,,,,,,,,,,,,,,,,,,,,,,
,,,,,,00008,2023-07-25_18h09.25.285,vbt_B1_day2,2022.2.4,MacIntel,59.99880002,,,,,,,,,,,,,,,,,,,,,,,,,,,down,0,4.6217,,-0.006792535,-0.243263889,1,0,0,0.4998,0,183,183,82,1,muziek,images/br_muziek.png,images/cb_muziek.png,0,,,,,,,,,,,,,,,,,,,,,,
,,,,,,00008,2023-07-25_18h09.25.285,vbt_B1_day2,2022.2.4,MacIntel,59.99880002,,,,,,,,,,,,,,,,,,,,,,,,,,,down,0,20.4445,,-0.006792535,-0.243263889,1,0,0,0.2469,0,184,184,171,1,aarzelen,images/br_aarzelen.png,images/cb_aarzelen.png,0,,,,,,,,,,,,,,,,,,,,,,
,,,,,,00008,2023-07-25_18h09.25.285,vbt_B1_day2,2022.2.4,MacIntel,59.99880002,,,,,,,,,,,,,,,,,,,,,,,,,,,down,0,4.1772,,-0.006792535,-0.243263889,1,0,0,0.284,0,185,185,14,1,rijp,images/br_rijp.png,images/cb_rijp.png,0,,,,,,,,,,,,,,,,,,,,,,
,,,,,,00008,2023-07-25_18h09.25.285,vbt_B1_day2,2022.2.4,MacIntel,59.99880002,,,,,,,,,,,,,,,,,,,,,,,,,,,down,0,2.0758,,-0.006792535,-0.243263889,1,0,0,0.3018,0,186,186,152,1,afnemen,images/br_afnemen.png,images/cb_afnemen.png,0,,,,,,,,,,,,,,,,,,,,,,
,,,,,,00008,2023-07-25_18h09.25.285,vbt_B1_day2,2022.2.4,MacIntel,59.99880002,,,,,,,,,,,,,,,,,,,,,,,,,,,down,0,4.4901,,-0.006792535,-0.243263889,1,0,0,0.3669,0,187,187,15,1,soda,images/br_soda.png,images/cb_soda.png,0,,,,,,,,,,,,,,,,,,,,,,
,,,,,,00008,2023-07-25_18h09.25.285,vbt_B1_day2,2022.2.4,MacIntel,59.99880002,,,,,,,,,,,,,,,,,,,,,,,,,,,down,0,7.2586,,-0.006792535,-0.243263889,1,0,0,0.2655,0,188,188,160,1,daarheen,images/br_daarheen.png,images/cb_daarheen.png,0,,,,,,,,,,,,,,,,,,,,,,
,,,,,,00008,2023-07-25_18h09.25.285,vbt_B1_day2,2022.2.4,MacIntel,59.99880002,,,,,,,,,,,,,,,,,,,,,,,,,,,down,0,1.3086,,-0.006792535,-0.243263889,1,0,0,0.269,0,189,189,6,1,diep,images/br_diep.png,images/cb_diep.png,0,,,,,,,,,,,,,,,,,,,,,,
,,,,,,00008,2023-07-25_18h09.25.285,vbt_B1_day2,2022.2.4,MacIntel,59.99880002,,,,,,,,,,,,,,,,,,,,,,,,,,,down,0,6.9718,,-0.006792535,-0.243263889,1,0,0,0.6975,0,190,190,199,1,beseffen,images/br_beseffen.png,images/cb_beseffen.png,0,,,,,,,,,,,,,,,,,,,,,,
,,,,,,00008,2023-07-25_18h09.25.285,vbt_B1_day2,2022.2.4,MacIntel,59.99880002,,,,,,,,,,,,,,,,,,,,,,,,,,,down,0,1.9678,,-0.006792535,-0.243263889,1,0,0,0.6338,0,191,191,141,1,knielen,images/br_knielen.png,images/cb_knielen.png,0,,,,,,,,,,,,,,,,,,,,,,
,,,,,,00008,2023-07-25_18h09.25.285,vbt_B1_day2,2022.2.4,MacIntel,59.99880002,,,,,,,,,,,,,,,,,,,,,,,,,,,down,0,3.5888,,-0.006792535,-0.243263889,1,0,0,0.2835,0,192,192,129,1,verhaal,images/br_verhaal.png,images/cb_verhaal.png,0,,,,,,,,,,,,,,,,,,,,,,
,,,,,,00008,2023-07-25_18h09.25.285,vbt_B1_day2,2022.2.4,MacIntel,59.99880002,,,,,,,,,,,,,,,,,,,,,,,,,,,down,0,4.0239,,-0.006792535,-0.243263889,1,0,0,0.5336,0,193,193,35,1,lust,images/br_lust.png,images/cb_lust.png,0,,,,,,,,,,,,,,,,,,,,,,
,,,,,,00008,2023-07-25_18h09.25.285,vbt_B1_day2,2022.2.4,MacIntel,59.99880002,,,,,,,,,,,,,,,,,,,,,,,,,,,down,0,2.6837,,-0.006792535,-0.243263889,1,0,0,0.7495,0,194,194,183,1,getuigen,images/br_getuigen.png,images/cb_getuigen.png,0,,,,,,,,,,,,,,,,,,,,,,
,,,,,,00008,2023-07-25_18h09.25.285,vbt_B1_day2,2022.2.4,MacIntel,59.99880002,,,,,,,,,,,,,,,,,,,,,,,,,,,down,0,30.6463,,-0.006792535,-0.243263889,1,0,0,0.4022,0,195,195,178,1,huisdier,images/br_huisdier.png,images/cb_huisdier.png,1,huisdier,,,,,,,,,,,,,,,,,,,,,
,,,,,,00008,2023-07-25_18h09.25.285,vbt_B1_day2,2022.2.4,MacIntel,59.99880002,,,,,,,,,,,,,,,,,,,,,,,,,,,down,0,9.583,,-0.007048611,-0.243263889,1,0,0,0.3838,0,196,196,175,1,heengaan,images/br_heengaan.png,images/cb_heengaan.png,0,,,,,,,,,,,,,,,,,,,,,,
,,,,,,00008,2023-07-25_18h09.25.285,vbt_B1_day2,2022.2.4,MacIntel,59.99880002,,,,,,,,,,,,,,,,,,,,,,,,,,,down,0,6.8736,,-0.006263021,-0.243263889,1,0,0,0.1642,0,197,197,157,1,uitlaat,images/br_uitlaat.png,images/cb_uitlaat.png,0,,,,,,,,,,,,,,,,,,,,,,
,,,,,,00008,2023-07-25_18h09.25.285,vbt_B1_day2,2022.2.4,MacIntel,59.99880002,,,,,,,,,,,,,,,,,,,,,,,,,,,down,0,0.5054,,-0.011597222,-0.246523437,1,0,0,0.3155,0,198,198,126,1,kasteel,images/br_kasteel.png,images/cb_kasteel.png,0,,,,,,,,,,,,,,,,,,,,,,
,,,,,,00008,2023-07-25_18h09.25.285,vbt_B1_day2,2022.2.4,MacIntel,59.99880002,,,,,,,,,,,,,,,,,,,,,,,,,,,down,0,1.6584,,-0.016783854,-0.244088542,1,0,0,0.283,0,199,199,5,1,blad,images/br_blad.png,images/cb_blad.png,0,,,,,,,,,,,,,,,,,,,,,,
,,,,,,00008,2023-07-25_18h09.25.285,vbt_B1_day2,2022.2.4,MacIntel,59.99880002,,,,,,,,,,,,,,,,,,,,,,,,,,,,,,,,,,,,,,,,,,,,,,,-0.173246528,-0.320529514,1,0,0,,,,,,,,,,,,,,,,
,,,,,,00008,2023-07-25_18h09.25.285,vbt_B1_day2,2022.2.4,MacIntel,59.99880002,,,,,,,,,,,,,,,,,,,,,,,,,,,,,,,,,,,,,,,,,,,,,,,,,,,,-0.113016493,-0.296514757,1,0,0,,,,,,,,,,,
,,,,,,00008,2023-07-25_18h09.25.285,vbt_B1_day2,2022.2.4,MacIntel,59.99880002,,,,,,,,,,,,,,,,,,,,,,,,,,,,,,,,,,,,,,,,,,doodmoe,images/br_doodmoe.png,images/cb_doodmoe.png,,moom..,,,,,,,,,,,-0.113016493,-0.296514757,1,0,0,moom..,0,0,0,15,1
,,,,,,00008,2023-07-25_18h09.25.285,vbt_B1_day2,2022.2.4,MacIntel,59.99880002,,,,,,,,,,,,,,,,,,,,,,,,,,,,,,,,,,,,,,,,,,koorts,images/br_koorts.png,images/cb_koorts.png,,koorts,,,,,,,,,,,-0.113016493,-0.296514757,1,0,0,koorts,0,1,1,50,1
,,,,,,00008,2023-07-25_18h09.25.285,vbt_B1_day2,2022.2.4,MacIntel,59.99880002,,,,,,,,,,,,,,,,,,,,,,,,,,,,,,,,,,,,,,,,,,blad,images/br_blad.png,images/cb_blad.png,,blad,,,,,,,,,,,-0.113016493,-0.296514757,1,0,0,blad,0,2,2,1,1
,,,,,,00008,2023-07-25_18h09.25.285,vbt_B1_day2,2022.2.4,MacIntel,59.99880002,,,,,,,,,,,,,,,,,,,,,,,,,,,,,,,,,,,,,,,,,,trots,images/br_trots.png,images/cb_trots.png,,trots,,,,,,,,,,,-0.113016493,-0.296514757,1,0,0,trots,0,3,3,44,1
,,,,,,00008,2023-07-25_18h09.25.285,vbt_B1_day2,2022.2.4,MacIntel,59.99880002,,,,,,,,,,,,,,,,,,,,,,,,,,,,,,,,,,,,,,,,,,geld,images/br_geld.png,images/cb_geld.png,,geld,,,,,,,,,,,-0.113016493,-0.296514757,1,0,0,geld,0,4,4,3,1
,,,,,,00008,2023-07-25_18h09.25.285,vbt_B1_day2,2022.2.4,MacIntel,59.99880002,,,,,,,,,,,,,,,,,,,,,,,,,,,,,,,,,,,,,,,,,,piste,images/br_piste.png,images/cb_piste.png,,piste,,,,,,,,,,,-0.113016493,-0.296514757,1,0,0,piste,0,5,5,5,1
,,,,,,00008,2023-07-25_18h09.25.285,vbt_B1_day2,2022.2.4,MacIntel,59.99880002,,,,,,,,,,,,,,,,,,,,,,,,,,,,,,,,,,,,,,,,,,zwager,images/br_zwager.png,images/cb_zwager.png,,.....,,,,,,,,,,,-0.113016493,-0.296514757,1,0,0,.....,0,6,6,49,1
,,,,,,00008,2023-07-25_18h09.25.285,vbt_B1_day2,2022.2.4,MacIntel,59.99880002,,,,,,,,,,,,,,,,,,,,,,,,,,,,,,,,,,,,,,,,,,lokken,images/br_lokken.png,images/cb_lokken.png,,lokken,,,,,,,,,,,-0.113016493,-0.296514757,1,0,0,lokken,0,7,7,8,1
,,,,,,00008,2023-07-25_18h09.25.285,vbt_B1_day2,2022.2.4,MacIntel,59.99880002,,,,,,,,,,,,,,,,,,,,,,,,,,,,,,,,,,,,,,,,,,sjijfel,images/br_sjijfel.png,images/cb_sjijfel.png,,sj....,,,,,,,,,,,-0.113016493,-0.296514757,1,0,0,sj....,0,8,8,33,1
,,,,,,00008,2023-07-25_18h09.25.285,vbt_B1_day2,2022.2.4,MacIntel,59.99880002,,,,,,,,,,,,,,,,,,,,,,,,,,,,,,,,,,,,,,,,,,dode,images/br_dode.png,images/cb_dode.png,,dode,,,,,,,,,,,-0.113016493,-0.296514757,1,0,0,dode,0,9,9,41,1
,,,,,,00008,2023-07-25_18h09.25.285,vbt_B1_day2,2022.2.4,MacIntel,59.99880002,,,,,,,,,,,,,,,,,,,,,,,,,,,,,,,,,,,,,,,,,,opdatten,images/br_opdatten.png,images/cb_opdatten.png,,opdelen,,,,,,,,,,,-0.113016493,-0.296514757,1,0,0,opdelen,0,10,10,37,1
,,,,,,00008,2023-07-25_18h09.25.285,vbt_B1_day2,2022.2.4,MacIntel,59.99880002,,,,,,,,,,,,,,,,,,,,,,,,,,,,,,,,,,,,,,,,,,jong,images/br_jong.png,images/cb_jong.png,,.ong,,,,,,,,,,,-0.113016493,-0.296514757,1,0,0,.ong,0,11,11,43,1
,,,,,,00008,2023-07-25_18h09.25.285,vbt_B1_day2,2022.2.4,MacIntel,59.99880002,,,,,,,,,,,,,,,,,,,,,,,,,,,,,,,,,,,,,,,,,,agressie,images/br_agressie.png,images/cb_agressie.png,,agr....,,,,,,,,,,,-0.113016493,-0.296514757,1,0,0,agr....,0,12,12,59,1
,,,,,,00008,2023-07-25_18h09.25.285,vbt_B1_day2,2022.2.4,MacIntel,59.99880002,,,,,,,,,,,,,,,,,,,,,,,,,,,,,,,,,,,,,,,,,,strikken,images/br_strikken.png,images/cb_strikken.png,,str...,,,,,,,,,,,-0.113016493,-0.296514757,1,0,0,str...,0,13,13,18,1
,,,,,,00008,2023-07-25_18h09.25.285,vbt_B1_day2,2022.2.4,MacIntel,59.99880002,,,,,,,,,,,,,,,,,,,,,,,,,,,,,,,,,,,,,,,,,,bloeien,images/br_bloeien.png,images/cb_bloeien.png,,bloeien,,,,,,,,,,,-0.113016493,-0.296514757,1,0,0,bloeien,0,14,14,12,1
,,,,,,00008,2023-07-25_18h09.25.285,vbt_B1_day2,2022.2.4,MacIntel,59.99880002,,,,,,,,,,,,,,,,,,,,,,,,,,,,,,,,,,,,,,,,,,woning,images/br_woning.png,images/cb_woning.png,,koning,,,,,,,,,,,0.056345486,-0.207669271,1,0,0,koning,0,15,15,10,1
,,,,,,00008,2023-07-25_18h09.25.285,vbt_B1_day2,2022.2.4,MacIntel,59.99880002,,,,,,,,,,,,,,,,,,,,,,,,,,,,,,,,,,,,,,,,,,toeval,images/br_toeval.png,images/cb_toeval.png,,.or...,,,,,,,,,,,0.056345486,-0.207669271,1,0,0,.or...,0,16,16,11,1
,,,,,,00008,2023-07-25_18h09.25.285,vbt_B1_day2,2022.2.4,MacIntel,59.99880002,,,,,,,,,,,,,,,,,,,,,,,,,,,,,,,,,,,,,,,,,,remel,images/br_remel.png,images/cb_remel.png,,re...,,,,,,,,,,,0.056345486,-0.207669271,1,0,0,re...,0,17,17,25,1
,,,,,,00008,2023-07-25_18h09.25.285,vbt_B1_day2,2022.2.4,MacIntel,59.99880002,,,,,,,,,,,,,,,,,,,,,,,,,,,,,,,,,,,,,,,,,,clan,images/br_clan.png,images/cb_clan.png,,cl...,,,,,,,,,,,0.056345486,-0.207669271,1,0,0,cl...,0,18,18,40,1
,,,,,,00008,2023-07-25_18h09.25.285,vbt_B1_day2,2022.2.4,MacIntel,59.99880002,,,,,,,,,,,,,,,,,,,,,,,,,,,,,,,,,,,,,,,,,,aanvraag,images/br_aanvraag.png,images/cb_aanvraag.png,,aanvragen,,,,,,,,,,,0.056345486,-0.207669271,1,0,0,aanvragen,0,19,19,57,1
,,,,,,00008,2023-07-25_18h09.25.285,vbt_B1_day2,2022.2.4,MacIntel,59.99880002,,,,,,,,,,,,,,,,,,,,,,,,,,,,,,,,,,,,,,,,,,welzijn,images/br_welzijn.png,images/cb_welzijn.png,,waal...,,,,,,,,,,,0.058107639,-0.21796441,1,0,0,waal...,0,20,20,52,1
,,,,,,00008,2023-07-25_18h09.25.285,vbt_B1_day2,2022.2.4,MacIntel,59.99880002,,,,,,,,,,,,,,,,,,,,,,,,,,,,,,,,,,,,,,,,,,inzicht,images/br_inzicht.png,images/cb_inzicht.png,,e.....,,,,,,,,,,,0.058107639,-0.21796441,1,0,0,e.....,0,21,21,53,1
,,,,,,00008,2023-07-25_18h09.25.285,vbt_B1_day2,2022.2.4,MacIntel,59.99880002,,,,,,,,,,,,,,,,,,,,,,,,,,,,,,,,,,,,,,,,,,lurgen,images/br_lurgen.png,images/cb_lurgen.png,,l.rgi.,,,,,,,,,,,0.058107639,-0.21796441,1,0,0,l.rgi.,0,22,22,29,1
,,,,,,00008,2023-07-25_18h09.25.285,vbt_B1_day2,2022.2.4,MacIntel,59.99880002,,,,,,,,,,,,,,,,,,,,,,,,,,,,,,,,,,,,,,,,,,prekken,images/br_prekken.png,images/cb_prekken.png,,..ekke..,,,,,,,,,,,0.058107639,-0.21796441,1,0,0,..ekke..,0,23,23,34,1
,,,,,,00008,2023-07-25_18h09.25.285,vbt_B1_day2,2022.2.4,MacIntel,59.99880002,,,,,,,,,,,,,,,,,,,,,,,,,,,,,,,,,,,,,,,,,,jagen,images/br_jagen.png,images/cb_jagen.png,,tr...,,,,,,,,,,,0.058107639,-0.21796441,1,0,0,tr...,0,24,24,6,1
,,,,,,00008,2023-07-25_18h09.25.285,vbt_B1_day2,2022.2.4,MacIntel,59.99880002,,,,,,,,,,,,,,,,,,,,,,,,,,,,,,,,,,,,,,,,,,manieren,images/br_manieren.png,images/cb_manieren.png,,.a....,,,,,,,,,,,0.058107639,-0.21796441,1,0,0,.a....,0,25,25,56,1
,,,,,,00008,2023-07-25_18h09.25.285,vbt_B1_day2,2022.2.4,MacIntel,59.99880002,,,,,,,,,,,,,,,,,,,,,,,,,,,,,,,,,,,,,,,,,,bereuwen,images/br_bereuwen.png,images/cb_bereuwen.png,,bereken,,,,,,,,,,,0.058107639,-0.21796441,1,0,0,bereken,0,26,26,39,1
,,,,,,00008,2023-07-25_18h09.25.285,vbt_B1_day2,2022.2.4,MacIntel,59.99880002,,,,,,,,,,,,,,,,,,,,,,,,,,,,,,,,,,,,,,,,,,heengeen,images/br_heengeen.png,images/cb_heengeen.png,,.een....,,,,,,,,,,,0.058107639,-0.21796441,1,0,0,.een....,0,27,27,38,1
,,,,,,00008,2023-07-25_18h09.25.285,vbt_B1_day2,2022.2.4,MacIntel,59.99880002,,,,,,,,,,,,,,,,,,,,,,,,,,,,,,,,,,,,,,,,,,badon,images/br_badon.png,images/cb_badon.png,,ba...,,,,,,,,,,,0.057335069,-0.21796441,1,0,0,ba...,0,28,28,26,1
,,,,,,00008,2023-07-25_18h09.25.285,vbt_B1_day2,2022.2.4,MacIntel,59.99880002,,,,,,,,,,,,,,,,,,,,,,,,,,,,,,,,,,,,,,,,,,sifferd,images/br_sifferd.png,images/cb_sifferd.png,,simm..,,,,,,,,,,,0.057078993,-0.21796441,1,0,0,simm..,0,29,29,32,1
,,,,,,00008,2023-07-25_18h09.25.285,vbt_B1_day2,2022.2.4,MacIntel,59.99880002,,,,,,,,,,,,,,,,,,,,,,,,,,,,,,,,,,,,,,,,,,breuk,images/br_breuk.png,images/cb_breuk.png,,bre.n,,,,,,,,,,,0.093342014,-0.222217882,1,0,0,bre.n,0,30,30,45,1
,,,,,,00008,2023-07-25_18h09.25.285,vbt_B1_day2,2022.2.4,MacIntel,59.99880002,,,,,,,,,,,,,,,,,,,,,,,,,,,,,,,,,,,,,,,,,,negel,images/br_negel.png,images/cb_negel.png,,.egel,,,,,,,,,,,0.093342014,-0.222217882,1,0,0,.egel,0,31,31,24,1
,,,,,,00008,2023-07-25_18h09.25.285,vbt_B1_day2,2022.2.4,MacIntel,59.99880002,,,,,,,,,,,,,,,,,,,,,,,,,,,,,,,,,,,,,,,,,,heilig,images/br_heilig.png,images/cb_heilig.png,,.eileg,,,,,,,,,,,0.093342014,-0.222217882,1,0,0,.eileg,0,32,32,9,1
,,,,,,00008,2023-07-25_18h09.25.285,vbt_B1_day2,2022.2.4,MacIntel,59.99880002,,,,,,,,,,,,,,,,,,,,,,,,,,,,,,,,,,,,,,,,,,kijlen,images/br_kijlen.png,images/cb_kijlen.png,,ki.len,,,,,,,,,,,0.094396701,-0.222217882,1,0,0,ki.len,0,33,33,31,1
,,,,,,00008,2023-07-25_18h09.25.285,vbt_B1_day2,2022.2.4,MacIntel,59.99880002,,,,,,,,,,,,,,,,,,,,,,,,,,,,,,,,,,,,,,,,,,kenzis,images/br_kenzis.png,images/cb_kenzis.png,,kin...,,,,,,,,,,,0.094396701,-0.222217882,1,0,0,kin...,0,34,34,30,1
,,,,,,00008,2023-07-25_18h09.25.285,vbt_B1_day2,2022.2.4,MacIntel,59.99880002,,,,,,,,,,,,,,,,,,,,,,,,,,,,,,,,,,,,,,,,,,flits,images/br_flits.png,images/cb_flits.png,,mli..,,,,,,,,,,,0.094396701,-0.222217882,1,0,0,mli..,0,35,35,4,1
,,,,,,00008,2023-07-25_18h09.25.285,vbt_B1_day2,2022.2.4,MacIntel,59.99880002,,,,,,,,,,,,,,,,,,,,,,,,,,,,,,,,,,,,,,,,,,goon,images/br_goon.png,images/cb_goon.png,,goot,,,,,,,,,,,0.094396701,-0.222217882,1,0,0,goot,0,36,36,23,1
,,,,,,00008,2023-07-25_18h09.25.285,vbt_B1_day2,2022.2.4,MacIntel,59.99880002,,,,,,,,,,,,,,,,,,,,,,,,,,,,,,,,,,,,,,,,,,kasteel,images/br_kasteel.png,images/cb_kasteel.png,,kas...,,,,,,,,,,,0.094396701,-0.222217882,1,0,0,kas...,0,37,37,14,1
,,,,,,00008,2023-07-25_18h09.25.285,vbt_B1_day2,2022.2.4,MacIntel,59.99880002,,,,,,,,,,,,,,,,,,,,,,,,,,,,,,,,,,,,,,,,,,aanzien,images/br_aanzien.png,images/cb_aanzien.png,,aanrei.,,,,,,,,,,,0.094396701,-0.222217882,1,0,0,aanrei.,0,38,38,13,1
,,,,,,00008,2023-07-25_18h09.25.285,vbt_B1_day2,2022.2.4,MacIntel,59.99880002,,,,,,,,,,,,,,,,,,,,,,,,,,,,,,,,,,,,,,,,,,stes,images/br_stes.png,images/cb_stes.png,,stit,,,,,,,,,,,0.094396701,-0.222217882,1,0,0,stit,0,39,39,21,1
,,,,,,00008,2023-07-25_18h09.25.285,vbt_B1_day2,2022.2.4,MacIntel,59.99880002,,,,,,,,,,,,,,,,,,,,,,,,,,,,,,,,,,,,,,,,,,lijnen,images/br_lijnen.png,images/cb_lijnen.png,,lid...,,,,,,,,,,,0.094396701,-0.222217882,1,0,0,lid...,0,40,40,51,1
,,,,,,00008,2023-07-25_18h09.25.285,vbt_B1_day2,2022.2.4,MacIntel,59.99880002,,,,,,,,,,,,,,,,,,,,,,,,,,,,,,,,,,,,,,,,,,sora,images/br_sora.png,images/cb_sora.png,,sora,,,,,,,,,,,0.094396701,-0.222217882,1,0,0,sora,0,41,41,22,1
,,,,,,00008,2023-07-25_18h09.25.285,vbt_B1_day2,2022.2.4,MacIntel,59.99880002,,,,,,,,,,,,,,,,,,,,,,,,,,,,,,,,,,,,,,,,,,thema,images/br_thema.png,images/cb_thema.png,,t...a,,,,,,,,,,,0.094396701,-0.222217882,1,0,0,t...a,0,42,42,47,1
,,,,,,00008,2023-07-25_18h09.25.285,vbt_B1_day2,2022.2.4,MacIntel,59.99880002,,,,,,,,,,,,,,,,,,,,,,,,,,,,,,,,,,,,,,,,,,moes,images/br_moes.png,images/cb_moes.png,,roos,,,,,,,,,,,0.094396701,-0.222217882,1,0,0,roos,0,43,43,0,1
,,,,,,00008,2023-07-25_18h09.25.285,vbt_B1_day2,2022.2.4,MacIntel,59.99880002,,,,,,,,,,,,,,,,,,,,,,,,,,,,,,,,,,,,,,,,,,zomers,images/br_zomers.png,images/cb_zomers.png,,.o....,,,,,,,,,,,0.094396701,-0.222217882,1,0,0,.o....,0,44,44,48,1
,,,,,,00008,2023-07-25_18h09.25.285,vbt_B1_day2,2022.2.4,MacIntel,59.99880002,,,,,,,,,,,,,,,,,,,,,,,,,,,,,,,,,,,,,,,,,,zegel,images/br_zegel.png,images/cb_zegel.png,,kegel,,,,,,,,,,,0.092100694,-0.220026042,1,0,0,kegel,0,45,45,46,1
,,,,,,00008,2023-07-25_18h09.25.285,vbt_B1_day2,2022.2.4,MacIntel,59.99880002,,,,,,,,,,,,,,,,,,,,,,,,,,,,,,,,,,,,,,,,,,plannen,images/br_plannen.png,images/cb_plannen.png,,.larr..,,,,,,,,,,,0.092100694,-0.220026042,1,0,0,.larr..,0,46,46,55,1
,,,,,,00008,2023-07-25_18h09.25.285,vbt_B1_day2,2022.2.4,MacIntel,59.99880002,,,,,,,,,,,,,,,,,,,,,,,,,,,,,,,,,,,,,,,,,,tand,images/br_tand.png,images/cb_tand.png,,tank,,,,,,,,,,,0.092100694,-0.220026042,1,0,0,tank,0,47,47,42,1
,,,,,,00008,2023-07-25_18h09.25.285,vbt_B1_day2,2022.2.4,MacIntel,59.99880002,,,,,,,,,,,,,,,,,,,,,,,,,,,,,,,,,,,,,,,,,,ningen,images/br_ningen.png,images/cb_ningen.png,,ning..,,,,,,,,,,,0.092100694,-0.220026042,1,0,0,ning..,0,48,48,28,1
,,,,,,00008,2023-07-25_18h09.25.285,vbt_B1_day2,2022.2.4,MacIntel,59.99880002,,,,,,,,,,,,,,,,,,,,,,,,,,,,,,,,,,,,,,,,,,eenhoorn,images/br_eenhoorn.png,images/cb_eenhoorn.png,,eenheid,,,,,,,,,,,0.092100694,-0.220026042,1,0,0,eenheid,0,49,49,19,1
,,,,,,00008,2023-07-25_18h09.25.285,vbt_B1_day2,2022.2.4,MacIntel,59.99880002,,,,,,,,,,,,,,,,,,,,,,,,,,,,,,,,,,,,,,,,,,systeem,images/br_systeem.png,images/cb_systeem.png,,s.s....,,,,,,,,,,,0.092100694,-0.220026042,1,0,0,s.s....,0,50,50,54,1
,,,,,,00008,2023-07-25_18h09.25.285,vbt_B1_day2,2022.2.4,MacIntel,59.99880002,,,,,,,,,,,,,,,,,,,,,,,,,,,,,,,,,,,,,,,,,,anarchie,images/br_anarchie.png,images/cb_anarchie.png,,anar...,,,,,,,,,,,0.092100694,-0.220026042,1,0,0,anar...,0,51,51,16,1
,,,,,,00008,2023-07-25_18h09.25.285,vbt_B1_day2,2022.2.4,MacIntel,59.99880002,,,,,,,,,,,,,,,,,,,,,,,,,,,,,,,,,,,,,,,,,,krimmen,images/br_krimmen.png,images/cb_krimmen.png,,kriuu...,,,,,,,,,,,0.092100694,-0.220026042,1,0,0,kriuu...,0,52,52,35,1
,,,,,,00008,2023-07-25_18h09.25.285,vbt_B1_day2,2022.2.4,MacIntel,59.99880002,,,,,,,,,,,,,,,,,,,,,,,,,,,,,,,,,,,,,,,,,,ophuimen,images/br_ophuimen.png,images/cb_ophuimen.png,,opmaken,,,,,,,,,,,0.091579861,-0.219765625,1,0,0,opmaken,0,53,53,36,1
,,,,,,00008,2023-07-25_18h09.25.285,vbt_B1_day2,2022.2.4,MacIntel,59.99880002,,,,,,,,,,,,,,,,,,,,,,,,,,,,,,,,,,,,,,,,,,tweeling,images/br_tweeling.png,images/cb_tweeling.png,,t.....,,,,,,,,,,,0.091579861,-0.219765625,1,0,0,t.....,0,54,54,58,1
,,,,,,00008,2023-07-25_18h09.25.285,vbt_B1_day2,2022.2.4,MacIntel,59.99880002,,,,,,,,,,,,,,,,,,,,,,,,,,,,,,,,,,,,,,,,,,wijve,images/br_wijve.png,images/cb_wijve.png,,wijger,,,,,,,,,,,0.091579861,-0.219765625,1,0,0,wijger,0,55,55,27,1
,,,,,,00008,2023-07-25_18h09.25.285,vbt_B1_day2,2022.2.4,MacIntel,59.99880002,,,,,,,,,,,,,,,,,,,,,,,,,,,,,,,,,,,,,,,,,,kabel,images/br_kabel.png,images/cb_kabel.png,,kabel,,,,,,,,,,,0.091579861,-0.219765625,1,0,0,kabel,0,56,56,7,1
,,,,,,00008,2023-07-25_18h09.25.285,vbt_B1_day2,2022.2.4,MacIntel,59.99880002,,,,,,,,,,,,,,,,,,,,,,,,,,,,,,,,,,,,,,,,,,joes,images/br_joes.png,images/cb_joes.png,,hoes,,,,,,,,,,,0.091579861,-0.219765625,1,0,0,hoes,0,57,57,20,1
,,,,,,00008,2023-07-25_18h09.25.285,vbt_B1_day2,2022.2.4,MacIntel,59.99880002,,,,,,,,,,,,,,,,,,,,,,,,,,,,,,,,,,,,,,,,,,feestdag,images/br_feestdag.png,images/cb_feestdag.png,,moestuin,,,,,,,,,,,0.091579861,-0.219765625,1,0,0,moestuin,0,58,58,17,1
,,,,,,00008,2023-07-25_18h09.25.285,vbt_B1_day2,2022.2.4,MacIntel,59.99880002,,,,,,,,,,,,,,,,,,,,,,,,,,,,,,,,,,,,,,,,,,diep,images/br_diep.png,images/cb_diep.png,,diep,,,,,,,,,,,0.091579861,-0.219765625,1,0,0,diep,0,59,59,2,1
,,,,,,00008,2023-07-25_18h09.25.285,vbt_B1_day2,2022.2.4,MacIntel,59.99880002,,,,,,,,,,,,,,,,,,,,,,,,,,,,,,,,,,,,,,,,,,,,,,,,,,,,,,,,,,,,,,,,,,,
