welcome_mouse.x,welcome_mouse.y,welcome_mouse.leftButton,welcome_mouse.midButton,welcome_mouse.rightButton,welcome_mouse.time,"ID",date,expName,psychopyVersion,OS,frameRate,refresh_mouse.x,refresh_mouse.y,refresh_mouse.leftButton,refresh_mouse.midButton,refresh_mouse.rightButton,refresh_mouse.time,braille_mouse.x,braille_mouse.y,braille_mouse.leftButton,braille_mouse.midButton,braille_mouse.rightButton,braille_mouse.time,trials.thisRepN,trials.thisTrialN,trials.thisN,trials.thisIndex,trials.ran,nlLet,brLet,cbLet,trainInstr_mouse.x,trainInstr_mouse.y,trainInstr_mouse.leftButton,trainInstr_mouse.midButton,trainInstr_mouse.rightButton,trainInstr_mouse.time,translation_key.keys,translation_key.corr,translation_key.rt,word_rsp.text,word_mouse.x,word_mouse.y,word_mouse.leftButton,word_mouse.midButton,word_mouse.rightButton,word_mouse.time,train_loop.thisRepN,train_loop.thisTrialN,train_loop.thisN,train_loop.thisIndex,train_loop.ran,nlWrd,brWrd,cbWrd,test,testResp,mouse.x,mouse.y,mouse.leftButton,mouse.midButton,mouse.rightButton,testInstr_mouse.x,testInstr_mouse.y,testInstr_mouse.leftButton,testInstr_mouse.midButton,testInstr_mouse.rightButton,test_mouse.x,test_mouse.y,test_mouse.leftButton,test_mouse.midButton,test_mouse.rightButton,test_response.text,test_loop.thisRepN,test_loop.thisTrialN,test_loop.thisN,test_loop.thisIndex,test_loop.ran
-0.171296296,-0.242592635,1,0,0,5.4093,00080,2023-10-25_08h19.48.112,vbt_B1_day2,2022.2.4,Win32,60.11060351,,,,,,,,,,,,,,,,,,,,,,,,,,,,,,,,,,,,,,,,,,,,,,,,,,,,,,,,,,,,,,,,,,,
,,,,,,00080,2023-10-25_08h19.48.112,vbt_B1_day2,2022.2.4,Win32,60.11060351,-0.07222218,-0.200925968,1,0,0,11.9653,,,,,,,,,,,,,,,,,,,,,,,,,,,,,,,,,,,,,,,,,,,,,,,,,,,,,,,,,,,,,
,,,,,,00080,2023-10-25_08h19.48.112,vbt_B1_day2,2022.2.4,Win32,60.11060351,,,,,,,-0.125925912,-0.138888889,1,0,0,1.5493,0,0,0,5,1,f,images/br_f.png,images/cb_f.png,,,,,,,,,,,,,,,,,,,,,,,,,,,,,,,,,,,,,,,,,,,,,,,
,,,,,,00080,2023-10-25_08h19.48.112,vbt_B1_day2,2022.2.4,Win32,60.11060351,,,,,,,-0.125925912,-0.138888889,1,0,0,0.067,0,1,1,6,1,g,images/br_g.png,images/cb_g.png,,,,,,,,,,,,,,,,,,,,,,,,,,,,,,,,,,,,,,,,,,,,,,,
,,,,,,00080,2023-10-25_08h19.48.112,vbt_B1_day2,2022.2.4,Win32,60.11060351,,,,,,,-0.125925912,-0.138888889,1,0,0,0.5664,0,2,2,2,1,c,images/br_c.png,images/cb_c.png,,,,,,,,,,,,,,,,,,,,,,,,,,,,,,,,,,,,,,,,,,,,,,,
,,,,,,00080,2023-10-25_08h19.48.112,vbt_B1_day2,2022.2.4,Win32,60.11060351,,,,,,,-0.125925912,-0.138888889,1,0,0,0.0439,0,3,3,24,1,y,images/br_y.png,images/cb_y.png,,,,,,,,,,,,,,,,,,,,,,,,,,,,,,,,,,,,,,,,,,,,,,,
,,,,,,00080,2023-10-25_08h19.48.112,vbt_B1_day2,2022.2.4,Win32,60.11060351,,,,,,,-0.125925912,-0.138888889,1,0,0,1.8492,0,4,4,9,1,j,images/br_j.png,images/cb_j.png,,,,,,,,,,,,,,,,,,,,,,,,,,,,,,,,,,,,,,,,,,,,,,,
,,,,,,00080,2023-10-25_08h19.48.112,vbt_B1_day2,2022.2.4,Win32,60.11060351,,,,,,,-0.125925912,-0.138888889,1,0,0,0.5497,0,5,5,16,1,q,images/br_q.png,images/cb_q.png,,,,,,,,,,,,,,,,,,,,,,,,,,,,,,,,,,,,,,,,,,,,,,,
,,,,,,00080,2023-10-25_08h19.48.112,vbt_B1_day2,2022.2.4,Win32,60.11060351,,,,,,,-0.125925912,-0.138888889,1,0,0,2.5326,0,6,6,7,1,h,images/br_h.png,images/cb_h.png,,,,,,,,,,,,,,,,,,,,,,,,,,,,,,,,,,,,,,,,,,,,,,,
,,,,,,00080,2023-10-25_08h19.48.112,vbt_B1_day2,2022.2.4,Win32,60.11060351,,,,,,,-0.125925912,-0.138888889,1,0,0,0.2835,0,7,7,8,1,i,images/br_i.png,images/cb_i.png,,,,,,,,,,,,,,,,,,,,,,,,,,,,,,,,,,,,,,,,,,,,,,,
,,,,,,00080,2023-10-25_08h19.48.112,vbt_B1_day2,2022.2.4,Win32,60.11060351,,,,,,,-0.125925912,-0.138888889,1,0,0,0.2268,0,8,8,20,1,u,images/br_u.png,images/cb_u.png,,,,,,,,,,,,,,,,,,,,,,,,,,,,,,,,,,,,,,,,,,,,,,,
,,,,,,00080,2023-10-25_08h19.48.112,vbt_B1_day2,2022.2.4,Win32,60.11060351,,,,,,,-0.125925912,-0.138888889,1,0,0,0.533,0,9,9,21,1,v,images/br_v.png,images/cb_v.png,,,,,,,,,,,,,,,,,,,,,,,,,,,,,,,,,,,,,,,,,,,,,,,
,,,,,,00080,2023-10-25_08h19.48.112,vbt_B1_day2,2022.2.4,Win32,60.11060351,,,,,,,-0.125925912,-0.138888889,1,0,0,0.4335,0,10,10,25,1,z,images/br_z.png,images/cb_z.png,,,,,,,,,,,,,,,,,,,,,,,,,,,,,,,,,,,,,,,,,,,,,,,
,,,,,,00080,2023-10-25_08h19.48.112,vbt_B1_day2,2022.2.4,Win32,60.11060351,,,,,,,-0.125925912,-0.138888889,1,0,0,0.6495,0,11,11,23,1,x,images/br_x.png,images/cb_x.png,,,,,,,,,,,,,,,,,,,,,,,,,,,,,,,,,,,,,,,,,,,,,,,
,,,,,,00080,2023-10-25_08h19.48.112,vbt_B1_day2,2022.2.4,Win32,60.11060351,,,,,,,-0.125925912,-0.138888889,1,0,0,1.283,0,12,12,13,1,n,images/br_n.png,images/cb_n.png,,,,,,,,,,,,,,,,,,,,,,,,,,,,,,,,,,,,,,,,,,,,,,,
,,,,,,00080,2023-10-25_08h19.48.112,vbt_B1_day2,2022.2.4,Win32,60.11060351,,,,,,,-0.125925912,-0.138888889,1,0,0,0.4332,0,13,13,17,1,r,images/br_r.png,images/cb_r.png,,,,,,,,,,,,,,,,,,,,,,,,,,,,,,,,,,,,,,,,,,,,,,,
,,,,,,00080,2023-10-25_08h19.48.112,vbt_B1_day2,2022.2.4,Win32,60.11060351,,,,,,,-0.125925912,-0.138888889,1,0,0,0.2501,0,14,14,10,1,k,images/br_k.png,images/cb_k.png,,,,,,,,,,,,,,,,,,,,,,,,,,,,,,,,,,,,,,,,,,,,,,,
,,,,,,00080,2023-10-25_08h19.48.112,vbt_B1_day2,2022.2.4,Win32,60.11060351,,,,,,,-0.125925912,-0.138888889,1,0,0,0.6501,0,15,15,14,1,o,images/br_o.png,images/cb_o.png,,,,,,,,,,,,,,,,,,,,,,,,,,,,,,,,,,,,,,,,,,,,,,,
,,,,,,00080,2023-10-25_08h19.48.112,vbt_B1_day2,2022.2.4,Win32,60.11060351,,,,,,,-0.125925912,-0.138888889,1,0,0,0.5997,0,16,16,3,1,d,images/br_d.png,images/cb_d.png,,,,,,,,,,,,,,,,,,,,,,,,,,,,,,,,,,,,,,,,,,,,,,,
,,,,,,00080,2023-10-25_08h19.48.112,vbt_B1_day2,2022.2.4,Win32,60.11060351,,,,,,,-0.125925912,-0.138888889,1,0,0,0.6665,0,17,17,1,1,b,images/br_b.png,images/cb_b.png,,,,,,,,,,,,,,,,,,,,,,,,,,,,,,,,,,,,,,,,,,,,,,,
,,,,,,00080,2023-10-25_08h19.48.112,vbt_B1_day2,2022.2.4,Win32,60.11060351,,,,,,,-0.125925912,-0.138888889,1,0,0,10.2797,0,18,18,15,1,p,images/br_p.png,images/cb_p.png,,,,,,,,,,,,,,,,,,,,,,,,,,,,,,,,,,,,,,,,,,,,,,,
,,,,,,00080,2023-10-25_08h19.48.112,vbt_B1_day2,2022.2.4,Win32,60.11060351,,,,,,,-0.125925912,-0.138888889,1,0,0,0.5832,0,19,19,12,1,m,images/br_m.png,images/cb_m.png,,,,,,,,,,,,,,,,,,,,,,,,,,,,,,,,,,,,,,,,,,,,,,,
,,,,,,00080,2023-10-25_08h19.48.112,vbt_B1_day2,2022.2.4,Win32,60.11060351,,,,,,,-0.125925912,-0.138888889,1,0,0,0.6665,0,20,20,0,1,a,images/br_a.png,images/cb_a.png,,,,,,,,,,,,,,,,,,,,,,,,,,,,,,,,,,,,,,,,,,,,,,,
,,,,,,00080,2023-10-25_08h19.48.112,vbt_B1_day2,2022.2.4,Win32,60.11060351,,,,,,,-0.125925912,-0.138888889,1,0,0,1.6661,0,21,21,18,1,s,images/br_s.png,images/cb_s.png,,,,,,,,,,,,,,,,,,,,,,,,,,,,,,,,,,,,,,,,,,,,,,,
,,,,,,00080,2023-10-25_08h19.48.112,vbt_B1_day2,2022.2.4,Win32,60.11060351,,,,,,,-0.125925912,-0.138888889,1,0,0,0.4665,0,22,22,11,1,l,images/br_l.png,images/cb_l.png,,,,,,,,,,,,,,,,,,,,,,,,,,,,,,,,,,,,,,,,,,,,,,,
,,,,,,00080,2023-10-25_08h19.48.112,vbt_B1_day2,2022.2.4,Win32,60.11060351,,,,,,,-0.125925912,-0.138888889,1,0,0,1.133,0,23,23,4,1,e,images/br_e.png,images/cb_e.png,,,,,,,,,,,,,,,,,,,,,,,,,,,,,,,,,,,,,,,,,,,,,,,
,,,,,,00080,2023-10-25_08h19.48.112,vbt_B1_day2,2022.2.4,Win32,60.11060351,,,,,,,-0.125925912,-0.138888889,1,0,0,0.6832,0,24,24,22,1,w,images/br_w.png,images/cb_w.png,,,,,,,,,,,,,,,,,,,,,,,,,,,,,,,,,,,,,,,,,,,,,,,
,,,,,,00080,2023-10-25_08h19.48.112,vbt_B1_day2,2022.2.4,Win32,60.11060351,,,,,,,-0.125925912,-0.138888889,1,0,0,0.9832,0,25,25,19,1,t,images/br_t.png,images/cb_t.png,,,,,,,,,,,,,,,,,,,,,,,,,,,,,,,,,,,,,,,,,,,,,,,
,,,,,,00080,2023-10-25_08h19.48.112,vbt_B1_day2,2022.2.4,Win32,60.11060351,,,,,,,,,,,,,,,,,,,,,-0.143518519,-0.156481496,1,0,0,23.6519,,,,,,,,,,,,,,,,,,,,,,,,,,,,,,,,,,,,,,,,,
,,,,,,00080,2023-10-25_08h19.48.112,vbt_B1_day2,2022.2.4,Win32,60.11060351,,,,,,,,,,,,,,,,,,,,,,,,,,,down,0,15.3202,,0.032407407,-0.134259259,1,0,0,2.7156,0,0,0,12,1,kust,images/br_kust.png,images/cb_kust.png,0,,,,,,,,,,,,,,,,,,,,,,
,,,,,,00080,2023-10-25_08h19.48.112,vbt_B1_day2,2022.2.4,Win32,60.11060351,,,,,,,,,,,,,,,,,,,,,,,,,,,down,0,10.4621,,0.032407407,-0.134259259,1,0,0,1.8492,0,1,1,163,1,schuilen,images/br_schuilen.png,images/cb_schuilen.png,0,,,,,,,,,,,,,,,,,,,,,,
,,,,,,00080,2023-10-25_08h19.48.112,vbt_B1_day2,2022.2.4,Win32,60.11060351,,,,,,,,,,,,,,,,,,,,,,,,,,,down,0,4.8025,,0.032407407,-0.134259259,1,0,0,0.7994,0,2,2,68,1,schat,images/br_schat.png,images/cb_schat.png,0,,,,,,,,,,,,,,,,,,,,,,
,,,,,,00080,2023-10-25_08h19.48.112,vbt_B1_day2,2022.2.4,Win32,60.11060351,,,,,,,,,,,,,,,,,,,,,,,,,,,down,0,3.4924,,0.032407407,-0.134259259,1,0,0,1.0162,0,3,3,20,1,site,images/br_site.png,images/cb_site.png,0,,,,,,,,,,,,,,,,,,,,,,
,,,,,,00080,2023-10-25_08h19.48.112,vbt_B1_day2,2022.2.4,Win32,60.11060351,,,,,,,,,,,,,,,,,,,,,,,,,,,down,0,8.1933,,0.530555584,-0.157407407,1,0,0,1.83,0,4,4,176,1,techniek,images/br_techniek.png,images/cb_techniek.png,1,techniek,,,,,,,,,,,,,,,,,,,,,
,,,,,,00080,2023-10-25_08h19.48.112,vbt_B1_day2,2022.2.4,Win32,60.11060351,,,,,,,,,,,,,,,,,,,,,,,,,,,down,0,1.4789,,0.526851937,-0.150000042,1,0,0,1.0177,0,5,5,39,1,laag,images/br_laag.png,images/cb_laag.png,0,,,,,,,,,,,,,,,,,,,,,,
,,,,,,00080,2023-10-25_08h19.48.112,vbt_B1_day2,2022.2.4,Win32,60.11060351,,,,,,,,,,,,,,,,,,,,,,,,,,,down,0,4.861,,0.295370384,-0.218518504,1,0,0,1.0162,0,6,6,93,1,waarop,images/br_waarop.png,images/cb_waarop.png,0,,,,,,,,,,,,,,,,,,,,,,
,,,,,,00080,2023-10-25_08h19.48.112,vbt_B1_day2,2022.2.4,Win32,60.11060351,,,,,,,,,,,,,,,,,,,,,,,,,,,down,0,5.9945,,0.295370384,-0.218518504,1,0,0,1.3495,0,7,7,110,1,zuster,images/br_zuster.png,images/cb_zuster.png,0,,,,,,,,,,,,,,,,,,,,,,
,,,,,,00080,2023-10-25_08h19.48.112,vbt_B1_day2,2022.2.4,Win32,60.11060351,,,,,,,,,,,,,,,,,,,,,,,,,,,down,0,4.9684,,0.295370384,-0.218518504,1,0,0,0.6496,0,8,8,109,1,totaal,images/br_totaal.png,images/cb_totaal.png,0,,,,,,,,,,,,,,,,,,,,,,
,,,,,,00080,2023-10-25_08h19.48.112,vbt_B1_day2,2022.2.4,Win32,60.11060351,,,,,,,,,,,,,,,,,,,,,,,,,,,down,0,11.9297,,0.136111153,-0.142592607,1,0,0,7.0773,0,9,9,103,1,joggen,images/br_joggen.png,images/cb_joggen.png,0,,,,,,,,,,,,,,,,,,,,,,
,,,,,,00080,2023-10-25_08h19.48.112,vbt_B1_day2,2022.2.4,Win32,60.11060351,,,,,,,,,,,,,,,,,,,,,,,,,,,down,0,3.3495,,0.135185171,-0.142592607,1,0,0,0.6835,0,10,10,25,1,plek,images/br_plek.png,images/cb_plek.png,0,,,,,,,,,,,,,,,,,,,,,,
,,,,,,00080,2023-10-25_08h19.48.112,vbt_B1_day2,2022.2.4,Win32,60.11060351,,,,,,,,,,,,,,,,,,,,,,,,,,,down,0,8.4549,,0.135185171,-0.142592607,1,0,0,0.5997,0,11,11,172,1,weigeren,images/br_weigeren.png,images/cb_weigeren.png,0,,,,,,,,,,,,,,,,,,,,,,
,,,,,,00080,2023-10-25_08h19.48.112,vbt_B1_day2,2022.2.4,Win32,60.11060351,,,,,,,,,,,,,,,,,,,,,,,,,,,down,0,33.4576,,0.125,-0.131481524,1,0,0,0.7663,0,12,12,85,1,heilig,images/br_heilig.png,images/cb_heilig.png,0,,,,,,,,,,,,,,,,,,,,,,
,,,,,,00080,2023-10-25_08h19.48.112,vbt_B1_day2,2022.2.4,Win32,60.11060351,,,,,,,,,,,,,,,,,,,,,,,,,,,down,0,3.4836,,0.125,-0.131481524,1,0,0,0.5997,0,13,13,29,1,baas,images/br_baas.png,images/cb_baas.png,0,,,,,,,,,,,,,,,,,,,,,,
,,,,,,00080,2023-10-25_08h19.48.112,vbt_B1_day2,2022.2.4,Win32,60.11060351,,,,,,,,,,,,,,,,,,,,,,,,,,,down,0,4.8744,,0.094444487,-0.150000042,1,0,0,0.8831,0,14,14,43,1,klauw,images/br_klauw.png,images/cb_klauw.png,0,,,,,,,,,,,,,,,,,,,,,,
,,,,,,00080,2023-10-25_08h19.48.112,vbt_B1_day2,2022.2.4,Win32,60.11060351,,,,,,,,,,,,,,,,,,,,,,,,,,,down,0,2.9853,,0.094444487,-0.150000042,1,0,0,0.6331,0,15,15,72,1,strak,images/br_strak.png,images/cb_strak.png,0,,,,,,,,,,,,,,,,,,,,,,
,,,,,,00080,2023-10-25_08h19.48.112,vbt_B1_day2,2022.2.4,Win32,60.11060351,,,,,,,,,,,,,,,,,,,,,,,,,,,down,0,4.7667,,0.094444487,-0.150000042,1,0,0,1.166,0,16,16,76,1,afval,images/br_afval.png,images/cb_afval.png,0,,,,,,,,,,,,,,,,,,,,,,
,,,,,,00080,2023-10-25_08h19.48.112,vbt_B1_day2,2022.2.4,Win32,60.11060351,,,,,,,,,,,,,,,,,,,,,,,,,,,down,0,3.5325,,0.089814857,-0.147222236,1,0,0,0.7833,0,17,17,41,1,maken,images/br_maken.png,images/cb_maken.png,0,,,,,,,,,,,,,,,,,,,,,,
,,,,,,00080,2023-10-25_08h19.48.112,vbt_B1_day2,2022.2.4,Win32,60.11060351,,,,,,,,,,,,,,,,,,,,,,,,,,,down,0,4.249,,0.089814857,-0.147222236,1,0,0,0.9829,0,18,18,86,1,woning,images/br_woning.png,images/cb_woning.png,0,,,,,,,,,,,,,,,,,,,,,,
,,,,,,00080,2023-10-25_08h19.48.112,vbt_B1_day2,2022.2.4,Win32,60.11060351,,,,,,,,,,,,,,,,,,,,,,,,,,,down,0,6.3078,,0.085185228,-0.125,1,0,0,0.7168,0,19,19,193,1,weeshuis,images/br_weeshuis.png,images/cb_weeshuis.png,0,,,,,,,,,,,,,,,,,,,,,,
,,,,,,00080,2023-10-25_08h19.48.112,vbt_B1_day2,2022.2.4,Win32,60.11060351,,,,,,,,,,,,,,,,,,,,,,,,,,,down,0,11.5797,,0.085185228,-0.125,1,0,0,4.998,0,20,20,88,1,boeien,images/br_boeien.png,images/cb_boeien.png,0,,,,,,,,,,,,,,,,,,,,,,
,,,,,,00080,2023-10-25_08h19.48.112,vbt_B1_day2,2022.2.4,Win32,60.11060351,,,,,,,,,,,,,,,,,,,,,,,,,,,down,0,4.2489,,0.07685188,-0.101851852,1,0,0,0.9163,0,21,21,95,1,vreten,images/br_vreten.png,images/cb_vreten.png,0,,,,,,,,,,,,,,,,,,,,,,
,,,,,,00080,2023-10-25_08h19.48.112,vbt_B1_day2,2022.2.4,Win32,60.11060351,,,,,,,,,,,,,,,,,,,,,,,,,,,down,0,5.4206,,0.073148162,-0.098148134,1,0,0,0.4496,0,22,22,3,1,mand,images/br_mand.png,images/cb_mand.png,0,,,,,,,,,,,,,,,,,,,,,,
,,,,,,00080,2023-10-25_08h19.48.112,vbt_B1_day2,2022.2.4,Win32,60.11060351,,,,,,,,,,,,,,,,,,,,,,,,,,,down,0,11.2633,,0.071296339,-0.086111104,1,0,0,0.4496,0,23,23,70,1,ijdel,images/br_ijdel.png,images/cb_ijdel.png,0,,,,,,,,,,,,,,,,,,,,,,
,,,,,,00080,2023-10-25_08h19.48.112,vbt_B1_day2,2022.2.4,Win32,60.11060351,,,,,,,,,,,,,,,,,,,,,,,,,,,down,0,2.68,,0.062037079,-0.087037051,1,0,0,0.6464,0,24,24,38,1,baai,images/br_baai.png,images/cb_baai.png,0,,,,,,,,,,,,,,,,,,,,,,
,,,,,,00080,2023-10-25_08h19.48.112,vbt_B1_day2,2022.2.4,Win32,60.11060351,,,,,,,,,,,,,,,,,,,,,,,,,,,down,0,7.0122,,0.404629601,-0.061111132,1,0,0,1.0355,0,25,25,138,1,akkoord,images/br_akkoord.png,images/cb_akkoord.png,1,akkoord,,,,,,,,,,,,,,,,,,,,,
,,,,,,00080,2023-10-25_08h19.48.112,vbt_B1_day2,2022.2.4,Win32,60.11060351,,,,,,,,,,,,,,,,,,,,,,,,,,,down,0,7.6103,,0.367592564,-0.009259259,1,0,0,0.3732,0,26,26,135,1,gedicht,images/br_gedicht.png,images/cb_gedicht.png,0,,,,,,,,,,,,,,,,,,,,,,
,,,,,,00080,2023-10-25_08h19.48.112,vbt_B1_day2,2022.2.4,Win32,60.11060351,,,,,,,,,,,,,,,,,,,,,,,,,,,down,0,5.898,,0.391666695,0.01203703,1,0,0,0.4498,0,27,27,9,1,hier,images/br_hier.png,images/cb_hier.png,0,,,,,,,,,,,,,,,,,,,,,,
,,,,,,00080,2023-10-25_08h19.48.112,vbt_B1_day2,2022.2.4,Win32,60.11060351,,,,,,,,,,,,,,,,,,,,,,,,,,,down,0,7.5326,,0.391666695,0.01203703,1,0,0,0.3563,0,28,28,63,1,flirt,images/br_flirt.png,images/cb_flirt.png,0,,,,,,,,,,,,,,,,,,,,,,
,,,,,,00080,2023-10-25_08h19.48.112,vbt_B1_day2,2022.2.4,Win32,60.11060351,,,,,,,,,,,,,,,,,,,,,,,,,,,down,0,4.8987,,0.294444473,-0.068518533,1,0,0,0.3169,0,29,29,102,1,legaal,images/br_legaal.png,images/cb_legaal.png,0,,,,,,,,,,,,,,,,,,,,,,
,,,,,,00080,2023-10-25_08h19.48.112,vbt_B1_day2,2022.2.4,Win32,60.11060351,,,,,,,,,,,,,,,,,,,,,,,,,,,down,0,1.1335,,0.292592578,-0.066666674,1,0,0,0.3669,0,30,30,7,1,geld,images/br_geld.png,images/cb_geld.png,0,,,,,,,,,,,,,,,,,,,,,,
,,,,,,00080,2023-10-25_08h19.48.112,vbt_B1_day2,2022.2.4,Win32,60.11060351,,,,,,,,,,,,,,,,,,,,,,,,,,,down,0,5.6816,,0.292592578,-0.066666674,1,0,0,0.5665,0,31,31,184,1,aandelen,images/br_aandelen.png,images/cb_aandelen.png,0,,,,,,,,,,,,,,,,,,,,,,
,,,,,,00080,2023-10-25_08h19.48.112,vbt_B1_day2,2022.2.4,Win32,60.11060351,,,,,,,,,,,,,,,,,,,,,,,,,,,down,0,1.9212,,0.286111125,-0.056481503,1,0,0,0.3899,0,32,32,11,1,mode,images/br_mode.png,images/cb_mode.png,0,,,,,,,,,,,,,,,,,,,,,,
,,,,,,00080,2023-10-25_08h19.48.112,vbt_B1_day2,2022.2.4,Win32,60.11060351,,,,,,,,,,,,,,,,,,,,,,,,,,,down,0,9.9136,,0.286111125,-0.056481503,1,0,0,0.5497,0,33,33,111,1,ticket,images/br_ticket.png,images/cb_ticket.png,0,,,,,,,,,,,,,,,,,,,,,,
,,,,,,00080,2023-10-25_08h19.48.112,vbt_B1_day2,2022.2.4,Win32,60.11060351,,,,,,,,,,,,,,,,,,,,,,,,,,,down,0,4.3295,,0.282407407,-0.054629644,1,0,0,1.1026,0,34,34,186,1,voorraad,images/br_voorraad.png,images/cb_voorraad.png,0,,,,,,,,,,,,,,,,,,,,,,
,,,,,,00080,2023-10-25_08h19.48.112,vbt_B1_day2,2022.2.4,Win32,60.11060351,,,,,,,,,,,,,,,,,,,,,,,,,,,down,0,7.4644,,0.282407407,-0.052777785,1,0,0,0.3604,0,35,35,147,1,komisch,images/br_komisch.png,images/cb_komisch.png,0,,,,,,,,,,,,,,,,,,,,,,
,,,,,,00080,2023-10-25_08h19.48.112,vbt_B1_day2,2022.2.4,Win32,60.11060351,,,,,,,,,,,,,,,,,,,,,,,,,,,down,0,7.0273,,0.282407407,-0.052777785,1,0,0,0.7869,0,36,36,191,1,opheffen,images/br_opheffen.png,images/cb_opheffen.png,0,,,,,,,,,,,,,,,,,,,,,,
,,,,,,00080,2023-10-25_08h19.48.112,vbt_B1_day2,2022.2.4,Win32,60.11060351,,,,,,,,,,,,,,,,,,,,,,,,,,,down,0,4.4584,,0.285185213,-0.075000021,1,0,0,0.5998,0,37,37,142,1,snuiven,images/br_snuiven.png,images/cb_snuiven.png,0,,,,,,,,,,,,,,,,,,,,,,
,,,,,,00080,2023-10-25_08h19.48.112,vbt_B1_day2,2022.2.4,Win32,60.11060351,,,,,,,,,,,,,,,,,,,,,,,,,,,down,0,4.6822,,0.285185213,-0.075000021,1,0,0,0.5099,0,38,38,131,1,opzicht,images/br_opzicht.png,images/cb_opzicht.png,0,,,,,,,,,,,,,,,,,,,,,,
,,,,,,00080,2023-10-25_08h19.48.112,vbt_B1_day2,2022.2.4,Win32,60.11060351,,,,,,,,,,,,,,,,,,,,,,,,,,,down,0,6.2603,,0.380555612,-0.160185213,1,0,0,0.7673,0,39,39,139,1,stiekem,images/br_stiekem.png,images/cb_stiekem.png,1,stiekem,,,,,,,,,,,,,,,,,,,,,
,,,,,,00080,2023-10-25_08h19.48.112,vbt_B1_day2,2022.2.4,Win32,60.11060351,,,,,,,,,,,,,,,,,,,,,,,,,,,down,0,6.2787,,0.319444444,-0.090740734,1,0,0,0.4328,0,40,40,173,1,apparaat,images/br_apparaat.png,images/cb_apparaat.png,0,,,,,,,,,,,,,,,,,,,,,,
,,,,,,00080,2023-10-25_08h19.48.112,vbt_B1_day2,2022.2.4,Win32,60.11060351,,,,,,,,,,,,,,,,,,,,,,,,,,,down,0,4.7898,,0.336111139,0.025925919,1,0,0,0.5333,0,41,41,123,1,hiervan,images/br_hiervan.png,images/cb_hiervan.png,0,,,,,,,,,,,,,,,,,,,,,,
,,,,,,00080,2023-10-25_08h19.48.112,vbt_B1_day2,2022.2.4,Win32,60.11060351,,,,,,,,,,,,,,,,,,,,,,,,,,,down,0,2.3497,,0.344444416,0.039814808,1,0,0,0.5066,0,42,42,26,1,leuk,images/br_leuk.png,images/cb_leuk.png,0,,,,,,,,,,,,,,,,,,,,,,
,,,,,,00080,2023-10-25_08h19.48.112,vbt_B1_day2,2022.2.4,Win32,60.11060351,,,,,,,,,,,,,,,,,,,,,,,,,,,down,0,1.6168,,0.344444416,0.039814808,1,0,0,0.4429,0,43,43,32,1,palm,images/br_palm.png,images/cb_palm.png,0,,,,,,,,,,,,,,,,,,,,,,
,,,,,,00080,2023-10-25_08h19.48.112,vbt_B1_day2,2022.2.4,Win32,60.11060351,,,,,,,,,,,,,,,,,,,,,,,,,,,down,0,6.198,,0.344444416,0.039814808,1,0,0,0.4104,0,44,44,81,1,dubbel,images/br_dubbel.png,images/cb_dubbel.png,0,,,,,,,,,,,,,,,,,,,,,,
,,,,,,00080,2023-10-25_08h19.48.112,vbt_B1_day2,2022.2.4,Win32,60.11060351,,,,,,,,,,,,,,,,,,,,,,,,,,,down,0,2.9598,,0.344444416,0.039814808,1,0,0,0.5161,0,45,45,91,1,gezond,images/br_gezond.png,images/cb_gezond.png,0,,,,,,,,,,,,,,,,,,,,,,
,,,,,,00080,2023-10-25_08h19.48.112,vbt_B1_day2,2022.2.4,Win32,60.11060351,,,,,,,,,,,,,,,,,,,,,,,,,,,down,0,4.8569,,0.344444416,0.039814808,1,0,0,0.4998,0,46,46,27,1,dans,images/br_dans.png,images/cb_dans.png,0,,,,,,,,,,,,,,,,,,,,,,
,,,,,,00080,2023-10-25_08h19.48.112,vbt_B1_day2,2022.2.4,Win32,60.11060351,,,,,,,,,,,,,,,,,,,,,,,,,,,down,0,2.0803,,0.344444416,0.039814808,1,0,0,0.4793,0,47,47,53,1,baron,images/br_baron.png,images/cb_baron.png,0,,,,,,,,,,,,,,,,,,,,,,
,,,,,,00080,2023-10-25_08h19.48.112,vbt_B1_day2,2022.2.4,Win32,60.11060351,,,,,,,,,,,,,,,,,,,,,,,,,,,down,0,1.1585,,0.344444416,0.039814808,1,0,0,0.7331,0,48,48,8,1,knie,images/br_knie.png,images/cb_knie.png,0,,,,,,,,,,,,,,,,,,,,,,
,,,,,,00080,2023-10-25_08h19.48.112,vbt_B1_day2,2022.2.4,Win32,60.11060351,,,,,,,,,,,,,,,,,,,,,,,,,,,down,0,12.0384,,0.344444416,0.04074072,1,0,0,1.5328,0,49,49,130,1,keihard,images/br_keihard.png,images/cb_keihard.png,0,,,,,,,,,,,,,,,,,,,,,,
,,,,,,00080,2023-10-25_08h19.48.112,vbt_B1_day2,2022.2.4,Win32,60.11060351,,,,,,,,,,,,,,,,,,,,,,,,,,,down,0,1.2093,,0.334259316,0.056481467,1,0,0,2.0198,0,50,50,2,1,jaar,images/br_jaar.png,images/cb_jaar.png,0,,,,,,,,,,,,,,,,,,,,,,
,,,,,,00080,2023-10-25_08h19.48.112,vbt_B1_day2,2022.2.4,Win32,60.11060351,,,,,,,,,,,,,,,,,,,,,,,,,,,down,0,1.3807,,0.334259316,0.056481467,1,0,0,0.7626,0,51,51,28,1,stal,images/br_stal.png,images/cb_stal.png,0,,,,,,,,,,,,,,,,,,,,,,
,,,,,,00080,2023-10-25_08h19.48.112,vbt_B1_day2,2022.2.4,Win32,60.11060351,,,,,,,,,,,,,,,,,,,,,,,,,,,down,0,5.8044,,0.334259316,0.056481467,1,0,0,0.5397,0,52,52,145,1,invloed,images/br_invloed.png,images/cb_invloed.png,0,,,,,,,,,,,,,,,,,,,,,,
,,,,,,00080,2023-10-25_08h19.48.112,vbt_B1_day2,2022.2.4,Win32,60.11060351,,,,,,,,,,,,,,,,,,,,,,,,,,,down,0,4.2014,,0.334259316,0.055555556,1,0,0,0.8639,0,53,53,156,1,rechten,images/br_rechten.png,images/cb_rechten.png,0,,,,,,,,,,,,,,,,,,,,,,
,,,,,,00080,2023-10-25_08h19.48.112,vbt_B1_day2,2022.2.4,Win32,60.11060351,,,,,,,,,,,,,,,,,,,,,,,,,,,down,0,4.6683,,0.358333305,0.048148155,1,0,0,0.4832,0,54,54,167,1,eenhoorn,images/br_eenhoorn.png,images/cb_eenhoorn.png,0,,,,,,,,,,,,,,,,,,,,,,
,,,,,,00080,2023-10-25_08h19.48.112,vbt_B1_day2,2022.2.4,Win32,60.11060351,,,,,,,,,,,,,,,,,,,,,,,,,,,down,0,2.3424,,0.351851852,0.052777785,1,0,0,0.7999,0,55,55,144,1,eetlust,images/br_eetlust.png,images/cb_eetlust.png,0,,,,,,,,,,,,,,,,,,,,,,
,,,,,,00080,2023-10-25_08h19.48.112,vbt_B1_day2,2022.2.4,Win32,60.11060351,,,,,,,,,,,,,,,,,,,,,,,,,,,down,0,7.3508,,0.351851852,0.055555556,1,0,0,2.3889,0,56,56,134,1,geliefd,images/br_geliefd.png,images/cb_geliefd.png,0,,,,,,,,,,,,,,,,,,,,,,
,,,,,,00080,2023-10-25_08h19.48.112,vbt_B1_day2,2022.2.4,Win32,60.11060351,,,,,,,,,,,,,,,,,,,,,,,,,,,down,0,18.0066,,0.349074046,0.034259266,1,0,0,3.8947,0,57,57,140,1,blijven,images/br_blijven.png,images/cb_blijven.png,0,,,,,,,,,,,,,,,,,,,,,,
,,,,,,00080,2023-10-25_08h19.48.112,vbt_B1_day2,2022.2.4,Win32,60.11060351,,,,,,,,,,,,,,,,,,,,,,,,,,,down,0,5.1073,,0.359259288,0.04074072,1,0,0,0.4165,0,58,58,73,1,volop,images/br_volop.png,images/cb_volop.png,0,,,,,,,,,,,,,,,,,,,,,,
,,,,,,00080,2023-10-25_08h19.48.112,vbt_B1_day2,2022.2.4,Win32,60.11060351,,,,,,,,,,,,,,,,,,,,,,,,,,,down,0,7.9474,,0.359259288,0.042592578,1,0,0,0.7662,0,59,59,170,1,schatten,images/br_schatten.png,images/cb_schatten.png,0,,,,,,,,,,,,,,,,,,,,,,
,,,,,,00080,2023-10-25_08h19.48.112,vbt_B1_day2,2022.2.4,Win32,60.11060351,,,,,,,,,,,,,,,,,,,,,,,,,,,down,0,1.4996,,0.359259288,0.042592578,1,0,0,0.5938,0,60,60,78,1,leren,images/br_leren.png,images/cb_leren.png,0,,,,,,,,,,,,,,,,,,,,,,
,,,,,,00080,2023-10-25_08h19.48.112,vbt_B1_day2,2022.2.4,Win32,60.11060351,,,,,,,,,,,,,,,,,,,,,,,,,,,down,0,15.2784,,0.359259288,0.042592578,1,0,0,0.6564,0,61,61,168,1,bisschop,images/br_bisschop.png,images/cb_bisschop.png,0,,,,,,,,,,,,,,,,,,,,,,
,,,,,,00080,2023-10-25_08h19.48.112,vbt_B1_day2,2022.2.4,Win32,60.11060351,,,,,,,,,,,,,,,,,,,,,,,,,,,down,0,0.3477,,0.359259288,0.042592578,1,0,0,0.5793,0,62,62,1,1,zaal,images/br_zaal.png,images/cb_zaal.png,0,,,,,,,,,,,,,,,,,,,,,,
,,,,,,00080,2023-10-25_08h19.48.112,vbt_B1_day2,2022.2.4,Win32,60.11060351,,,,,,,,,,,,,,,,,,,,,,,,,,,down,0,6.1983,,0.359259288,0.042592578,1,0,0,1.0485,0,63,63,67,1,zwart,images/br_zwart.png,images/cb_zwart.png,0,,,,,,,,,,,,,,,,,,,,,,
,,,,,,00080,2023-10-25_08h19.48.112,vbt_B1_day2,2022.2.4,Win32,60.11060351,,,,,,,,,,,,,,,,,,,,,,,,,,,down,0,1.091,,0.359259288,0.042592578,1,0,0,0.6069,0,64,64,33,1,vlek,images/br_vlek.png,images/cb_vlek.png,0,,,,,,,,,,,,,,,,,,,,,,
,,,,,,00080,2023-10-25_08h19.48.112,vbt_B1_day2,2022.2.4,Win32,60.11060351,,,,,,,,,,,,,,,,,,,,,,,,,,,down,0,5.3902,,0.359259288,0.042592578,1,0,0,0.6664,0,65,65,92,1,geheim,images/br_geheim.png,images/cb_geheim.png,0,,,,,,,,,,,,,,,,,,,,,,
,,,,,,00080,2023-10-25_08h19.48.112,vbt_B1_day2,2022.2.4,Win32,60.11060351,,,,,,,,,,,,,,,,,,,,,,,,,,,down,0,3.4872,,0.359259288,0.043518526,1,0,0,0.4831,0,66,66,188,1,strekken,images/br_strekken.png,images/cb_strekken.png,0,,,,,,,,,,,,,,,,,,,,,,
,,,,,,00080,2023-10-25_08h19.48.112,vbt_B1_day2,2022.2.4,Win32,60.11060351,,,,,,,,,,,,,,,,,,,,,,,,,,,down,0,0.5602,,0.359259288,0.043518526,1,0,0,0.973,0,67,67,34,1,vorm,images/br_vorm.png,images/cb_vorm.png,0,,,,,,,,,,,,,,,,,,,,,,
,,,,,,00080,2023-10-25_08h19.48.112,vbt_B1_day2,2022.2.4,Win32,60.11060351,,,,,,,,,,,,,,,,,,,,,,,,,,,down,0,0.9727,,0.359259288,0.043518526,1,0,0,0.5827,0,68,68,50,1,stoom,images/br_stoom.png,images/cb_stoom.png,0,,,,,,,,,,,,,,,,,,,,,,
,,,,,,00080,2023-10-25_08h19.48.112,vbt_B1_day2,2022.2.4,Win32,60.11060351,,,,,,,,,,,,,,,,,,,,,,,,,,,down,0,3.4178,,0.359259288,0.043518526,1,0,0,0.5831,0,69,69,154,1,aflopen,images/br_aflopen.png,images/cb_aflopen.png,0,,,,,,,,,,,,,,,,,,,,,,
,,,,,,00080,2023-10-25_08h19.48.112,vbt_B1_day2,2022.2.4,Win32,60.11060351,,,,,,,,,,,,,,,,,,,,,,,,,,,down,0,1.9858,,0.312962991,0.083333333,1,0,0,1.5493,0,70,70,17,1,taal,images/br_taal.png,images/cb_taal.png,1,taal,,,,,,,,,,,,,,,,,,,,,
,,,,,,00080,2023-10-25_08h19.48.112,vbt_B1_day2,2022.2.4,Win32,60.11060351,,,,,,,,,,,,,,,,,,,,,,,,,,,down,0,2.2072,,0.374074159,0.096296275,1,0,0,0.6072,0,71,71,23,1,zout,images/br_zout.png,images/cb_zout.png,0,,,,,,,,,,,,,,,,,,,,,,
,,,,,,00080,2023-10-25_08h19.48.112,vbt_B1_day2,2022.2.4,Win32,60.11060351,,,,,,,,,,,,,,,,,,,,,,,,,,,down,0,23.6209,,0.208333333,-0.055555556,1,0,0,0.727,0,72,72,196,1,nakijken,images/br_nakijken.png,images/cb_nakijken.png,0,,,,,,,,,,,,,,,,,,,,,,
,,,,,,00080,2023-10-25_08h19.48.112,vbt_B1_day2,2022.2.4,Win32,60.11060351,,,,,,,,,,,,,,,,,,,,,,,,,,,down,0,3.7324,,0.234259288,-0.054629644,1,0,0,0.51,0,73,73,107,1,maling,images/br_maling.png,images/cb_maling.png,0,,,,,,,,,,,,,,,,,,,,,,
,,,,,,00080,2023-10-25_08h19.48.112,vbt_B1_day2,2022.2.4,Win32,60.11060351,,,,,,,,,,,,,,,,,,,,,,,,,,,down,0,7.9808,,0.220370399,-0.043518526,1,0,0,0.3977,0,74,74,150,1,gegeven,images/br_gegeven.png,images/cb_gegeven.png,0,,,,,,,,,,,,,,,,,,,,,,
,,,,,,00080,2023-10-25_08h19.48.112,vbt_B1_day2,2022.2.4,Win32,60.11060351,,,,,,,,,,,,,,,,,,,,,,,,,,,down,0,6.0503,,0.167592578,-0.047222243,1,0,0,0.4997,0,75,75,198,1,bedoelen,images/br_bedoelen.png,images/cb_bedoelen.png,0,,,,,,,,,,,,,,,,,,,,,,
,,,,,,00080,2023-10-25_08h19.48.112,vbt_B1_day2,2022.2.4,Win32,60.11060351,,,,,,,,,,,,,,,,,,,,,,,,,,,down,0,3.4493,,0.083333333,-0.035185178,1,0,0,0.4001,0,76,76,46,1,jagen,images/br_jagen.png,images/cb_jagen.png,0,,,,,,,,,,,,,,,,,,,,,,
,,,,,,00080,2023-10-25_08h19.48.112,vbt_B1_day2,2022.2.4,Win32,60.11060351,,,,,,,,,,,,,,,,,,,,,,,,,,,down,0,2.6662,,0.073148162,-0.037037037,1,0,0,0.4496,0,77,77,106,1,zingen,images/br_zingen.png,images/cb_zingen.png,0,,,,,,,,,,,,,,,,,,,,,,
,,,,,,00080,2023-10-25_08h19.48.112,vbt_B1_day2,2022.2.4,Win32,60.11060351,,,,,,,,,,,,,,,,,,,,,,,,,,,down,0,4.9678,,0.178703732,-0.042592614,1,0,0,0.6266,0,78,78,183,1,getuigen,images/br_getuigen.png,images/cb_getuigen.png,0,,,,,,,,,,,,,,,,,,,,,,
,,,,,,00080,2023-10-25_08h19.48.112,vbt_B1_day2,2022.2.4,Win32,60.11060351,,,,,,,,,,,,,,,,,,,,,,,,,,,down,0,0.2219,,-0.015740712,-0.079629651,1,0,0,0.7037,0,79,79,0,1,slak,images/br_slak.png,images/cb_slak.png,0,,,,,,,,,,,,,,,,,,,,,,
,,,,,,00080,2023-10-25_08h19.48.112,vbt_B1_day2,2022.2.4,Win32,60.11060351,,,,,,,,,,,,,,,,,,,,,,,,,,,down,0,4.6324,,0.02870369,-0.045370384,1,0,0,0.5763,0,80,80,133,1,seizoen,images/br_seizoen.png,images/cb_seizoen.png,0,,,,,,,,,,,,,,,,,,,,,,
,,,,,,00080,2023-10-25_08h19.48.112,vbt_B1_day2,2022.2.4,Win32,60.11060351,,,,,,,,,,,,,,,,,,,,,,,,,,,down,0,2.4722,,0.111111111,-0.033333355,1,0,0,0.5661,0,81,81,132,1,grappen,images/br_grappen.png,images/cb_grappen.png,0,,,,,,,,,,,,,,,,,,,,,,
,,,,,,00080,2023-10-25_08h19.48.112,vbt_B1_day2,2022.2.4,Win32,60.11060351,,,,,,,,,,,,,,,,,,,,,,,,,,,down,0,8.7974,,0.216666681,-0.060185185,1,0,0,0.6501,0,82,82,180,1,openbaar,images/br_openbaar.png,images/cb_openbaar.png,0,,,,,,,,,,,,,,,,,,,,,,
,,,,,,00080,2023-10-25_08h19.48.112,vbt_B1_day2,2022.2.4,Win32,60.11060351,,,,,,,,,,,,,,,,,,,,,,,,,,,down,0,4.2704,,0.119444459,-0.046296296,1,0,0,0.5063,0,83,83,174,1,stemming,images/br_stemming.png,images/cb_stemming.png,0,,,,,,,,,,,,,,,,,,,,,,
,,,,,,00080,2023-10-25_08h19.48.112,vbt_B1_day2,2022.2.4,Win32,60.11060351,,,,,,,,,,,,,,,,,,,,,,,,,,,down,0,5.9343,,0.167592578,-0.052777785,1,0,0,0.7392,0,84,84,114,1,vullen,images/br_vullen.png,images/cb_vullen.png,0,,,,,,,,,,,,,,,,,,,,,,
,,,,,,00080,2023-10-25_08h19.48.112,vbt_B1_day2,2022.2.4,Win32,60.11060351,,,,,,,,,,,,,,,,,,,,,,,,,,,down,0,3.5992,,0.094444487,-0.046296296,1,0,0,0.7331,0,85,85,129,1,verhaal,images/br_verhaal.png,images/cb_verhaal.png,0,,,,,,,,,,,,,,,,,,,,,,
,,,,,,00080,2023-10-25_08h19.48.112,vbt_B1_day2,2022.2.4,Win32,60.11060351,,,,,,,,,,,,,,,,,,,,,,,,,,,down,0,5.8549,,0.060185185,-0.057407414,1,0,0,0.55,0,86,86,60,1,jasje,images/br_jasje.png,images/cb_jasje.png,0,,,,,,,,,,,,,,,,,,,,,,
,,,,,,00080,2023-10-25_08h19.48.112,vbt_B1_day2,2022.2.4,Win32,60.11060351,,,,,,,,,,,,,,,,,,,,,,,,,,,down,0,16.9946,,0.012962977,-0.047222243,1,0,0,0.4431,0,87,87,162,1,uitdelen,images/br_uitdelen.png,images/cb_uitdelen.png,0,,,,,,,,,,,,,,,,,,,,,,
,,,,,,00080,2023-10-25_08h19.48.112,vbt_B1_day2,2022.2.4,Win32,60.11060351,,,,,,,,,,,,,,,,,,,,,,,,,,,down,0,2.4165,,0.119444459,-0.050925926,1,0,0,0.4432,0,88,88,62,1,knaap,images/br_knaap.png,images/cb_knaap.png,0,,,,,,,,,,,,,,,,,,,,,,
,,,,,,00080,2023-10-25_08h19.48.112,vbt_B1_day2,2022.2.4,Win32,60.11060351,,,,,,,,,,,,,,,,,,,,,,,,,,,down,0,2.8858,,0.165740755,-0.020370377,1,0,0,0.5161,0,89,89,117,1,kennis,images/br_kennis.png,images/cb_kennis.png,0,,,,,,,,,,,,,,,,,,,,,,
,,,,,,00080,2023-10-25_08h19.48.112,vbt_B1_day2,2022.2.4,Win32,60.11060351,,,,,,,,,,,,,,,,,,,,,,,,,,,down,0,5.9445,,0.174074102,-0.029629637,1,0,0,0.4665,0,90,90,158,1,innemen,images/br_innemen.png,images/cb_innemen.png,0,,,,,,,,,,,,,,,,,,,,,,
,,,,,,00080,2023-10-25_08h19.48.112,vbt_B1_day2,2022.2.4,Win32,60.11060351,,,,,,,,,,,,,,,,,,,,,,,,,,,down,0,4.9487,,0.137962977,-0.027777778,1,0,0,0.5666,0,91,91,105,1,wijlen,images/br_wijlen.png,images/cb_wijlen.png,0,,,,,,,,,,,,,,,,,,,,,,
,,,,,,00080,2023-10-25_08h19.48.112,vbt_B1_day2,2022.2.4,Win32,60.11060351,,,,,,,,,,,,,,,,,,,,,,,,,,,down,0,4.0721,,0.08148151,-0.037962984,1,0,0,0.5705,0,92,92,100,1,geduld,images/br_geduld.png,images/cb_geduld.png,0,,,,,,,,,,,,,,,,,,,,,,
,,,,,,00080,2023-10-25_08h19.48.112,vbt_B1_day2,2022.2.4,Win32,60.11060351,,,,,,,,,,,,,,,,,,,,,,,,,,,down,0,1.0476,,0.08148151,-0.032407407,1,0,0,0.646,0,93,93,30,1,uien,images/br_uien.png,images/cb_uien.png,0,,,,,,,,,,,,,,,,,,,,,,
,,,,,,00080,2023-10-25_08h19.48.112,vbt_B1_day2,2022.2.4,Win32,60.11060351,,,,,,,,,,,,,,,,,,,,,,,,,,,down,0,1.6638,,0.162037037,-0.037962984,1,0,0,0.4364,0,94,94,66,1,lever,images/br_lever.png,images/cb_lever.png,0,,,,,,,,,,,,,,,,,,,,,,
,,,,,,00080,2023-10-25_08h19.48.112,vbt_B1_day2,2022.2.4,Win32,60.11060351,,,,,,,,,,,,,,,,,,,,,,,,,,,down,0,2.4996,,0.002777806,-0.039814808,1,0,0,0.7938,0,95,95,83,1,mening,images/br_mening.png,images/cb_mening.png,0,,,,,,,,,,,,,,,,,,,,,,
,,,,,,00080,2023-10-25_08h19.48.112,vbt_B1_day2,2022.2.4,Win32,60.11060351,,,,,,,,,,,,,,,,,,,,,,,,,,,down,0,2.4665,,0.166666667,-0.024074095,1,0,0,0.5169,0,96,96,44,1,flits,images/br_flits.png,images/cb_flits.png,0,,,,,,,,,,,,,,,,,,,,,,
,,,,,,00080,2023-10-25_08h19.48.112,vbt_B1_day2,2022.2.4,Win32,60.11060351,,,,,,,,,,,,,,,,,,,,,,,,,,,down,0,0.7793,,0.128703718,-0.039814808,1,0,0,1.4765,0,97,97,13,1,kaal,images/br_kaal.png,images/cb_kaal.png,0,,,,,,,,,,,,,,,,,,,,,,
,,,,,,00080,2023-10-25_08h19.48.112,vbt_B1_day2,2022.2.4,Win32,60.11060351,,,,,,,,,,,,,,,,,,,,,,,,,,,down,0,4.7894,,0.169444473,-0.048148155,1,0,0,0.6661,0,98,98,195,1,middelen,images/br_middelen.png,images/cb_middelen.png,0,,,,,,,,,,,,,,,,,,,,,,
,,,,,,00080,2023-10-25_08h19.48.112,vbt_B1_day2,2022.2.4,Win32,60.11060351,,,,,,,,,,,,,,,,,,,,,,,,,,,down,0,3.5658,,0.114814829,-0.042592614,1,0,0,1.2098,0,99,99,157,1,uitlaat,images/br_uitlaat.png,images/cb_uitlaat.png,0,,,,,,,,,,,,,,,,,,,,,,
,,,,,,00080,2023-10-25_08h19.48.112,vbt_B1_day2,2022.2.4,Win32,60.11060351,,,,,,,,,,,,,,,,,,,,,,,,,,,down,0,2.716,,-0.034259231,-0.064814815,1,0,0,0.5494,0,100,100,90,1,geluid,images/br_geluid.png,images/cb_geluid.png,0,,,,,,,,,,,,,,,,,,,,,,
,,,,,,00080,2023-10-25_08h19.48.112,vbt_B1_day2,2022.2.4,Win32,60.11060351,,,,,,,,,,,,,,,,,,,,,,,,,,,down,0,3.3614,,0.095370399,-0.042592614,1,0,0,1.1306,0,101,101,24,1,jurk,images/br_jurk.png,images/cb_jurk.png,0,,,,,,,,,,,,,,,,,,,,,,
,,,,,,00080,2023-10-25_08h19.48.112,vbt_B1_day2,2022.2.4,Win32,60.11060351,,,,,,,,,,,,,,,,,,,,,,,,,,,down,0,4.9074,,0.118518547,-0.022222236,1,0,0,0.5208,0,102,102,75,1,snoep,images/br_snoep.png,images/cb_snoep.png,0,,,,,,,,,,,,,,,,,,,,,,
,,,,,,00080,2023-10-25_08h19.48.112,vbt_B1_day2,2022.2.4,Win32,60.11060351,,,,,,,,,,,,,,,,,,,,,,,,,,,down,0,7.5785,,0.275000042,-0.10555557,1,0,0,0.5027,0,103,103,179,1,woestijn,images/br_woestijn.png,images/cb_woestijn.png,1,woestijn,,,,,,,,,,,,,,,,,,,,,
,,,,,,00080,2023-10-25_08h19.48.112,vbt_B1_day2,2022.2.4,Win32,60.11060351,,,,,,,,,,,,,,,,,,,,,,,,,,,down,0,4.2491,,0.040740755,-0.053703697,1,0,0,0.5041,0,104,104,89,1,slapen,images/br_slapen.png,images/cb_slapen.png,0,,,,,,,,,,,,,,,,,,,,,,
,,,,,,00080,2023-10-25_08h19.48.112,vbt_B1_day2,2022.2.4,Win32,60.11060351,,,,,,,,,,,,,,,,,,,,,,,,,,,down,0,4.3407,,0.341666751,-0.062962956,1,0,0,0.9901,0,105,105,136,1,waarbij,images/br_waarbij.png,images/cb_waarbij.png,1,waarbij,,,,,,,,,,,,,,,,,,,,,
,,,,,,00080,2023-10-25_08h19.48.112,vbt_B1_day2,2022.2.4,Win32,60.11060351,,,,,,,,,,,,,,,,,,,,,,,,,,,down,0,4.34,,0.341666751,-0.062962956,1,0,0,0.6498,0,106,106,149,1,redding,images/br_redding.png,images/cb_redding.png,0,,,,,,,,,,,,,,,,,,,,,,
,,,,,,00080,2023-10-25_08h19.48.112,vbt_B1_day2,2022.2.4,Win32,60.11060351,,,,,,,,,,,,,,,,,,,,,,,,,,,down,0,1.3334,,0.329629686,-0.212962963,1,0,0,0.4328,0,107,107,115,1,kleren,images/br_kleren.png,images/cb_kleren.png,0,,,,,,,,,,,,,,,,,,,,,,
,,,,,,00080,2023-10-25_08h19.48.112,vbt_B1_day2,2022.2.4,Win32,60.11060351,,,,,,,,,,,,,,,,,,,,,,,,,,,down,0,0.7009,,0.329629686,-0.212962963,1,0,0,0.4401,0,108,108,112,1,lukken,images/br_lukken.png,images/cb_lukken.png,0,,,,,,,,,,,,,,,,,,,,,,
,,,,,,00080,2023-10-25_08h19.48.112,vbt_B1_day2,2022.2.4,Win32,60.11060351,,,,,,,,,,,,,,,,,,,,,,,,,,,down,0,4.5611,,0.335185157,-0.195370356,1,0,0,0.6602,0,109,109,99,1,koffie,images/br_koffie.png,images/cb_koffie.png,1,koffie,,,,,,,,,,,,,,,,,,,,,
,,,,,,00080,2023-10-25_08h19.48.112,vbt_B1_day2,2022.2.4,Win32,60.11060351,,,,,,,,,,,,,,,,,,,,,,,,,,,down,0,1.1834,,0.337037122,-0.193518533,1,0,0,1.1331,0,110,110,113,1,koppen,images/br_koppen.png,images/cb_koppen.png,0,,,,,,,,,,,,,,,,,,,,,,
,,,,,,00080,2023-10-25_08h19.48.112,vbt_B1_day2,2022.2.4,Win32,60.11060351,,,,,,,,,,,,,,,,,,,,,,,,,,,down,0,3.0161,,0.337037122,-0.193518533,1,0,0,0.6663,0,111,111,98,1,kreeft,images/br_kreeft.png,images/cb_kreeft.png,1,kreeft,,,,,,,,,,,,,,,,,,,,,
,,,,,,00080,2023-10-25_08h19.48.112,vbt_B1_day2,2022.2.4,Win32,60.11060351,,,,,,,,,,,,,,,,,,,,,,,,,,,down,0,15.3452,,0.351851852,-0.171296296,1,0,0,1.7763,0,112,112,37,1,mijn,images/br_mijn.png,images/cb_mijn.png,0,,,,,,,,,,,,,,,,,,,,,,
,,,,,,00080,2023-10-25_08h19.48.112,vbt_B1_day2,2022.2.4,Win32,60.11060351,,,,,,,,,,,,,,,,,,,,,,,,,,,down,0,1.6751,,0.351851852,-0.171296296,1,0,0,0.5333,0,113,113,61,1,groen,images/br_groen.png,images/cb_groen.png,0,,,,,,,,,,,,,,,,,,,,,,
,,,,,,00080,2023-10-25_08h19.48.112,vbt_B1_day2,2022.2.4,Win32,60.11060351,,,,,,,,,,,,,,,,,,,,,,,,,,,down,0,2.1124,,0.351851852,-0.171296296,1,0,0,0.3662,0,114,114,120,1,klimmen,images/br_klimmen.png,images/cb_klimmen.png,0,,,,,,,,,,,,,,,,,,,,,,
,,,,,,00080,2023-10-25_08h19.48.112,vbt_B1_day2,2022.2.4,Win32,60.11060351,,,,,,,,,,,,,,,,,,,,,,,,,,,down,0,1.929,,0.351851852,-0.171296296,1,0,0,0.4997,0,115,115,124,1,bloeien,images/br_bloeien.png,images/cb_bloeien.png,0,,,,,,,,,,,,,,,,,,,,,,
,,,,,,00080,2023-10-25_08h19.48.112,vbt_B1_day2,2022.2.4,Win32,60.11060351,,,,,,,,,,,,,,,,,,,,,,,,,,,down,0,5.0654,,0.351851852,-0.171296296,1,0,0,0.7395,0,116,116,151,1,aanzoek,images/br_aanzoek.png,images/cb_aanzoek.png,0,,,,,,,,,,,,,,,,,,,,,,
,,,,,,00080,2023-10-25_08h19.48.112,vbt_B1_day2,2022.2.4,Win32,60.11060351,,,,,,,,,,,,,,,,,,,,,,,,,,,down,0,1.6501,,0.351851852,-0.171296296,1,0,0,0.4164,0,117,117,148,1,smullen,images/br_smullen.png,images/cb_smullen.png,0,,,,,,,,,,,,,,,,,,,,,,
,,,,,,00080,2023-10-25_08h19.48.112,vbt_B1_day2,2022.2.4,Win32,60.11060351,,,,,,,,,,,,,,,,,,,,,,,,,,,down,0,3.7324,,0.351851852,-0.171296296,1,0,0,0.8495,0,118,118,192,1,schaamte,images/br_schaamte.png,images/cb_schaamte.png,0,,,,,,,,,,,,,,,,,,,,,,
,,,,,,00080,2023-10-25_08h19.48.112,vbt_B1_day2,2022.2.4,Win32,60.11060351,,,,,,,,,,,,,,,,,,,,,,,,,,,down,0,2.0996,,0.351851852,-0.171296296,1,0,0,0.61,0,119,119,126,1,kasteel,images/br_kasteel.png,images/cb_kasteel.png,0,,,,,,,,,,,,,,,,,,,,,,
,,,,,,00080,2023-10-25_08h19.48.112,vbt_B1_day2,2022.2.4,Win32,60.11060351,,,,,,,,,,,,,,,,,,,,,,,,,,,down,0,3.5873,,0.499074159,-0.184259273,1,0,0,0.6662,0,120,120,177,1,maaltijd,images/br_maaltijd.png,images/cb_maaltijd.png,1,maaltijd,,,,,,,,,,,,,,,,,,,,,
,,,,,,00080,2023-10-25_08h19.48.112,vbt_B1_day2,2022.2.4,Win32,60.11060351,,,,,,,,,,,,,,,,,,,,,,,,,,,down,0,6.8982,,0.499074159,-0.184259273,1,0,0,1.6059,0,121,121,80,1,kanjer,images/br_kanjer.png,images/cb_kanjer.png,0,,,,,,,,,,,,,,,,,,,,,,
,,,,,,00080,2023-10-25_08h19.48.112,vbt_B1_day2,2022.2.4,Win32,60.11060351,,,,,,,,,,,,,,,,,,,,,,,,,,,down,0,0.9498,,0.449074074,-0.116666653,1,0,0,4.5317,0,122,122,10,1,leek,images/br_leek.png,images/cb_leek.png,0,,,,,,,,,,,,,,,,,,,,,,
,,,,,,00080,2023-10-25_08h19.48.112,vbt_B1_day2,2022.2.4,Win32,60.11060351,,,,,,,,,,,,,,,,,,,,,,,,,,,down,0,2.1663,,0.289814843,-0.17777782,1,0,0,0.5066,0,123,123,87,1,toeval,images/br_toeval.png,images/cb_toeval.png,0,,,,,,,,,,,,,,,,,,,,,,
,,,,,,00080,2023-10-25_08h19.48.112,vbt_B1_day2,2022.2.4,Win32,60.11060351,,,,,,,,,,,,,,,,,,,,,,,,,,,down,0,1.783,,0.289814843,-0.17777782,1,0,0,0.7333,0,124,124,54,1,gebit,images/br_gebit.png,images/cb_gebit.png,0,,,,,,,,,,,,,,,,,,,,,,
,,,,,,00080,2023-10-25_08h19.48.112,vbt_B1_day2,2022.2.4,Win32,60.11060351,,,,,,,,,,,,,,,,,,,,,,,,,,,down,0,4.6154,,0.289814843,-0.17777782,1,0,0,6.1307,0,125,125,146,1,opkomen,images/br_opkomen.png,images/cb_opkomen.png,0,,,,,,,,,,,,,,,,,,,,,,
,,,,,,00080,2023-10-25_08h19.48.112,vbt_B1_day2,2022.2.4,Win32,60.11060351,,,,,,,,,,,,,,,,,,,,,,,,,,,down,0,8.0795,,0.289814843,-0.17777782,1,0,0,0.7604,0,126,126,185,1,mijnheer,images/br_mijnheer.png,images/cb_mijnheer.png,0,,,,,,,,,,,,,,,,,,,,,,
,,,,,,00080,2023-10-25_08h19.48.112,vbt_B1_day2,2022.2.4,Win32,60.11060351,,,,,,,,,,,,,,,,,,,,,,,,,,,down,0,1.842,,0.289814843,-0.17777782,1,0,0,0.623,0,127,127,21,1,mist,images/br_mist.png,images/cb_mist.png,0,,,,,,,,,,,,,,,,,,,,,,
,,,,,,00080,2023-10-25_08h19.48.112,vbt_B1_day2,2022.2.4,Win32,60.11060351,,,,,,,,,,,,,,,,,,,,,,,,,,,down,0,1.5498,,0.289814843,-0.17777782,1,0,0,0.6336,0,128,128,22,1,stof,images/br_stof.png,images/cb_stof.png,0,,,,,,,,,,,,,,,,,,,,,,
,,,,,,00080,2023-10-25_08h19.48.112,vbt_B1_day2,2022.2.4,Win32,60.11060351,,,,,,,,,,,,,,,,,,,,,,,,,,,down,0,2.447,,0.289814843,-0.17777782,1,0,0,0.4965,0,129,129,19,1,geit,images/br_geit.png,images/cb_geit.png,1,geit,,,,,,,,,,,,,,,,,,,,,
,,,,,,00080,2023-10-25_08h19.48.112,vbt_B1_day2,2022.2.4,Win32,60.11060351,,,,,,,,,,,,,,,,,,,,,,,,,,,down,0,2.9994,,0.289814843,-0.17777782,1,0,0,1.7223,0,130,130,175,1,heengaan,images/br_heengaan.png,images/cb_heengaan.png,0,,,,,,,,,,,,,,,,,,,,,,
,,,,,,00080,2023-10-25_08h19.48.112,vbt_B1_day2,2022.2.4,Win32,60.11060351,,,,,,,,,,,,,,,,,,,,,,,,,,,down,0,3.4841,,0.289814843,-0.17777782,1,0,0,0.6166,0,131,131,152,1,afnemen,images/br_afnemen.png,images/cb_afnemen.png,0,,,,,,,,,,,,,,,,,,,,,,
,,,,,,00080,2023-10-25_08h19.48.112,vbt_B1_day2,2022.2.4,Win32,60.11060351,,,,,,,,,,,,,,,,,,,,,,,,,,,down,0,4.0612,,0.289814843,-0.17777782,1,0,0,1.1325,0,132,132,160,1,daarheen,images/br_daarheen.png,images/cb_daarheen.png,0,,,,,,,,,,,,,,,,,,,,,,
,,,,,,00080,2023-10-25_08h19.48.112,vbt_B1_day2,2022.2.4,Win32,60.11060351,,,,,,,,,,,,,,,,,,,,,,,,,,,down,0,14.4426,,0.289814843,-0.17777782,1,0,0,0.7359,0,133,133,108,1,excuus,images/br_excuus.png,images/cb_excuus.png,0,,,,,,,,,,,,,,,,,,,,,,
,,,,,,00080,2023-10-25_08h19.48.112,vbt_B1_day2,2022.2.4,Win32,60.11060351,,,,,,,,,,,,,,,,,,,,,,,,,,,down,0,6.4648,,0.289814843,-0.17777782,1,0,0,0.5498,0,134,134,153,1,vervoer,images/br_vervoer.png,images/cb_vervoer.png,0,,,,,,,,,,,,,,,,,,,,,,
,,,,,,00080,2023-10-25_08h19.48.112,vbt_B1_day2,2022.2.4,Win32,60.11060351,,,,,,,,,,,,,,,,,,,,,,,,,,,down,0,3.1662,,0.289814843,-0.17777782,1,0,0,0.5331,0,135,135,181,1,toegeven,images/br_toegeven.png,images/cb_toegeven.png,0,,,,,,,,,,,,,,,,,,,,,,
,,,,,,00080,2023-10-25_08h19.48.112,vbt_B1_day2,2022.2.4,Win32,60.11060351,,,,,,,,,,,,,,,,,,,,,,,,,,,down,0,3.116,,0.289814843,-0.17777782,1,0,0,0.567,0,136,136,137,1,trekker,images/br_trekker.png,images/cb_trekker.png,1,trekker,,,,,,,,,,,,,,,,,,,,,
,,,,,,00080,2023-10-25_08h19.48.112,vbt_B1_day2,2022.2.4,Win32,60.11060351,,,,,,,,,,,,,,,,,,,,,,,,,,,down,0,3.1201,,0.289814843,-0.17777782,1,0,0,1.1329,0,137,137,125,1,aanzien,images/br_aanzien.png,images/cb_aanzien.png,0,,,,,,,,,,,,,,,,,,,,,,
,,,,,,00080,2023-10-25_08h19.48.112,vbt_B1_day2,2022.2.4,Win32,60.11060351,,,,,,,,,,,,,,,,,,,,,,,,,,,down,0,3.5661,,0.259259259,-0.186111097,1,0,0,0.6562,0,138,138,197,1,spanning,images/br_spanning.png,images/cb_spanning.png,0,,,,,,,,,,,,,,,,,,,,,,
,,,,,,00080,2023-10-25_08h19.48.112,vbt_B1_day2,2022.2.4,Win32,60.11060351,,,,,,,,,,,,,,,,,,,,,,,,,,,down,0,2.0693,,0.259259259,-0.186111097,1,0,0,0.4164,0,139,139,52,1,wagon,images/br_wagon.png,images/cb_wagon.png,0,,,,,,,,,,,,,,,,,,,,,,
,,,,,,00080,2023-10-25_08h19.48.112,vbt_B1_day2,2022.2.4,Win32,60.11060351,,,,,,,,,,,,,,,,,,,,,,,,,,,down,0,7.8361,,0.259259259,-0.186111097,1,0,0,0.7666,0,140,140,194,1,driemaal,images/br_driemaal.png,images/cb_driemaal.png,0,,,,,,,,,,,,,,,,,,,,,,
,,,,,,00080,2023-10-25_08h19.48.112,vbt_B1_day2,2022.2.4,Win32,60.11060351,,,,,,,,,,,,,,,,,,,,,,,,,,,down,0,2.218,,0.259259259,-0.186111097,1,0,0,0.4829,0,141,141,45,1,piste,images/br_piste.png,images/cb_piste.png,0,,,,,,,,,,,,,,,,,,,,,,
,,,,,,00080,2023-10-25_08h19.48.112,vbt_B1_day2,2022.2.4,Win32,60.11060351,,,,,,,,,,,,,,,,,,,,,,,,,,,down,0,2.3254,,0.259259259,-0.186111097,1,0,0,0.4331,0,142,142,141,1,knielen,images/br_knielen.png,images/cb_knielen.png,0,,,,,,,,,,,,,,,,,,,,,,
,,,,,,00080,2023-10-25_08h19.48.112,vbt_B1_day2,2022.2.4,Win32,60.11060351,,,,,,,,,,,,,,,,,,,,,,,,,,,down,0,4.2081,,0.259259259,-0.186111097,1,0,0,0.9164,0,143,143,71,1,bever,images/br_bever.png,images/cb_bever.png,0,,,,,,,,,,,,,,,,,,,,,,
,,,,,,00080,2023-10-25_08h19.48.112,vbt_B1_day2,2022.2.4,Win32,60.11060351,,,,,,,,,,,,,,,,,,,,,,,,,,,down,0,14.5451,,0.259259259,-0.186111097,1,0,0,1.5493,0,144,144,165,1,feestdag,images/br_feestdag.png,images/cb_feestdag.png,0,,,,,,,,,,,,,,,,,,,,,,
,,,,,,00080,2023-10-25_08h19.48.112,vbt_B1_day2,2022.2.4,Win32,60.11060351,,,,,,,,,,,,,,,,,,,,,,,,,,,down,0,7.5051,,0.259259259,-0.186111097,1,0,0,0.6731,0,145,145,182,1,bijkomen,images/br_bijkomen.png,images/cb_bijkomen.png,0,,,,,,,,,,,,,,,,,,,,,,
,,,,,,00080,2023-10-25_08h19.48.112,vbt_B1_day2,2022.2.4,Win32,60.11060351,,,,,,,,,,,,,,,,,,,,,,,,,,,down,0,0.5026,,0.259259259,-0.186111097,1,0,0,0.7228,0,146,146,5,1,blad,images/br_blad.png,images/cb_blad.png,0,,,,,,,,,,,,,,,,,,,,,,
,,,,,,00080,2023-10-25_08h19.48.112,vbt_B1_day2,2022.2.4,Win32,60.11060351,,,,,,,,,,,,,,,,,,,,,,,,,,,down,0,1.3835,,0.259259259,-0.186111097,1,0,0,0.4995,0,147,147,16,1,ziek,images/br_ziek.png,images/cb_ziek.png,1,ziek,,,,,,,,,,,,,,,,,,,,,
,,,,,,00080,2023-10-25_08h19.48.112,vbt_B1_day2,2022.2.4,Win32,60.11060351,,,,,,,,,,,,,,,,,,,,,,,,,,,down,0,2.9785,,0.259259259,-0.186111097,1,0,0,0.5662,0,148,148,4,1,moes,images/br_moes.png,images/cb_moes.png,0,,,,,,,,,,,,,,,,,,,,,,
,,,,,,00080,2023-10-25_08h19.48.112,vbt_B1_day2,2022.2.4,Win32,60.11060351,,,,,,,,,,,,,,,,,,,,,,,,,,,down,0,7.1132,,0.259259259,-0.186111097,1,0,0,1.143,0,149,149,159,1,sufferd,images/br_sufferd.png,images/cb_sufferd.png,0,,,,,,,,,,,,,,,,,,,,,,
,,,,,,00080,2023-10-25_08h19.48.112,vbt_B1_day2,2022.2.4,Win32,60.11060351,,,,,,,,,,,,,,,,,,,,,,,,,,,down,0,1.1498,,0.259259259,-0.186111097,1,0,0,0.4165,0,150,150,64,1,wegen,images/br_wegen.png,images/cb_wegen.png,0,,,,,,,,,,,,,,,,,,,,,,
,,,,,,00080,2023-10-25_08h19.48.112,vbt_B1_day2,2022.2.4,Win32,60.11060351,,,,,,,,,,,,,,,,,,,,,,,,,,,down,0,2.5784,,0.259259259,-0.186111097,1,0,0,0.5996,0,151,151,40,1,schep,images/br_schep.png,images/cb_schep.png,0,,,,,,,,,,,,,,,,,,,,,,
,,,,,,00080,2023-10-25_08h19.48.112,vbt_B1_day2,2022.2.4,Win32,60.11060351,,,,,,,,,,,,,,,,,,,,,,,,,,,down,0,0.8875,,0.259259259,-0.186111097,1,0,0,0.4232,0,152,152,36,1,vuur,images/br_vuur.png,images/cb_vuur.png,0,,,,,,,,,,,,,,,,,,,,,,
,,,,,,00080,2023-10-25_08h19.48.112,vbt_B1_day2,2022.2.4,Win32,60.11060351,,,,,,,,,,,,,,,,,,,,,,,,,,,down,0,1.9831,,0.259259259,-0.186111097,1,0,0,0.5998,0,153,153,74,1,graaf,images/br_graaf.png,images/cb_graaf.png,0,,,,,,,,,,,,,,,,,,,,,,
,,,,,,00080,2023-10-25_08h19.48.112,vbt_B1_day2,2022.2.4,Win32,60.11060351,,,,,,,,,,,,,,,,,,,,,,,,,,,down,0,2.5684,,0.252777806,-0.134259259,1,0,0,0.4332,0,154,154,77,1,woede,images/br_woede.png,images/cb_woede.png,0,,,,,,,,,,,,,,,,,,,,,,
,,,,,,00080,2023-10-25_08h19.48.112,vbt_B1_day2,2022.2.4,Win32,60.11060351,,,,,,,,,,,,,,,,,,,,,,,,,,,down,0,0.567,,0.252777806,-0.134259259,1,0,0,0.4397,0,155,155,42,1,bleek,images/br_bleek.png,images/cb_bleek.png,0,,,,,,,,,,,,,,,,,,,,,,
,,,,,,00080,2023-10-25_08h19.48.112,vbt_B1_day2,2022.2.4,Win32,60.11060351,,,,,,,,,,,,,,,,,,,,,,,,,,,down,0,1.085,,0.252777806,-0.134259259,1,0,0,0.533,0,156,156,48,1,steel,images/br_steel.png,images/cb_steel.png,0,,,,,,,,,,,,,,,,,,,,,,
,,,,,,00080,2023-10-25_08h19.48.112,vbt_B1_day2,2022.2.4,Win32,60.11060351,,,,,,,,,,,,,,,,,,,,,,,,,,,down,0,22.6349,,0.204629616,-0.124074088,1,0,0,0.3999,0,157,157,127,1,doodmoe,images/br_doodmoe.png,images/cb_doodmoe.png,0,,,,,,,,,,,,,,,,,,,,,,
,,,,,,00080,2023-10-25_08h19.48.112,vbt_B1_day2,2022.2.4,Win32,60.11060351,,,,,,,,,,,,,,,,,,,,,,,,,,,down,0,1.1975,,0.204629616,-0.124074088,1,0,0,0.3125,0,158,158,51,1,samen,images/br_samen.png,images/cb_samen.png,0,,,,,,,,,,,,,,,,,,,,,,
,,,,,,00080,2023-10-25_08h19.48.112,vbt_B1_day2,2022.2.4,Win32,60.11060351,,,,,,,,,,,,,,,,,,,,,,,,,,,down,0,3.1967,,0.204629616,-0.124074088,1,0,0,0.3132,0,159,159,79,1,nodig,images/br_nodig.png,images/cb_nodig.png,0,,,,,,,,,,,,,,,,,,,,,,
,,,,,,00080,2023-10-25_08h19.48.112,vbt_B1_day2,2022.2.4,Win32,60.11060351,,,,,,,,,,,,,,,,,,,,,,,,,,,down,0,0.5729,,0.204629616,-0.124074088,1,0,0,0.3063,0,160,160,49,1,laken,images/br_laken.png,images/cb_laken.png,0,,,,,,,,,,,,,,,,,,,,,,
,,,,,,00080,2023-10-25_08h19.48.112,vbt_B1_day2,2022.2.4,Win32,60.11060351,,,,,,,,,,,,,,,,,,,,,,,,,,,down,0,3.2652,,0.204629616,-0.124074088,1,0,0,0.4335,0,161,161,143,1,hechten,images/br_hechten.png,images/cb_hechten.png,0,,,,,,,,,,,,,,,,,,,,,,
,,,,,,00080,2023-10-25_08h19.48.112,vbt_B1_day2,2022.2.4,Win32,60.11060351,,,,,,,,,,,,,,,,,,,,,,,,,,,down,0,1.7472,,0.40370376,-0.125925912,1,0,0,0.6624,0,162,162,56,1,traag,images/br_traag.png,images/cb_traag.png,1,traag,,,,,,,,,,,,,,,,,,,,,
,,,,,,00080,2023-10-25_08h19.48.112,vbt_B1_day2,2022.2.4,Win32,60.11060351,,,,,,,,,,,,,,,,,,,,,,,,,,,down,0,2.6616,,0.40370376,-0.125925912,1,0,0,0.4367,0,163,163,14,1,rijp,images/br_rijp.png,images/cb_rijp.png,0,,,,,,,,,,,,,,,,,,,,,,
,,,,,,00080,2023-10-25_08h19.48.112,vbt_B1_day2,2022.2.4,Win32,60.11060351,,,,,,,,,,,,,,,,,,,,,,,,,,,down,0,3.8282,,0.40370376,-0.125925912,1,0,0,0.397,0,164,164,104,1,zweven,images/br_zweven.png,images/cb_zweven.png,0,,,,,,,,,,,,,,,,,,,,,,
,,,,,,00080,2023-10-25_08h19.48.112,vbt_B1_day2,2022.2.4,Win32,60.11060351,,,,,,,,,,,,,,,,,,,,,,,,,,,down,0,1.7707,,0.40370376,-0.125925912,1,0,0,0.4059,0,165,165,128,1,prikken,images/br_prikken.png,images/cb_prikken.png,0,,,,,,,,,,,,,,,,,,,,,,
,,,,,,00080,2023-10-25_08h19.48.112,vbt_B1_day2,2022.2.4,Win32,60.11060351,,,,,,,,,,,,,,,,,,,,,,,,,,,down,0,2.8074,,0.40370376,-0.125925912,1,0,0,0.5668,0,166,166,97,1,loyaal,images/br_loyaal.png,images/cb_loyaal.png,1,loyaal,,,,,,,,,,,,,,,,,,,,,
,,,,,,00080,2023-10-25_08h19.48.112,vbt_B1_day2,2022.2.4,Win32,60.11060351,,,,,,,,,,,,,,,,,,,,,,,,,,,down,0,0.6001,,0.40370376,-0.125925912,1,0,0,0.5999,0,167,167,31,1,poes,images/br_poes.png,images/cb_poes.png,0,,,,,,,,,,,,,,,,,,,,,,
,,,,,,00080,2023-10-25_08h19.48.112,vbt_B1_day2,2022.2.4,Win32,60.11060351,,,,,,,,,,,,,,,,,,,,,,,,,,,down,0,10.8801,,0.40370376,-0.125925912,1,0,0,0.6666,0,168,168,190,1,goedkoop,images/br_goedkoop.png,images/cb_goedkoop.png,0,,,,,,,,,,,,,,,,,,,,,,
,,,,,,00080,2023-10-25_08h19.48.112,vbt_B1_day2,2022.2.4,Win32,60.11060351,,,,,,,,,,,,,,,,,,,,,,,,,,,down,0,3.2927,,0.40370376,-0.125925912,1,0,0,0.583,0,169,169,82,1,muziek,images/br_muziek.png,images/cb_muziek.png,0,,,,,,,,,,,,,,,,,,,,,,
,,,,,,00080,2023-10-25_08h19.48.112,vbt_B1_day2,2022.2.4,Win32,60.11060351,,,,,,,,,,,,,,,,,,,,,,,,,,,down,0,1.4455,,0.40370376,-0.125925912,1,0,0,0.6164,0,170,170,6,1,diep,images/br_diep.png,images/cb_diep.png,0,,,,,,,,,,,,,,,,,,,,,,
,,,,,,00080,2023-10-25_08h19.48.112,vbt_B1_day2,2022.2.4,Win32,60.11060351,,,,,,,,,,,,,,,,,,,,,,,,,,,down,0,15.8284,,0.510185242,-0.094444487,1,0,0,0.3934,0,171,171,199,1,beseffen,images/br_beseffen.png,images/cb_beseffen.png,0,,,,,,,,,,,,,,,,,,,,,,
,,,,,,00080,2023-10-25_08h19.48.112,vbt_B1_day2,2022.2.4,Win32,60.11060351,,,,,,,,,,,,,,,,,,,,,,,,,,,down,0,6.0526,,0.510185242,-0.094444487,1,0,0,0.4333,0,172,172,178,1,huisdier,images/br_huisdier.png,images/cb_huisdier.png,1,huisdier,,,,,,,,,,,,,,,,,,,,,
,,,,,,00080,2023-10-25_08h19.48.112,vbt_B1_day2,2022.2.4,Win32,60.11060351,,,,,,,,,,,,,,,,,,,,,,,,,,,down,0,4.2009,,0.510185242,-0.094444487,1,0,0,1.0664,0,173,173,164,1,anarchie,images/br_anarchie.png,images/cb_anarchie.png,0,,,,,,,,,,,,,,,,,,,,,,
,,,,,,00080,2023-10-25_08h19.48.112,vbt_B1_day2,2022.2.4,Win32,60.11060351,,,,,,,,,,,,,,,,,,,,,,,,,,,down,0,4.6349,,0.510185242,-0.094444487,1,0,0,0.5932,0,174,174,116,1,besmet,images/br_besmet.png,images/cb_besmet.png,0,,,,,,,,,,,,,,,,,,,,,,
,,,,,,00080,2023-10-25_08h19.48.112,vbt_B1_day2,2022.2.4,Win32,60.11060351,,,,,,,,,,,,,,,,,,,,,,,,,,,down,0,3.4202,,0.510185242,-0.094444487,1,0,0,0.5035,0,175,175,155,1,gerucht,images/br_gerucht.png,images/cb_gerucht.png,0,,,,,,,,,,,,,,,,,,,,,,
,,,,,,00080,2023-10-25_08h19.48.112,vbt_B1_day2,2022.2.4,Win32,60.11060351,,,,,,,,,,,,,,,,,,,,,,,,,,,down,0,2.8829,,0.510185242,-0.094444487,1,0,0,0.3669,0,176,176,189,1,aanraden,images/br_aanraden.png,images/cb_aanraden.png,0,,,,,,,,,,,,,,,,,,,,,,
,,,,,,00080,2023-10-25_08h19.48.112,vbt_B1_day2,2022.2.4,Win32,60.11060351,,,,,,,,,,,,,,,,,,,,,,,,,,,down,0,1.1457,,0.510185242,-0.094444487,1,0,0,0.4525,0,177,177,57,1,steek,images/br_steek.png,images/cb_steek.png,1,steek,,,,,,,,,,,,,,,,,,,,,
,,,,,,00080,2023-10-25_08h19.48.112,vbt_B1_day2,2022.2.4,Win32,60.11060351,,,,,,,,,,,,,,,,,,,,,,,,,,,down,0,2.8827,,0.510185242,-0.094444487,1,0,0,0.5272,0,178,178,169,1,oprotten,images/br_oprotten.png,images/cb_oprotten.png,0,,,,,,,,,,,,,,,,,,,,,,
,,,,,,00080,2023-10-25_08h19.48.112,vbt_B1_day2,2022.2.4,Win32,60.11060351,,,,,,,,,,,,,,,,,,,,,,,,,,,down,0,9.2803,,0.510185242,-0.094444487,1,0,0,0.6933,0,179,179,187,1,opkijken,images/br_opkijken.png,images/cb_opkijken.png,0,,,,,,,,,,,,,,,,,,,,,,
,,,,,,00080,2023-10-25_08h19.48.112,vbt_B1_day2,2022.2.4,Win32,60.11060351,,,,,,,,,,,,,,,,,,,,,,,,,,,down,0,1.4201,,0.510185242,-0.094444487,1,0,0,0.4735,0,180,180,122,1,waarvan,images/br_waarvan.png,images/cb_waarvan.png,0,,,,,,,,,,,,,,,,,,,,,,
,,,,,,00080,2023-10-25_08h19.48.112,vbt_B1_day2,2022.2.4,Win32,60.11060351,,,,,,,,,,,,,,,,,,,,,,,,,,,down,0,2.1457,,0.510185242,-0.094444487,1,0,0,0.4167,0,181,181,96,1,slagen,images/br_slagen.png,images/cb_slagen.png,1,slagen,,,,,,,,,,,,,,,,,,,,,
,,,,,,00080,2023-10-25_08h19.48.112,vbt_B1_day2,2022.2.4,Win32,60.11060351,,,,,,,,,,,,,,,,,,,,,,,,,,,down,0,1.6999,,0.510185242,-0.094444487,1,0,0,0.46,0,182,182,65,1,parel,images/br_parel.png,images/cb_parel.png,0,,,,,,,,,,,,,,,,,,,,,,
,,,,,,00080,2023-10-25_08h19.48.112,vbt_B1_day2,2022.2.4,Win32,60.11060351,,,,,,,,,,,,,,,,,,,,,,,,,,,down,0,2.283,,0.510185242,-0.094444487,1,0,0,0.4732,0,183,183,118,1,vinger,images/br_vinger.png,images/cb_vinger.png,0,,,,,,,,,,,,,,,,,,,,,,
,,,,,,00080,2023-10-25_08h19.48.112,vbt_B1_day2,2022.2.4,Win32,60.11060351,,,,,,,,,,,,,,,,,,,,,,,,,,,down,0,1.2289,,0.510185242,-0.094444487,1,0,0,0.3666,0,184,184,101,1,staren,images/br_staren.png,images/cb_staren.png,0,,,,,,,,,,,,,,,,,,,,,,
,,,,,,00080,2023-10-25_08h19.48.112,vbt_B1_day2,2022.2.4,Win32,60.11060351,,,,,,,,,,,,,,,,,,,,,,,,,,,down,0,1.5401,,0.510185242,-0.094444487,1,0,0,0.4831,0,185,185,47,1,kabel,images/br_kabel.png,images/cb_kabel.png,0,,,,,,,,,,,,,,,,,,,,,,
,,,,,,00080,2023-10-25_08h19.48.112,vbt_B1_day2,2022.2.4,Win32,60.11060351,,,,,,,,,,,,,,,,,,,,,,,,,,,down,0,4.5489,,0.510185242,-0.094444487,1,0,0,1.8393,0,186,186,94,1,oceaan,images/br_oceaan.png,images/cb_oceaan.png,0,,,,,,,,,,,,,,,,,,,,,,
,,,,,,00080,2023-10-25_08h19.48.112,vbt_B1_day2,2022.2.4,Win32,60.11060351,,,,,,,,,,,,,,,,,,,,,,,,,,,down,0,0.8999,,0.510185242,-0.094444487,1,0,0,0.7473,0,187,187,55,1,praat,images/br_praat.png,images/cb_praat.png,0,,,,,,,,,,,,,,,,,,,,,,
,,,,,,00080,2023-10-25_08h19.48.112,vbt_B1_day2,2022.2.4,Win32,60.11060351,,,,,,,,,,,,,,,,,,,,,,,,,,,down,0,3.0041,,0.510185242,-0.094444487,1,0,0,0.5165,0,188,188,161,1,attentie,images/br_attentie.png,images/cb_attentie.png,0,,,,,,,,,,,,,,,,,,,,,,
,,,,,,00080,2023-10-25_08h19.48.112,vbt_B1_day2,2022.2.4,Win32,60.11060351,,,,,,,,,,,,,,,,,,,,,,,,,,,down,0,4.1449,,0.510185242,-0.094444487,1,0,0,1.576,0,189,189,119,1,liefje,images/br_liefje.png,images/cb_liefje.png,0,,,,,,,,,,,,,,,,,,,,,,
,,,,,,00080,2023-10-25_08h19.48.112,vbt_B1_day2,2022.2.4,Win32,60.11060351,,,,,,,,,,,,,,,,,,,,,,,,,,,down,0,2.3496,,0.510185242,-0.094444487,1,0,0,0.4322,0,190,190,58,1,tekst,images/br_tekst.png,images/cb_tekst.png,1,tekst,,,,,,,,,,,,,,,,,,,,,
,,,,,,00080,2023-10-25_08h19.48.112,vbt_B1_day2,2022.2.4,Win32,60.11060351,,,,,,,,,,,,,,,,,,,,,,,,,,,down,0,0.8999,,0.510185242,-0.094444487,1,0,0,0.467,0,191,191,84,1,lokken,images/br_lokken.png,images/cb_lokken.png,0,,,,,,,,,,,,,,,,,,,,,,
,,,,,,00080,2023-10-25_08h19.48.112,vbt_B1_day2,2022.2.4,Win32,60.11060351,,,,,,,,,,,,,,,,,,,,,,,,,,,down,0,2.1422,,0.510185242,-0.094444487,1,0,0,0.4001,0,192,192,59,1,kring,images/br_kring.png,images/cb_kring.png,1,kring,,,,,,,,,,,,,,,,,,,,,
,,,,,,00080,2023-10-25_08h19.48.112,vbt_B1_day2,2022.2.4,Win32,60.11060351,,,,,,,,,,,,,,,,,,,,,,,,,,,down,0,1.9786,,0.510185242,-0.094444487,1,0,0,0.4998,0,193,193,18,1,blik,images/br_blik.png,images/cb_blik.png,1,blik,,,,,,,,,,,,,,,,,,,,,
,,,,,,00080,2023-10-25_08h19.48.112,vbt_B1_day2,2022.2.4,Win32,60.11060351,,,,,,,,,,,,,,,,,,,,,,,,,,,down,0,8.9666,,0.510185242,-0.094444487,1,0,0,2.7824,0,194,194,121,1,twijfel,images/br_twijfel.png,images/cb_twijfel.png,0,,,,,,,,,,,,,,,,,,,,,,
,,,,,,00080,2023-10-25_08h19.48.112,vbt_B1_day2,2022.2.4,Win32,60.11060351,,,,,,,,,,,,,,,,,,,,,,,,,,,down,0,2.8354,,0.510185242,-0.094444487,1,0,0,0.3904,0,195,195,171,1,aarzelen,images/br_aarzelen.png,images/cb_aarzelen.png,0,,,,,,,,,,,,,,,,,,,,,,
,,,,,,00080,2023-10-25_08h19.48.112,vbt_B1_day2,2022.2.4,Win32,60.11060351,,,,,,,,,,,,,,,,,,,,,,,,,,,down,0,1.7369,,0.510185242,-0.094444487,1,0,0,0.3898,0,196,196,69,1,waken,images/br_waken.png,images/cb_waken.png,0,,,,,,,,,,,,,,,,,,,,,,
,,,,,,00080,2023-10-25_08h19.48.112,vbt_B1_day2,2022.2.4,Win32,60.11060351,,,,,,,,,,,,,,,,,,,,,,,,,,,down,0,3.8324,,0.510185242,-0.094444487,1,0,0,0.3937,0,197,197,166,1,strikken,images/br_strikken.png,images/cb_strikken.png,0,,,,,,,,,,,,,,,,,,,,,,
,,,,,,00080,2023-10-25_08h19.48.112,vbt_B1_day2,2022.2.4,Win32,60.11060351,,,,,,,,,,,,,,,,,,,,,,,,,,,down,0,1.1375,,0.510185242,-0.094444487,1,0,0,0.5498,0,198,198,35,1,lust,images/br_lust.png,images/cb_lust.png,0,,,,,,,,,,,,,,,,,,,,,,
,,,,,,00080,2023-10-25_08h19.48.112,vbt_B1_day2,2022.2.4,Win32,60.11060351,,,,,,,,,,,,,,,,,,,,,,,,,,,down,0,4.295,,0.510185242,-0.094444487,1,0,0,0.4831,0,199,199,15,1,soda,images/br_soda.png,images/cb_soda.png,0,,,,,,,,,,,,,,,,,,,,,,
,,,,,,00080,2023-10-25_08h19.48.112,vbt_B1_day2,2022.2.4,Win32,60.11060351,,,,,,,,,,,,,,,,,,,,,,,,,,,,,,,,,,,,,,,,,,,,,,,0.503703788,-0.0074074,1,0,0,,,,,,,,,,,,,,,,
,,,,,,00080,2023-10-25_08h19.48.112,vbt_B1_day2,2022.2.4,Win32,60.11060351,,,,,,,,,,,,,,,,,,,,,,,,,,,,,,,,,,,,,,,,,,,,,,,,,,,,0.582407492,-0.01666666,1,0,0,,,,,,,,,,,
,,,,,,00080,2023-10-25_08h19.48.112,vbt_B1_day2,2022.2.4,Win32,60.11060351,,,,,,,,,,,,,,,,,,,,,,,,,,,,,,,,,,,,,,,,,,heengeen,images/br_heengeen.png,images/cb_heengeen.png,,geeneen,,,,,,,,,,,0.24537037,0.048148155,1,0,0,geeneen,0,0,0,38,1
,,,,,,00080,2023-10-25_08h19.48.112,vbt_B1_day2,2022.2.4,Win32,60.11060351,,,,,,,,,,,,,,,,,,,,,,,,,,,,,,,,,,,,,,,,,,woning,images/br_woning.png,images/cb_woning.png,,woning,,,,,,,,,,,0.290740755,-0.044444437,1,0,0,woning,0,1,1,10,1
,,,,,,00080,2023-10-25_08h19.48.112,vbt_B1_day2,2022.2.4,Win32,60.11060351,,,,,,,,,,,,,,,,,,,,,,,,,,,,,,,,,,,,,,,,,,blad,images/br_blad.png,images/cb_blad.png,,blad,,,,,,,,,,,0.168518561,-0.081481474,1,0,0,blad,0,2,2,1,1
,,,,,,00080,2023-10-25_08h19.48.112,vbt_B1_day2,2022.2.4,Win32,60.11060351,,,,,,,,,,,,,,,,,,,,,,,,,,,,,,,,,,,,,,,,,,inzicht,images/br_inzicht.png,images/cb_inzicht.png,,inzicht,,,,,,,,,,,0.367592564,-0.127777806,1,0,0,inzicht,0,3,3,53,1
,,,,,,00080,2023-10-25_08h19.48.112,vbt_B1_day2,2022.2.4,Win32,60.11060351,,,,,,,,,,,,,,,,,,,,,,,,,,,,,,,,,,,,,,,,,,aanzien,images/br_aanzien.png,images/cb_aanzien.png,,aanzien,,,,,,,,,,,0.150000042,-0.031481496,1,0,0,aanzien,0,4,4,13,1
,,,,,,00080,2023-10-25_08h19.48.112,vbt_B1_day2,2022.2.4,Win32,60.11060351,,,,,,,,,,,,,,,,,,,,,,,,,,,,,,,,,,,,,,,,,,zegel,images/br_zegel.png,images/cb_zegel.png,,zegel,,,,,,,,,,,0.119444459,-0.029629637,1,0,0,zegel,0,5,5,46,1
,,,,,,00080,2023-10-25_08h19.48.112,vbt_B1_day2,2022.2.4,Win32,60.11060351,,,,,,,,,,,,,,,,,,,,,,,,,,,,,,,,,,,,,,,,,,agressie,images/br_agressie.png,images/cb_agressie.png,,agressie,,,,,,,,,,,0.148148148,-0.039814808,1,0,0,agressie,0,6,6,59,1
,,,,,,00080,2023-10-25_08h19.48.112,vbt_B1_day2,2022.2.4,Win32,60.11060351,,,,,,,,,,,,,,,,,,,,,,,,,,,,,,,,,,,,,,,,,,moes,images/br_moes.png,images/cb_moes.png,,moes,,,,,,,,,,,0.048148191,-0.012962977,1,0,0,moes,0,7,7,0,1
,,,,,,00080,2023-10-25_08h19.48.112,vbt_B1_day2,2022.2.4,Win32,60.11060351,,,,,,,,,,,,,,,,,,,,,,,,,,,,,,,,,,,,,,,,,,thema,images/br_thema.png,images/cb_thema.png,,thema,,,,,,,,,,,0.02870369,-0.050925926,1,0,0,thema,0,8,8,47,1
,,,,,,00080,2023-10-25_08h19.48.112,vbt_B1_day2,2022.2.4,Win32,60.11060351,,,,,,,,,,,,,,,,,,,,,,,,,,,,,,,,,,,,,,,,,,kenzis,images/br_kenzis.png,images/cb_kenzis.png,,kenzis,,,,,,,,,,,0.110185199,-0.025925919,1,0,0,kenzis,0,9,9,30,1
,,,,,,00080,2023-10-25_08h19.48.112,vbt_B1_day2,2022.2.4,Win32,60.11060351,,,,,,,,,,,,,,,,,,,,,,,,,,,,,,,,,,,,,,,,,,sifferd,images/br_sifferd.png,images/cb_sifferd.png,,seffi..,,,,,,,,,,,0.031481496,-0.043518526,1,0,0,seffi..,0,10,10,32,1
,,,,,,00080,2023-10-25_08h19.48.112,vbt_B1_day2,2022.2.4,Win32,60.11060351,,,,,,,,,,,,,,,,,,,,,,,,,,,,,,,,,,,,,,,,,,breuk,images/br_breuk.png,images/cb_breuk.png,,breuk,,,,,,,,,,,0.046296296,-0.030555548,1,0,0,breuk,0,11,11,45,1
,,,,,,00080,2023-10-25_08h19.48.112,vbt_B1_day2,2022.2.4,Win32,60.11060351,,,,,,,,,,,,,,,,,,,,,,,,,,,,,,,,,,,,,,,,,,krimmen,images/br_krimmen.png,images/cb_krimmen.png,,krimmen,,,,,,,,,,,0.178703732,-0.037962984,1,0,0,krimmen,0,12,12,35,1
,,,,,,00080,2023-10-25_08h19.48.112,vbt_B1_day2,2022.2.4,Win32,60.11060351,,,,,,,,,,,,,,,,,,,,,,,,,,,,,,,,,,,,,,,,,,feestdag,images/br_feestdag.png,images/cb_feestdag.png,,feestdag,,,,,,,,,,,0.169444473,-0.023148148,1,0,0,feestdag,0,13,13,17,1
,,,,,,00080,2023-10-25_08h19.48.112,vbt_B1_day2,2022.2.4,Win32,60.11060351,,,,,,,,,,,,,,,,,,,,,,,,,,,,,,,,,,,,,,,,,,tand,images/br_tand.png,images/cb_tand.png,,tand,,,,,,,,,,,-0.008333347,0.116666653,1,0,0,tand,0,14,14,42,1
,,,,,,00080,2023-10-25_08h19.48.112,vbt_B1_day2,2022.2.4,Win32,60.11060351,,,,,,,,,,,,,,,,,,,,,,,,,,,,,,,,,,,,,,,,,,clan,images/br_clan.png,images/cb_clan.png,,blan,,,,,,,,,,,0.062962991,-0.01203703,1,0,0,blan,0,15,15,40,1
,,,,,,00080,2023-10-25_08h19.48.112,vbt_B1_day2,2022.2.4,Win32,60.11060351,,,,,,,,,,,,,,,,,,,,,,,,,,,,,,,,,,,,,,,,,,remel,images/br_remel.png,images/cb_remel.png,,remel,,,,,,,,,,,-0.02407406,-0.021296289,1,0,0,remel,0,16,16,25,1
,,,,,,00080,2023-10-25_08h19.48.112,vbt_B1_day2,2022.2.4,Win32,60.11060351,,,,,,,,,,,,,,,,,,,,,,,,,,,,,,,,,,,,,,,,,,systeem,images/br_systeem.png,images/cb_systeem.png,,systeem,,,,,,,,,,,0.035185213,-0.009259259,1,0,0,systeem,0,17,17,54,1
,,,,,,00080,2023-10-25_08h19.48.112,vbt_B1_day2,2022.2.4,Win32,60.11060351,,,,,,,,,,,,,,,,,,,,,,,,,,,,,,,,,,,,,,,,,,koorts,images/br_koorts.png,images/cb_koorts.png,,koorts,,,,,,,,,,,0.136111153,-0.018518519,1,0,0,koorts,0,18,18,50,1
,,,,,,00080,2023-10-25_08h19.48.112,vbt_B1_day2,2022.2.4,Win32,60.11060351,,,,,,,,,,,,,,,,,,,,,,,,,,,,,,,,,,,,,,,,,,zomers,images/br_zomers.png,images/cb_zomers.png,,zomers,,,,,,,,,,,0.154629672,-0.060185185,1,0,0,zomers,0,19,19,48,1
,,,,,,00080,2023-10-25_08h19.48.112,vbt_B1_day2,2022.2.4,Win32,60.11060351,,,,,,,,,,,,,,,,,,,,,,,,,,,,,,,,,,,,,,,,,,dode,images/br_dode.png,images/cb_dode.png,,dode,,,,,,,,,,,0.026851866,-0.021296289,1,0,0,dode,0,20,20,41,1
,,,,,,00080,2023-10-25_08h19.48.112,vbt_B1_day2,2022.2.4,Win32,60.11060351,,,,,,,,,,,,,,,,,,,,,,,,,,,,,,,,,,,,,,,,,,doodmoe,images/br_doodmoe.png,images/cb_doodmoe.png,,doodmoe,,,,,,,,,,,0.003703718,0.055555556,1,0,0,doodmoe,0,21,21,15,1
,,,,,,00080,2023-10-25_08h19.48.112,vbt_B1_day2,2022.2.4,Win32,60.11060351,,,,,,,,,,,,,,,,,,,,,,,,,,,,,,,,,,,,,,,,,,anarchie,images/br_anarchie.png,images/cb_anarchie.png,,anarchie,,,,,,,,,,,0.142592607,-0.01203703,1,0,0,anarchie,0,22,22,16,1
,,,,,,00080,2023-10-25_08h19.48.112,vbt_B1_day2,2022.2.4,Win32,60.11060351,,,,,,,,,,,,,,,,,,,,,,,,,,,,,,,,,,,,,,,,,,flits,images/br_flits.png,images/cb_flits.png,,flits,,,,,,,,,,,0.029629672,-0.015740748,1,0,0,flits,0,23,23,4,1
,,,,,,00080,2023-10-25_08h19.48.112,vbt_B1_day2,2022.2.4,Win32,60.11060351,,,,,,,,,,,,,,,,,,,,,,,,,,,,,,,,,,,,,,,,,,prekken,images/br_prekken.png,images/cb_prekken.png,,prekken,,,,,,,,,,,0.09629631,0.013888889,1,0,0,prekken,0,24,24,34,1
,,,,,,00080,2023-10-25_08h19.48.112,vbt_B1_day2,2022.2.4,Win32,60.11060351,,,,,,,,,,,,,,,,,,,,,,,,,,,,,,,,,,,,,,,,,,heilig,images/br_heilig.png,images/cb_heilig.png,,heilig,,,,,,,,,,,0.087037051,-0.00462963,1,0,0,heilig,0,25,25,9,1
,,,,,,00080,2023-10-25_08h19.48.112,vbt_B1_day2,2022.2.4,Win32,60.11060351,,,,,,,,,,,,,,,,,,,,,,,,,,,,,,,,,,,,,,,,,,badon,images/br_badon.png,images/cb_badon.png,,badon,,,,,,,,,,,0.049074102,-0.008333347,1,0,0,badon,0,26,26,26,1
,,,,,,00080,2023-10-25_08h19.48.112,vbt_B1_day2,2022.2.4,Win32,60.11060351,,,,,,,,,,,,,,,,,,,,,,,,,,,,,,,,,,,,,,,,,,manieren,images/br_manieren.png,images/cb_manieren.png,,manieren,,,,,,,,,,,0.131481524,0.021296289,1,0,0,manieren,0,27,27,56,1
,,,,,,00080,2023-10-25_08h19.48.112,vbt_B1_day2,2022.2.4,Win32,60.11060351,,,,,,,,,,,,,,,,,,,,,,,,,,,,,,,,,,,,,,,,,,aanvraag,images/br_aanvraag.png,images/cb_aanvraag.png,,aanvraag,,,,,,,,,,,0.188888903,0.009259259,1,0,0,aanvraag,0,28,28,57,1
,,,,,,00080,2023-10-25_08h19.48.112,vbt_B1_day2,2022.2.4,Win32,60.11060351,,,,,,,,,,,,,,,,,,,,,,,,,,,,,,,,,,,,,,,,,,negel,images/br_negel.png,images/cb_negel.png,,negel,,,,,,,,,,,0.055555556,-0.028703725,1,0,0,negel,0,29,29,24,1
,,,,,,00080,2023-10-25_08h19.48.112,vbt_B1_day2,2022.2.4,Win32,60.11060351,,,,,,,,,,,,,,,,,,,,,,,,,,,,,,,,,,,,,,,,,,joes,images/br_joes.png,images/cb_joes.png,,joes,,,,,,,,,,,0.041666667,-0.01666666,1,0,0,joes,0,30,30,20,1
,,,,,,00080,2023-10-25_08h19.48.112,vbt_B1_day2,2022.2.4,Win32,60.11060351,,,,,,,,,,,,,,,,,,,,,,,,,,,,,,,,,,,,,,,,,,geld,images/br_geld.png,images/cb_geld.png,,geld,,,,,,,,,,,0.026851866,-0.021296289,1,0,0,geld,0,31,31,3,1
,,,,,,00080,2023-10-25_08h19.48.112,vbt_B1_day2,2022.2.4,Win32,60.11060351,,,,,,,,,,,,,,,,,,,,,,,,,,,,,,,,,,,,,,,,,,lokken,images/br_lokken.png,images/cb_lokken.png,,lokken,,,,,,,,,,,0.037962949,-0.019444466,1,0,0,lokken,0,32,32,8,1
,,,,,,00080,2023-10-25_08h19.48.112,vbt_B1_day2,2022.2.4,Win32,60.11060351,,,,,,,,,,,,,,,,,,,,,,,,,,,,,,,,,,,,,,,,,,bereuwen,images/br_bereuwen.png,images/cb_bereuwen.png,,bereuwen,,,,,,,,,,,0.115740741,-0.020370377,1,0,0,bereuwen,0,33,33,39,1
,,,,,,00080,2023-10-25_08h19.48.112,vbt_B1_day2,2022.2.4,Win32,60.11060351,,,,,,,,,,,,,,,,,,,,,,,,,,,,,,,,,,,,,,,,,,eenhoorn,images/br_eenhoorn.png,images/cb_eenhoorn.png,,eenhoorn,,,,,,,,,,,0.165740755,-0.029629637,1,0,0,eenhoorn,0,34,34,19,1
,,,,,,00080,2023-10-25_08h19.48.112,vbt_B1_day2,2022.2.4,Win32,60.11060351,,,,,,,,,,,,,,,,,,,,,,,,,,,,,,,,,,,,,,,,,,stes,images/br_stes.png,images/cb_stes.png,,stes,,,,,,,,,,,0.018518519,-0.020370377,1,0,0,stes,0,35,35,21,1
,,,,,,00080,2023-10-25_08h19.48.112,vbt_B1_day2,2022.2.4,Win32,60.11060351,,,,,,,,,,,,,,,,,,,,,,,,,,,,,,,,,,,,,,,,,,toeval,images/br_toeval.png,images/cb_toeval.png,,toeval,,,,,,,,,,,0.010185171,-0.050000014,1,0,0,toeval,0,36,36,11,1
,,,,,,00080,2023-10-25_08h19.48.112,vbt_B1_day2,2022.2.4,Win32,60.11060351,,,,,,,,,,,,,,,,,,,,,,,,,,,,,,,,,,,,,,,,,,sora,images/br_sora.png,images/cb_sora.png,,sora,,,,,,,,,,,-0.058333291,-0.028703725,1,0,0,sora,0,37,37,22,1
,,,,,,00080,2023-10-25_08h19.48.112,vbt_B1_day2,2022.2.4,Win32,60.11060351,,,,,,,,,,,,,,,,,,,,,,,,,,,,,,,,,,,,,,,,,,lijnen,images/br_lijnen.png,images/cb_lijnen.png,,lijnen,,,,,,,,,,,0.079629616,0.02407406,1,0,0,lijnen,0,38,38,51,1
,,,,,,00080,2023-10-25_08h19.48.112,vbt_B1_day2,2022.2.4,Win32,60.11060351,,,,,,,,,,,,,,,,,,,,,,,,,,,,,,,,,,,,,,,,,,opdatten,images/br_opdatten.png,images/cb_opdatten.png,,opdatten,,,,,,,,,,,0.106481481,-0.006481489,1,0,0,opdatten,0,39,39,37,1
,,,,,,00080,2023-10-25_08h19.48.112,vbt_B1_day2,2022.2.4,Win32,60.11060351,,,,,,,,,,,,,,,,,,,,,,,,,,,,,,,,,,,,,,,,,,goon,images/br_goon.png,images/cb_goon.png,,goon,,,,,,,,,,,-0.07222218,-0.01203703,1,0,0,goon,0,40,40,23,1
,,,,,,00080,2023-10-25_08h19.48.112,vbt_B1_day2,2022.2.4,Win32,60.11060351,,,,,,,,,,,,,,,,,,,,,,,,,,,,,,,,,,,,,,,,,,jagen,images/br_jagen.png,images/cb_jagen.png,,jrge.,,,,,,,,,,,-0.016666624,-0.029629637,1,0,0,jrge.,0,41,41,6,1
,,,,,,00080,2023-10-25_08h19.48.112,vbt_B1_day2,2022.2.4,Win32,60.11060351,,,,,,,,,,,,,,,,,,,,,,,,,,,,,,,,,,,,,,,,,,strikken,images/br_strikken.png,images/cb_strikken.png,,strikken,,,,,,,,,,,0.142592607,-0.043518526,1,0,0,strikken,0,42,42,18,1
,,,,,,00080,2023-10-25_08h19.48.112,vbt_B1_day2,2022.2.4,Win32,60.11060351,,,,,,,,,,,,,,,,,,,,,,,,,,,,,,,,,,,,,,,,,,lurgen,images/br_lurgen.png,images/cb_lurgen.png,,lurgen,,,,,,,,,,,0.128703718,-0.010185206,1,0,0,lurgen,0,43,43,29,1
,,,,,,00080,2023-10-25_08h19.48.112,vbt_B1_day2,2022.2.4,Win32,60.11060351,,,,,,,,,,,,,,,,,,,,,,,,,,,,,,,,,,,,,,,,,,kijlen,images/br_kijlen.png,images/cb_kijlen.png,,kijlen,,,,,,,,,,,0.094444487,-0.019444466,1,0,0,kijlen,0,44,44,31,1
,,,,,,00080,2023-10-25_08h19.48.112,vbt_B1_day2,2022.2.4,Win32,60.11060351,,,,,,,,,,,,,,,,,,,,,,,,,,,,,,,,,,,,,,,,,,kabel,images/br_kabel.png,images/cb_kabel.png,,kabel,,,,,,,,,,,0.001851894,-0.006481489,1,0,0,kabel,0,45,45,7,1
,,,,,,00080,2023-10-25_08h19.48.112,vbt_B1_day2,2022.2.4,Win32,60.11060351,,,,,,,,,,,,,,,,,,,,,,,,,,,,,,,,,,,,,,,,,,tweeling,images/br_tweeling.png,images/cb_tweeling.png,,tweeling,,,,,,,,,,,0.063888903,-0.018518519,1,0,0,tweeling,0,46,46,58,1
,,,,,,00080,2023-10-25_08h19.48.112,vbt_B1_day2,2022.2.4,Win32,60.11060351,,,,,,,,,,,,,,,,,,,,,,,,,,,,,,,,,,,,,,,,,,ophuimen,images/br_ophuimen.png,images/cb_ophuimen.png,,ophui.e.,,,,,,,,,,,-0.046296296,-0.029629637,1,0,0,ophui.e.,0,47,47,36,1
,,,,,,00080,2023-10-25_08h19.48.112,vbt_B1_day2,2022.2.4,Win32,60.11060351,,,,,,,,,,,,,,,,,,,,,,,,,,,,,,,,,,,,,,,,,,ningen,images/br_ningen.png,images/cb_ningen.png,,ningen,,,,,,,,,,,0.068518533,-0.024074095,1,0,0,ningen,0,48,48,28,1
,,,,,,00080,2023-10-25_08h19.48.112,vbt_B1_day2,2022.2.4,Win32,60.11060351,,,,,,,,,,,,,,,,,,,,,,,,,,,,,,,,,,,,,,,,,,wijve,images/br_wijve.png,images/cb_wijve.png,,wijve,,,,,,,,,,,0.038888931,-0.01666666,1,0,0,wijve,0,49,49,27,1
,,,,,,00080,2023-10-25_08h19.48.112,vbt_B1_day2,2022.2.4,Win32,60.11060351,,,,,,,,,,,,,,,,,,,,,,,,,,,,,,,,,,,,,,,,,,trots,images/br_trots.png,images/cb_trots.png,,trots,,,,,,,,,,,0.042592578,-0.000925947,1,0,0,trots,0,50,50,44,1
,,,,,,00080,2023-10-25_08h19.48.112,vbt_B1_day2,2022.2.4,Win32,60.11060351,,,,,,,,,,,,,,,,,,,,,,,,,,,,,,,,,,,,,,,,,,welzijn,images/br_welzijn.png,images/cb_welzijn.png,,welzijn,,,,,,,,,,,0.066666709,-0.014814836,1,0,0,welzijn,0,51,51,52,1
,,,,,,00080,2023-10-25_08h19.48.112,vbt_B1_day2,2022.2.4,Win32,60.11060351,,,,,,,,,,,,,,,,,,,,,,,,,,,,,,,,,,,,,,,,,,piste,images/br_piste.png,images/cb_piste.png,,piste,,,,,,,,,,,-0.125925912,-0.027777778,1,0,0,piste,0,52,52,5,1
,,,,,,00080,2023-10-25_08h19.48.112,vbt_B1_day2,2022.2.4,Win32,60.11060351,,,,,,,,,,,,,,,,,,,,,,,,,,,,,,,,,,,,,,,,,,zwager,images/br_zwager.png,images/cb_zwager.png,,zwager,,,,,,,,,,,0.015740783,-0.052777785,1,0,0,zwager,0,53,53,49,1
,,,,,,00080,2023-10-25_08h19.48.112,vbt_B1_day2,2022.2.4,Win32,60.11060351,,,,,,,,,,,,,,,,,,,,,,,,,,,,,,,,,,,,,,,,,,plannen,images/br_plannen.png,images/cb_plannen.png,,plannen,,,,,,,,,,,0.075925968,-0.033333355,1,0,0,plannen,0,54,54,55,1
,,,,,,00080,2023-10-25_08h19.48.112,vbt_B1_day2,2022.2.4,Win32,60.11060351,,,,,,,,,,,,,,,,,,,,,,,,,,,,,,,,,,,,,,,,,,diep,images/br_diep.png,images/cb_diep.png,,diep,,,,,,,,,,,-0.094444416,-0.013888889,1,0,0,diep,0,55,55,2,1
,,,,,,00080,2023-10-25_08h19.48.112,vbt_B1_day2,2022.2.4,Win32,60.11060351,,,,,,,,,,,,,,,,,,,,,,,,,,,,,,,,,,,,,,,,,,sjijfel,images/br_sjijfel.png,images/cb_sjijfel.png,,sdijf..,,,,,,,,,,,-0.112037023,-0.019444466,1,0,0,sdijf..,0,56,56,33,1
,,,,,,00080,2023-10-25_08h19.48.112,vbt_B1_day2,2022.2.4,Win32,60.11060351,,,,,,,,,,,,,,,,,,,,,,,,,,,,,,,,,,,,,,,,,,jong,images/br_jong.png,images/cb_jong.png,,jong,,,,,,,,,,,0.012037065,-0.015740748,1,0,0,jong,0,57,57,43,1
,,,,,,00080,2023-10-25_08h19.48.112,vbt_B1_day2,2022.2.4,Win32,60.11060351,,,,,,,,,,,,,,,,,,,,,,,,,,,,,,,,,,,,,,,,,,bloeien,images/br_bloeien.png,images/cb_bloeien.png,,bloeien,,,,,,,,,,,0.062962991,-0.015740748,1,0,0,bloeien,0,58,58,12,1
,,,,,,00080,2023-10-25_08h19.48.112,vbt_B1_day2,2022.2.4,Win32,60.11060351,,,,,,,,,,,,,,,,,,,,,,,,,,,,,,,,,,,,,,,,,,kasteel,images/br_kasteel.png,images/cb_kasteel.png,,kasteel,,,,,,,,,,,-0.011111083,-0.059259273,1,0,0,kasteel,0,59,59,14,1
,,,,,,00080,2023-10-25_08h19.48.112,vbt_B1_day2,2022.2.4,Win32,60.11060351,,,,,,,,,,,,,,,,,,,,,,,,,,,,,,,,,,,,,,,,,,,,,,,,,,,,,,,,,,,,,,,,,,,
