welcome_mouse.x,welcome_mouse.y,welcome_mouse.leftButton,welcome_mouse.midButton,welcome_mouse.rightButton,welcome_mouse.time,"ID",date,expName,psychopyVersion,OS,frameRate,participant,refresh_mouse.x,refresh_mouse.y,refresh_mouse.leftButton,refresh_mouse.midButton,refresh_mouse.rightButton,refresh_mouse.time,braille_mouse.x,braille_mouse.y,braille_mouse.leftButton,braille_mouse.midButton,braille_mouse.rightButton,braille_mouse.time,trials.thisRepN,trials.thisTrialN,trials.thisN,trials.thisIndex,trials.ran,nlLet,brLet,cbLet,trainInstr_mouse.x,trainInstr_mouse.y,trainInstr_mouse.leftButton,trainInstr_mouse.midButton,trainInstr_mouse.rightButton,trainInstr_mouse.time,translation_key.keys,translation_key.corr,translation_key.rt,word_rsp.text,word_mouse.x,word_mouse.y,word_mouse.leftButton,word_mouse.midButton,word_mouse.rightButton,word_mouse.time,train_loop.thisRepN,train_loop.thisTrialN,train_loop.thisN,train_loop.thisIndex,train_loop.ran,nlWrd,brWrd,cbWrd,test,testResp,mouse.x,mouse.y,mouse.leftButton,mouse.midButton,mouse.rightButton,testInstr_mouse.x,testInstr_mouse.y,testInstr_mouse.leftButton,testInstr_mouse.midButton,testInstr_mouse.rightButton,test_mouse.x,test_mouse.y,test_mouse.leftButton,test_mouse.midButton,test_mouse.rightButton,test_response.text,test_loop.thisRepN,test_loop.thisTrialN,test_loop.thisN,test_loop.thisIndex,test_loop.ran
-0.127777735,-0.243518547,1,0,0,26.2811,53500,2023-07-21_24h23.17.091,vbt_B1_day2,2022.2.4,Win32,60.08171113,53500,,,,,,,,,,,,,,,,,,,,,,,,,,,,,,,,,,,,,,,,,,,,,,,,,,,,,,,,,,,,,,,,,,,
,,,,,,53500,2023-07-21_24h23.17.091,vbt_B1_day2,2022.2.4,Win32,60.08171113,53500,0.327777863,-0.312962991,1,0,0,19.1594,,,,,,,,,,,,,,,,,,,,,,,,,,,,,,,,,,,,,,,,,,,,,,,,,,,,,,,,,,,,,
,,,,,,53500,2023-07-21_24h23.17.091,vbt_B1_day2,2022.2.4,Win32,60.08171113,53500,,,,,,,0.167592578,-0.212037051,1,0,0,8.1541,0,0,0,18,1,s,images/br_s.png,images/cb_s.png,,,,,,,,,,,,,,,,,,,,,,,,,,,,,,,,,,,,,,,,,,,,,,,
,,,,,,53500,2023-07-21_24h23.17.091,vbt_B1_day2,2022.2.4,Win32,60.08171113,53500,,,,,,,0.165740755,-0.219444487,1,0,0,11.5676,0,1,1,22,1,w,images/br_w.png,images/cb_w.png,,,,,,,,,,,,,,,,,,,,,,,,,,,,,,,,,,,,,,,,,,,,,,,
,,,,,,53500,2023-07-21_24h23.17.091,vbt_B1_day2,2022.2.4,Win32,60.08171113,53500,,,,,,,0.165740755,-0.219444487,1,0,0,11.1665,0,2,2,9,1,j,images/br_j.png,images/cb_j.png,,,,,,,,,,,,,,,,,,,,,,,,,,,,,,,,,,,,,,,,,,,,,,,
,,,,,,53500,2023-07-21_24h23.17.091,vbt_B1_day2,2022.2.4,Win32,60.08171113,53500,,,,,,,0.165740755,-0.219444487,1,0,0,0.184,0,3,3,16,1,q,images/br_q.png,images/cb_q.png,,,,,,,,,,,,,,,,,,,,,,,,,,,,,,,,,,,,,,,,,,,,,,,
,,,,,,53500,2023-07-21_24h23.17.091,vbt_B1_day2,2022.2.4,Win32,60.08171113,53500,,,,,,,0.165740755,-0.219444487,1,0,0,1.445,0,4,4,4,1,e,images/br_e.png,images/cb_e.png,,,,,,,,,,,,,,,,,,,,,,,,,,,,,,,,,,,,,,,,,,,,,,,
,,,,,,53500,2023-07-21_24h23.17.091,vbt_B1_day2,2022.2.4,Win32,60.08171113,53500,,,,,,,0.165740755,-0.219444487,1,0,0,8.0501,0,5,5,1,1,b,images/br_b.png,images/cb_b.png,,,,,,,,,,,,,,,,,,,,,,,,,,,,,,,,,,,,,,,,,,,,,,,
,,,,,,53500,2023-07-21_24h23.17.091,vbt_B1_day2,2022.2.4,Win32,60.08171113,53500,,,,,,,0.165740755,-0.219444487,1,0,0,9.4171,0,6,6,3,1,d,images/br_d.png,images/cb_d.png,,,,,,,,,,,,,,,,,,,,,,,,,,,,,,,,,,,,,,,,,,,,,,,
,,,,,,53500,2023-07-21_24h23.17.091,vbt_B1_day2,2022.2.4,Win32,60.08171113,53500,,,,,,,0.087962963,-0.266666695,1,0,0,17.7406,0,7,7,21,1,v,images/br_v.png,images/cb_v.png,,,,,,,,,,,,,,,,,,,,,,,,,,,,,,,,,,,,,,,,,,,,,,,
,,,,,,53500,2023-07-21_24h23.17.091,vbt_B1_day2,2022.2.4,Win32,60.08171113,53500,,,,,,,0.087962963,-0.266666695,1,0,0,6.4843,0,8,8,17,1,r,images/br_r.png,images/cb_r.png,,,,,,,,,,,,,,,,,,,,,,,,,,,,,,,,,,,,,,,,,,,,,,,
,,,,,,53500,2023-07-21_24h23.17.091,vbt_B1_day2,2022.2.4,Win32,60.08171113,53500,,,,,,,0.087962963,-0.266666695,1,0,0,9.4838,0,9,9,6,1,g,images/br_g.png,images/cb_g.png,,,,,,,,,,,,,,,,,,,,,,,,,,,,,,,,,,,,,,,,,,,,,,,
,,,,,,53500,2023-07-21_24h23.17.091,vbt_B1_day2,2022.2.4,Win32,60.08171113,53500,,,,,,,0.087962963,-0.266666695,1,0,0,5.3673,0,10,10,7,1,h,images/br_h.png,images/cb_h.png,,,,,,,,,,,,,,,,,,,,,,,,,,,,,,,,,,,,,,,,,,,,,,,
,,,,,,53500,2023-07-21_24h23.17.091,vbt_B1_day2,2022.2.4,Win32,60.08171113,53500,,,,,,,0.166666667,-0.200925968,1,0,0,17.1001,0,11,11,13,1,n,images/br_n.png,images/cb_n.png,,,,,,,,,,,,,,,,,,,,,,,,,,,,,,,,,,,,,,,,,,,,,,,
,,,,,,53500,2023-07-21_24h23.17.091,vbt_B1_day2,2022.2.4,Win32,60.08171113,53500,,,,,,,0.166666667,-0.200925968,1,0,0,2.1046,0,12,12,10,1,k,images/br_k.png,images/cb_k.png,,,,,,,,,,,,,,,,,,,,,,,,,,,,,,,,,,,,,,,,,,,,,,,
,,,,,,53500,2023-07-21_24h23.17.091,vbt_B1_day2,2022.2.4,Win32,60.08171113,53500,,,,,,,0.166666667,-0.200925968,1,0,0,2.6505,0,13,13,11,1,l,images/br_l.png,images/cb_l.png,,,,,,,,,,,,,,,,,,,,,,,,,,,,,,,,,,,,,,,,,,,,,,,
,,,,,,53500,2023-07-21_24h23.17.091,vbt_B1_day2,2022.2.4,Win32,60.08171113,53500,,,,,,,0.166666667,-0.200925968,1,0,0,4.2343,0,14,14,0,1,a,images/br_a.png,images/cb_a.png,,,,,,,,,,,,,,,,,,,,,,,,,,,,,,,,,,,,,,,,,,,,,,,
,,,,,,53500,2023-07-21_24h23.17.091,vbt_B1_day2,2022.2.4,Win32,60.08171113,53500,,,,,,,0.166666667,-0.200925968,1,0,0,3.1505,0,15,15,15,1,p,images/br_p.png,images/cb_p.png,,,,,,,,,,,,,,,,,,,,,,,,,,,,,,,,,,,,,,,,,,,,,,,
,,,,,,53500,2023-07-21_24h23.17.091,vbt_B1_day2,2022.2.4,Win32,60.08171113,53500,,,,,,,0.164814843,-0.209259245,1,0,0,16.3352,0,16,16,20,1,u,images/br_u.png,images/cb_u.png,,,,,,,,,,,,,,,,,,,,,,,,,,,,,,,,,,,,,,,,,,,,,,,
,,,,,,53500,2023-07-21_24h23.17.091,vbt_B1_day2,2022.2.4,Win32,60.08171113,53500,,,,,,,0.164814843,-0.209259245,1,0,0,9.9492,0,17,17,5,1,f,images/br_f.png,images/cb_f.png,,,,,,,,,,,,,,,,,,,,,,,,,,,,,,,,,,,,,,,,,,,,,,,
,,,,,,53500,2023-07-21_24h23.17.091,vbt_B1_day2,2022.2.4,Win32,60.08171113,53500,,,,,,,0.164814843,-0.209259245,1,0,0,9.8667,0,18,18,25,1,z,images/br_z.png,images/cb_z.png,,,,,,,,,,,,,,,,,,,,,,,,,,,,,,,,,,,,,,,,,,,,,,,
,,,,,,53500,2023-07-21_24h23.17.091,vbt_B1_day2,2022.2.4,Win32,60.08171113,53500,,,,,,,0.164814843,-0.209259245,1,0,0,3.2005,0,19,19,23,1,x,images/br_x.png,images/cb_x.png,,,,,,,,,,,,,,,,,,,,,,,,,,,,,,,,,,,,,,,,,,,,,,,
,,,,,,53500,2023-07-21_24h23.17.091,vbt_B1_day2,2022.2.4,Win32,60.08171113,53500,,,,,,,0.164814843,-0.209259245,1,0,0,1.667,0,20,20,19,1,t,images/br_t.png,images/cb_t.png,,,,,,,,,,,,,,,,,,,,,,,,,,,,,,,,,,,,,,,,,,,,,,,
,,,,,,53500,2023-07-21_24h23.17.091,vbt_B1_day2,2022.2.4,Win32,60.08171113,53500,,,,,,,0.164814843,-0.209259245,1,0,0,8.8325,0,21,21,24,1,y,images/br_y.png,images/cb_y.png,,,,,,,,,,,,,,,,,,,,,,,,,,,,,,,,,,,,,,,,,,,,,,,
,,,,,,53500,2023-07-21_24h23.17.091,vbt_B1_day2,2022.2.4,Win32,60.08171113,53500,,,,,,,0.164814843,-0.209259245,1,0,0,2.8669,0,22,22,2,1,c,images/br_c.png,images/cb_c.png,,,,,,,,,,,,,,,,,,,,,,,,,,,,,,,,,,,,,,,,,,,,,,,
,,,,,,53500,2023-07-21_24h23.17.091,vbt_B1_day2,2022.2.4,Win32,60.08171113,53500,,,,,,,0.164814843,-0.209259245,1,0,0,0.6815,0,23,23,8,1,i,images/br_i.png,images/cb_i.png,,,,,,,,,,,,,,,,,,,,,,,,,,,,,,,,,,,,,,,,,,,,,,,
,,,,,,53500,2023-07-21_24h23.17.091,vbt_B1_day2,2022.2.4,Win32,60.08171113,53500,,,,,,,0.164814843,-0.209259245,1,0,0,6.7618,0,24,24,12,1,m,images/br_m.png,images/cb_m.png,,,,,,,,,,,,,,,,,,,,,,,,,,,,,,,,,,,,,,,,,,,,,,,
,,,,,,53500,2023-07-21_24h23.17.091,vbt_B1_day2,2022.2.4,Win32,60.08171113,53500,,,,,,,0.164814843,-0.209259245,1,0,0,4.7506,0,25,25,14,1,o,images/br_o.png,images/cb_o.png,,,,,,,,,,,,,,,,,,,,,,,,,,,,,,,,,,,,,,,,,,,,,,,
,,,,,,53500,2023-07-21_24h23.17.091,vbt_B1_day2,2022.2.4,Win32,60.08171113,53500,,,,,,,,,,,,,,,,,,,,,0.583333333,-0.176851838,1,0,0,32.7035,,,,,,,,,,,,,,,,,,,,,,,,,,,,,,,,,,,,,,,,,
,,,,,,53500,2023-07-21_24h23.17.091,vbt_B1_day2,2022.2.4,Win32,60.08171113,53500,,,,,,,,,,,,,,,,,,,,,,,,,,,down,0,25.1691,,0.312962991,-0.239814829,1,0,0,7.0322,0,0,0,5,1,blad,images/br_blad.png,images/cb_blad.png,0,,,,,,,,,,,,,,,,,,,,,,
,,,,,,53500,2023-07-21_24h23.17.091,vbt_B1_day2,2022.2.4,Win32,60.08171113,53500,,,,,,,,,,,,,,,,,,,,,,,,,,,down,0,25.0179,,0.312962991,-0.239814829,1,0,0,10.1663,0,1,1,171,1,aarzelen,images/br_aarzelen.png,images/cb_aarzelen.png,0,,,,,,,,,,,,,,,,,,,,,,
,,,,,,53500,2023-07-21_24h23.17.091,vbt_B1_day2,2022.2.4,Win32,60.08171113,53500,,,,,,,,,,,,,,,,,,,,,,,,,,,down,0,27.041,,0.229629658,-0.146296325,1,0,0,9.0378,0,2,2,186,1,voorraad,images/br_voorraad.png,images/cb_voorraad.png,0,,,,,,,,,,,,,,,,,,,,,,
,,,,,,53500,2023-07-21_24h23.17.091,vbt_B1_day2,2022.2.4,Win32,60.08171113,53500,,,,,,,,,,,,,,,,,,,,,,,,,,,down,0,22.6178,,0.229629658,-0.146296325,1,0,0,9.7995,0,3,3,123,1,hiervan,images/br_hiervan.png,images/cb_hiervan.png,0,,,,,,,,,,,,,,,,,,,,,,
,,,,,,53500,2023-07-21_24h23.17.091,vbt_B1_day2,2022.2.4,Win32,60.08171113,53500,,,,,,,,,,,,,,,,,,,,,,,,,,,down,0,29.159,,0.229629658,-0.146296325,1,0,0,10.8666,0,4,4,14,1,rijp,images/br_rijp.png,images/cb_rijp.png,0,,,,,,,,,,,,,,,,,,,,,,
,,,,,,53500,2023-07-21_24h23.17.091,vbt_B1_day2,2022.2.4,Win32,60.08171113,53500,,,,,,,,,,,,,,,,,,,,,,,,,,,down,0,29.0071,,0.229629658,-0.146296325,1,0,0,8.7673,0,5,5,107,1,maling,images/br_maling.png,images/cb_maling.png,0,,,,,,,,,,,,,,,,,,,,,,
,,,,,,53500,2023-07-21_24h23.17.091,vbt_B1_day2,2022.2.4,Win32,60.08171113,53500,,,,,,,,,,,,,,,,,,,,,,,,,,,down,0,67.1792,,0.375925982,-0.24537037,1,0,0,7.8721,0,6,6,58,1,tekst,images/br_tekst.png,images/cb_tekst.png,1,tek.ttek.t,,,,,,,,,,,,,,,,,,,,,
,,,,,,53500,2023-07-21_24h23.17.091,vbt_B1_day2,2022.2.4,Win32,60.08171113,53500,,,,,,,,,,,,,,,,,,,,,,,,,,,down,0,19.5067,,0.375925982,-0.24537037,1,0,0,9.3999,0,7,7,139,1,stiekem,images/br_stiekem.png,images/cb_stiekem.png,1,stiekem,,,,,,,,,,,,,,,,,,,,,
,,,,,,53500,2023-07-21_24h23.17.091,vbt_B1_day2,2022.2.4,Win32,60.08171113,53500,,,,,,,,,,,,,,,,,,,,,,,,,,,down,0,16.7533,,-0.079629616,-0.134259259,1,0,0,9.5337,0,8,8,161,1,attentie,images/br_attentie.png,images/cb_attentie.png,0,,,,,,,,,,,,,,,,,,,,,,
,,,,,,53500,2023-07-21_24h23.17.091,vbt_B1_day2,2022.2.4,Win32,60.08171113,53500,,,,,,,,,,,,,,,,,,,,,,,,,,,down,0,16.5338,,-0.079629616,-0.134259259,1,0,0,6.7494,0,9,9,55,1,praat,images/br_praat.png,images/cb_praat.png,0,,,,,,,,,,,,,,,,,,,,,,
,,,,,,53500,2023-07-21_24h23.17.091,vbt_B1_day2,2022.2.4,Win32,60.08171113,53500,,,,,,,,,,,,,,,,,,,,,,,,,,,down,0,22.3554,,0.399999972,-0.175925926,1,0,0,10.3827,0,10,10,121,1,twijfel,images/br_twijfel.png,images/cb_twijfel.png,0,,,,,,,,,,,,,,,,,,,,,,
,,,,,,53500,2023-07-21_24h23.17.091,vbt_B1_day2,2022.2.4,Win32,60.08171113,53500,,,,,,,,,,,,,,,,,,,,,,,,,,,down,0,32.6288,,0.271296325,-0.232407393,1,0,0,6.989,0,11,11,106,1,zingen,images/br_zingen.png,images/cb_zingen.png,0,,,,,,,,,,,,,,,,,,,,,,
,,,,,,53500,2023-07-21_24h23.17.091,vbt_B1_day2,2022.2.4,Win32,60.08171113,53500,,,,,,,,,,,,,,,,,,,,,,,,,,,down,0,25.7998,,0.263888889,-0.240740741,1,0,0,6.151,0,12,12,82,1,muziek,images/br_muziek.png,images/cb_muziek.png,0,,,,,,,,,,,,,,,,,,,,,,
,,,,,,53500,2023-07-21_24h23.17.091,vbt_B1_day2,2022.2.4,Win32,60.08171113,53500,,,,,,,,,,,,,,,,,,,,,,,,,,,down,0,31.0112,,0.385185242,-0.138888889,1,0,0,9.9337,0,13,13,191,1,opheffen,images/br_opheffen.png,images/cb_opheffen.png,0,,,,,,,,,,,,,,,,,,,,,,
,,,,,,53500,2023-07-21_24h23.17.091,vbt_B1_day2,2022.2.4,Win32,60.08171113,53500,,,,,,,,,,,,,,,,,,,,,,,,,,,down,0,13.6331,,0.382407436,-0.165740755,1,0,0,8.7622,0,14,14,160,1,daarheen,images/br_daarheen.png,images/cb_daarheen.png,0,,,,,,,,,,,,,,,,,,,,,,
,,,,,,53500,2023-07-21_24h23.17.091,vbt_B1_day2,2022.2.4,Win32,60.08171113,53500,,,,,,,,,,,,,,,,,,,,,,,,,,,down,0,18.4768,,0.382407436,-0.165740755,1,0,0,11.0336,0,15,15,41,1,maken,images/br_maken.png,images/cb_maken.png,0,,,,,,,,,,,,,,,,,,,,,,
,,,,,,53500,2023-07-21_24h23.17.091,vbt_B1_day2,2022.2.4,Win32,60.08171113,53500,,,,,,,,,,,,,,,,,,,,,,,,,,,down,0,10.6171,,0.381481453,-0.165740755,1,0,0,6.9167,0,16,16,46,1,jagen,images/br_jagen.png,images/cb_jagen.png,0,,,,,,,,,,,,,,,,,,,,,,
,,,,,,53500,2023-07-21_24h23.17.091,vbt_B1_day2,2022.2.4,Win32,60.08171113,53500,,,,,,,,,,,,,,,,,,,,,,,,,,,down,0,33.8341,,0.279629672,-0.198148162,1,0,0,8.6672,0,17,17,86,1,woning,images/br_woning.png,images/cb_woning.png,0,,,,,,,,,,,,,,,,,,,,,,
,,,,,,53500,2023-07-21_24h23.17.091,vbt_B1_day2,2022.2.4,Win32,60.08171113,53500,,,,,,,,,,,,,,,,,,,,,,,,,,,down,0,9.8768,,0.396296325,-0.001851859,1,0,0,11.4218,0,18,18,65,1,parel,images/br_parel.png,images/cb_parel.png,0,,,,,,,,,,,,,,,,,,,,,,
,,,,,,53500,2023-07-21_24h23.17.091,vbt_B1_day2,2022.2.4,Win32,60.08171113,53500,,,,,,,,,,,,,,,,,,,,,,,,,,,down,0,26.6352,,0.20185188,-0.159259302,1,0,0,8.8878,0,19,19,197,1,spanning,images/br_spanning.png,images/cb_spanning.png,0,,,,,,,,,,,,,,,,,,,,,,
,,,,,,53500,2023-07-21_24h23.17.091,vbt_B1_day2,2022.2.4,Win32,60.08171113,53500,,,,,,,,,,,,,,,,,,,,,,,,,,,down,0,17.1408,,0.209259245,-0.170370384,1,0,0,7.2385,0,20,20,31,1,poes,images/br_poes.png,images/cb_poes.png,0,,,,,,,,,,,,,,,,,,,,,,
,,,,,,53500,2023-07-21_24h23.17.091,vbt_B1_day2,2022.2.4,Win32,60.08171113,53500,,,,,,,,,,,,,,,,,,,,,,,,,,,down,0,23.367,,0.209259245,-0.170370384,1,0,0,12.168,0,21,21,152,1,afnemen,images/br_afnemen.png,images/cb_afnemen.png,0,,,,,,,,,,,,,,,,,,,,,,
,,,,,,53500,2023-07-21_24h23.17.091,vbt_B1_day2,2022.2.4,Win32,60.08171113,53500,,,,,,,,,,,,,,,,,,,,,,,,,,,down,0,27.4475,,0.101851852,-0.217592593,1,0,0,7.616,0,22,22,114,1,vullen,images/br_vullen.png,images/cb_vullen.png,0,,,,,,,,,,,,,,,,,,,,,,
,,,,,,53500,2023-07-21_24h23.17.091,vbt_B1_day2,2022.2.4,Win32,60.08171113,53500,,,,,,,,,,,,,,,,,,,,,,,,,,,down,0,16.1498,,0.097222222,-0.220370399,1,0,0,10.2834,0,23,23,105,1,wijlen,images/br_wijlen.png,images/cb_wijlen.png,0,,,,,,,,,,,,,,,,,,,,,,
,,,,,,53500,2023-07-21_24h23.17.091,vbt_B1_day2,2022.2.4,Win32,60.08171113,53500,,,,,,,,,,,,,,,,,,,,,,,,,,,down,0,19.1837,,0.097222222,-0.220370399,1,0,0,5.4006,0,24,24,21,1,mist,images/br_mist.png,images/cb_mist.png,0,,,,,,,,,,,,,,,,,,,,,,
,,,,,,53500,2023-07-21_24h23.17.091,vbt_B1_day2,2022.2.4,Win32,60.08171113,53500,,,,,,,,,,,,,,,,,,,,,,,,,,,down,0,16.1582,,0.097222222,-0.220370399,1,0,0,11.1002,0,25,25,77,1,woede,images/br_woede.png,images/cb_woede.png,0,,,,,,,,,,,,,,,,,,,,,,
,,,,,,53500,2023-07-21_24h23.17.091,vbt_B1_day2,2022.2.4,Win32,60.08171113,53500,,,,,,,,,,,,,,,,,,,,,,,,,,,down,0,14.3691,,0.097222222,-0.220370399,1,0,0,9.6666,0,26,26,71,1,bever,images/br_bever.png,images/cb_bever.png,0,,,,,,,,,,,,,,,,,,,,,,
,,,,,,53500,2023-07-21_24h23.17.091,vbt_B1_day2,2022.2.4,Win32,60.08171113,53500,,,,,,,,,,,,,,,,,,,,,,,,,,,down,0,15.7505,,0.130555541,-0.198148162,1,0,0,15.0048,0,27,27,148,1,smullen,images/br_smullen.png,images/cb_smullen.png,0,,,,,,,,,,,,,,,,,,,,,,
,,,,,,53500,2023-07-21_24h23.17.091,vbt_B1_day2,2022.2.4,Win32,60.08171113,53500,,,,,,,,,,,,,,,,,,,,,,,,,,,down,0,10.1384,,0.130555541,-0.198148162,1,0,0,7.632,0,28,28,84,1,lokken,images/br_lokken.png,images/cb_lokken.png,0,,,,,,,,,,,,,,,,,,,,,,
,,,,,,53500,2023-07-21_24h23.17.091,vbt_B1_day2,2022.2.4,Win32,60.08171113,53500,,,,,,,,,,,,,,,,,,,,,,,,,,,down,0,16.6452,,0.335185157,-0.180555556,1,0,0,11.3051,0,29,29,172,1,weigeren,images/br_weigeren.png,images/cb_weigeren.png,0,,,,,,,,,,,,,,,,,,,,,,
,,,,,,53500,2023-07-21_24h23.17.091,vbt_B1_day2,2022.2.4,Win32,60.08171113,53500,,,,,,,,,,,,,,,,,,,,,,,,,,,down,0,10.4875,,0.335185157,-0.180555556,1,0,0,6.9668,0,30,30,28,1,stal,images/br_stal.png,images/cb_stal.png,0,,,,,,,,,,,,,,,,,,,,,,
,,,,,,53500,2023-07-21_24h23.17.091,vbt_B1_day2,2022.2.4,Win32,60.08171113,53500,,,,,,,,,,,,,,,,,,,,,,,,,,,down,0,11.7907,,0.335185157,-0.180555556,1,0,0,8.0833,0,31,31,166,1,strikken,images/br_strikken.png,images/cb_strikken.png,0,,,,,,,,,,,,,,,,,,,,,,
,,,,,,53500,2023-07-21_24h23.17.091,vbt_B1_day2,2022.2.4,Win32,60.08171113,53500,,,,,,,,,,,,,,,,,,,,,,,,,,,down,0,15.7891,,0.335185157,-0.180555556,1,0,0,7.6667,0,32,32,131,1,opzicht,images/br_opzicht.png,images/cb_opzicht.png,0,,,,,,,,,,,,,,,,,,,,,,
,,,,,,53500,2023-07-21_24h23.17.091,vbt_B1_day2,2022.2.4,Win32,60.08171113,53500,,,,,,,,,,,,,,,,,,,,,,,,,,,down,0,20.78,,0.243518547,-0.18240745,1,0,0,9.8948,0,33,33,175,1,heengaan,images/br_heengaan.png,images/cb_heengaan.png,0,,,,,,,,,,,,,,,,,,,,,,
,,,,,,53500,2023-07-21_24h23.17.091,vbt_B1_day2,2022.2.4,Win32,60.08171113,53500,,,,,,,,,,,,,,,,,,,,,,,,,,,down,0,8.1856,,0.243518547,-0.18240745,1,0,0,5.7224,0,34,34,6,1,diep,images/br_diep.png,images/cb_diep.png,0,,,,,,,,,,,,,,,,,,,,,,
,,,,,,53500,2023-07-21_24h23.17.091,vbt_B1_day2,2022.2.4,Win32,60.08171113,53500,,,,,,,,,,,,,,,,,,,,,,,,,,,down,0,12.3518,,0.243518547,-0.18240745,1,0,0,8.6669,0,35,35,158,1,innemen,images/br_innemen.png,images/cb_innemen.png,0,,,,,,,,,,,,,,,,,,,,,,
,,,,,,53500,2023-07-21_24h23.17.091,vbt_B1_day2,2022.2.4,Win32,60.08171113,53500,,,,,,,,,,,,,,,,,,,,,,,,,,,down,0,19.0856,,0.244444459,-0.181481467,1,0,0,9.4167,0,36,36,180,1,openbaar,images/br_openbaar.png,images/cb_openbaar.png,0,,,,,,,,,,,,,,,,,,,,,,
,,,,,,53500,2023-07-21_24h23.17.091,vbt_B1_day2,2022.2.4,Win32,60.08171113,53500,,,,,,,,,,,,,,,,,,,,,,,,,,,down,0,23.6001,,0.244444459,-0.181481467,1,0,0,11.1616,0,37,37,126,1,kasteel,images/br_kasteel.png,images/cb_kasteel.png,0,,,,,,,,,,,,,,,,,,,,,,
,,,,,,53500,2023-07-21_24h23.17.091,vbt_B1_day2,2022.2.4,Win32,60.08171113,53500,,,,,,,,,,,,,,,,,,,,,,,,,,,down,0,18.2667,,0.243518547,-0.187962991,1,0,0,7.6958,0,38,38,196,1,nakijken,images/br_nakijken.png,images/cb_nakijken.png,0,,,,,,,,,,,,,,,,,,,,,,
,,,,,,53500,2023-07-21_24h23.17.091,vbt_B1_day2,2022.2.4,Win32,60.08171113,53500,,,,,,,,,,,,,,,,,,,,,,,,,,,down,0,11.1999,,0.243518547,-0.188888903,1,0,0,6.2174,0,39,39,117,1,kennis,images/br_kennis.png,images/cb_kennis.png,0,,,,,,,,,,,,,,,,,,,,,,
,,,,,,53500,2023-07-21_24h23.17.091,vbt_B1_day2,2022.2.4,Win32,60.08171113,53500,,,,,,,,,,,,,,,,,,,,,,,,,,,down,0,10.1712,,0.235185199,-0.215740769,1,0,0,4.9994,0,40,40,33,1,vlek,images/br_vlek.png,images/cb_vlek.png,0,,,,,,,,,,,,,,,,,,,,,,
,,,,,,53500,2023-07-21_24h23.17.091,vbt_B1_day2,2022.2.4,Win32,60.08171113,53500,,,,,,,,,,,,,,,,,,,,,,,,,,,down,0,4.7216,,0.235185199,-0.215740769,1,0,0,5.5335,0,41,41,48,1,steel,images/br_steel.png,images/cb_steel.png,0,,,,,,,,,,,,,,,,,,,,,,
,,,,,,53500,2023-07-21_24h23.17.091,vbt_B1_day2,2022.2.4,Win32,60.08171113,53500,,,,,,,,,,,,,,,,,,,,,,,,,,,down,0,12.0717,,0.235185199,-0.215740769,1,0,0,5.2841,0,42,42,67,1,zwart,images/br_zwart.png,images/cb_zwart.png,0,,,,,,,,,,,,,,,,,,,,,,
,,,,,,53500,2023-07-21_24h23.17.091,vbt_B1_day2,2022.2.4,Win32,60.08171113,53500,,,,,,,,,,,,,,,,,,,,,,,,,,,down,0,15.5175,,0.235185199,-0.215740769,1,0,0,6.5836,0,43,43,108,1,excuus,images/br_excuus.png,images/cb_excuus.png,0,,,,,,,,,,,,,,,,,,,,,,
,,,,,,53500,2023-07-21_24h23.17.091,vbt_B1_day2,2022.2.4,Win32,60.08171113,53500,,,,,,,,,,,,,,,,,,,,,,,,,,,down,0,24.5566,,0.327777863,0.003703683,1,0,0,2.3993,0,44,44,99,1,koffie,images/br_koffie.png,images/cb_koffie.png,1,koffie,,,,,,,,,,,,,,,,,,,,,
,,,,,,53500,2023-07-21_24h23.17.091,vbt_B1_day2,2022.2.4,Win32,60.08171113,53500,,,,,,,,,,,,,,,,,,,,,,,,,,,down,0,11.3108,,0.327777863,0.003703683,1,0,0,9.8716,0,45,45,157,1,uitlaat,images/br_uitlaat.png,images/cb_uitlaat.png,0,,,,,,,,,,,,,,,,,,,,,,
,,,,,,53500,2023-07-21_24h23.17.091,vbt_B1_day2,2022.2.4,Win32,60.08171113,53500,,,,,,,,,,,,,,,,,,,,,,,,,,,down,0,26.34,,0.26944443,-0.12962963,1,0,0,7.901,0,46,46,135,1,gedicht,images/br_gedicht.png,images/cb_gedicht.png,0,,,,,,,,,,,,,,,,,,,,,,
,,,,,,53500,2023-07-21_24h23.17.091,vbt_B1_day2,2022.2.4,Win32,60.08171113,53500,,,,,,,,,,,,,,,,,,,,,,,,,,,down,0,14.0515,,0.26944443,-0.12962963,1,0,0,6.7955,0,47,47,113,1,koppen,images/br_koppen.png,images/cb_koppen.png,0,,,,,,,,,,,,,,,,,,,,,,
,,,,,,53500,2023-07-21_24h23.17.091,vbt_B1_day2,2022.2.4,Win32,60.08171113,53500,,,,,,,,,,,,,,,,,,,,,,,,,,,down,0,21.42,,0.26944443,-0.12962963,1,0,0,7.8547,0,48,48,141,1,knielen,images/br_knielen.png,images/cb_knielen.png,0,,,,,,,,,,,,,,,,,,,,,,
,,,,,,53500,2023-07-21_24h23.17.091,vbt_B1_day2,2022.2.4,Win32,60.08171113,53500,,,,,,,,,,,,,,,,,,,,,,,,,,,down,0,8.9055,,0.26944443,-0.12962963,1,0,0,7.2331,0,49,49,89,1,slapen,images/br_slapen.png,images/cb_slapen.png,0,,,,,,,,,,,,,,,,,,,,,,
,,,,,,53500,2023-07-21_24h23.17.091,vbt_B1_day2,2022.2.4,Win32,60.08171113,53500,,,,,,,,,,,,,,,,,,,,,,,,,,,down,0,12.0505,,0.26944443,-0.12962963,1,0,0,5.5162,0,50,50,44,1,flits,images/br_flits.png,images/cb_flits.png,0,,,,,,,,,,,,,,,,,,,,,,
,,,,,,53500,2023-07-21_24h23.17.091,vbt_B1_day2,2022.2.4,Win32,60.08171113,53500,,,,,,,,,,,,,,,,,,,,,,,,,,,down,0,9.3508,,0.26944443,-0.12962963,1,0,0,9.6121,0,51,51,188,1,strekken,images/br_strekken.png,images/cb_strekken.png,0,,,,,,,,,,,,,,,,,,,,,,
,,,,,,53500,2023-07-21_24h23.17.091,vbt_B1_day2,2022.2.4,Win32,60.08171113,53500,,,,,,,,,,,,,,,,,,,,,,,,,,,down,0,6.7259,,0.26944443,-0.12962963,1,0,0,5.0209,0,52,52,12,1,kust,images/br_kust.png,images/cb_kust.png,0,,,,,,,,,,,,,,,,,,,,,,
,,,,,,53500,2023-07-21_24h23.17.091,vbt_B1_day2,2022.2.4,Win32,60.08171113,53500,,,,,,,,,,,,,,,,,,,,,,,,,,,down,0,9.1684,,0.26944443,-0.12962963,1,0,0,6.1881,0,53,53,1,1,zaal,images/br_zaal.png,images/cb_zaal.png,0,,,,,,,,,,,,,,,,,,,,,,
,,,,,,53500,2023-07-21_24h23.17.091,vbt_B1_day2,2022.2.4,Win32,60.08171113,53500,,,,,,,,,,,,,,,,,,,,,,,,,,,down,0,12.8698,,0.26944443,-0.12962963,1,0,0,7.5838,0,54,54,62,1,knaap,images/br_knaap.png,images/cb_knaap.png,0,,,,,,,,,,,,,,,,,,,,,,
,,,,,,53500,2023-07-21_24h23.17.091,vbt_B1_day2,2022.2.4,Win32,60.08171113,53500,,,,,,,,,,,,,,,,,,,,,,,,,,,down,0,42.742,,0.304629714,-0.275925954,1,0,0,7.7214,0,55,55,136,1,waarbij,images/br_waarbij.png,images/cb_waarbij.png,1,waarbij,,,,,,,,,,,,,,,,,,,,,
,,,,,,53500,2023-07-21_24h23.17.091,vbt_B1_day2,2022.2.4,Win32,60.08171113,53500,,,,,,,,,,,,,,,,,,,,,,,,,,,down,0,17.3217,,0.304629714,-0.275925954,1,0,0,8.2344,0,56,56,134,1,geliefd,images/br_geliefd.png,images/cb_geliefd.png,0,,,,,,,,,,,,,,,,,,,,,,
,,,,,,53500,2023-07-21_24h23.17.091,vbt_B1_day2,2022.2.4,Win32,60.08171113,53500,,,,,,,,,,,,,,,,,,,,,,,,,,,down,0,9.8092,,0.304629714,-0.275925954,1,0,0,1.4498,0,57,57,17,1,taal,images/br_taal.png,images/cb_taal.png,1,taal,,,,,,,,,,,,,,,,,,,,,
,,,,,,53500,2023-07-21_24h23.17.091,vbt_B1_day2,2022.2.4,Win32,60.08171113,53500,,,,,,,,,,,,,,,,,,,,,,,,,,,down,0,4.5783,,0.304629714,-0.275925954,1,0,0,6.6727,0,58,58,93,1,waarop,images/br_waarop.png,images/cb_waarop.png,0,,,,,,,,,,,,,,,,,,,,,,
,,,,,,53500,2023-07-21_24h23.17.091,vbt_B1_day2,2022.2.4,Win32,60.08171113,53500,,,,,,,,,,,,,,,,,,,,,,,,,,,down,0,12.8183,,0.304629714,-0.296296296,1,0,0,6.5994,0,59,59,52,1,wagon,images/br_wagon.png,images/cb_wagon.png,0,,,,,,,,,,,,,,,,,,,,,,
,,,,,,53500,2023-07-21_24h23.17.091,vbt_B1_day2,2022.2.4,Win32,60.08171113,53500,,,,,,,,,,,,,,,,,,,,,,,,,,,down,0,14.6078,,0.304629714,-0.296296296,1,0,0,1.5998,0,60,60,11,1,mode,images/br_mode.png,images/cb_mode.png,0,,,,,,,,,,,,,,,,,,,,,,
,,,,,,53500,2023-07-21_24h23.17.091,vbt_B1_day2,2022.2.4,Win32,60.08171113,53500,,,,,,,,,,,,,,,,,,,,,,,,,,,down,0,16.9176,,0.304629714,-0.296296296,1,0,0,10.5228,0,61,61,176,1,techniek,images/br_techniek.png,images/cb_techniek.png,1,techniek,,,,,,,,,,,,,,,,,,,,,
,,,,,,53500,2023-07-21_24h23.17.091,vbt_B1_day2,2022.2.4,Win32,60.08171113,53500,,,,,,,,,,,,,,,,,,,,,,,,,,,down,0,9.1376,,0.304629714,-0.296296296,1,0,0,5.9546,0,62,62,64,1,wegen,images/br_wegen.png,images/cb_wegen.png,0,,,,,,,,,,,,,,,,,,,,,,
,,,,,,53500,2023-07-21_24h23.17.091,vbt_B1_day2,2022.2.4,Win32,60.08171113,53500,,,,,,,,,,,,,,,,,,,,,,,,,,,down,0,12.9493,,0.304629714,-0.296296296,1,0,0,6.7286,0,63,63,53,1,baron,images/br_baron.png,images/cb_baron.png,0,,,,,,,,,,,,,,,,,,,,,,
,,,,,,53500,2023-07-21_24h23.17.091,vbt_B1_day2,2022.2.4,Win32,60.08171113,53500,,,,,,,,,,,,,,,,,,,,,,,,,,,down,0,8.5418,,0.304629714,-0.296296296,1,0,0,6.4337,0,64,64,49,1,laken,images/br_laken.png,images/cb_laken.png,0,,,,,,,,,,,,,,,,,,,,,,
,,,,,,53500,2023-07-21_24h23.17.091,vbt_B1_day2,2022.2.4,Win32,60.08171113,53500,,,,,,,,,,,,,,,,,,,,,,,,,,,down,0,36.6714,,0.320370427,-0.310185185,1,0,0,15.1899,0,65,65,125,1,aanzien,images/br_aanzien.png,images/cb_aanzien.png,0,,,,,,,,,,,,,,,,,,,,,,
,,,,,,53500,2023-07-21_24h23.17.091,vbt_B1_day2,2022.2.4,Win32,60.08171113,53500,,,,,,,,,,,,,,,,,,,,,,,,,,,down,0,13.0736,,0.320370427,-0.310185185,1,0,0,7.6672,0,66,66,130,1,keihard,images/br_keihard.png,images/cb_keihard.png,0,,,,,,,,,,,,,,,,,,,,,,
,,,,,,53500,2023-07-21_24h23.17.091,vbt_B1_day2,2022.2.4,Win32,60.08171113,53500,,,,,,,,,,,,,,,,,,,,,,,,,,,down,0,18.1923,,0.320370427,-0.310185185,1,0,0,6.8409,0,67,67,102,1,legaal,images/br_legaal.png,images/cb_legaal.png,0,,,,,,,,,,,,,,,,,,,,,,
,,,,,,53500,2023-07-21_24h23.17.091,vbt_B1_day2,2022.2.4,Win32,60.08171113,53500,,,,,,,,,,,,,,,,,,,,,,,,,,,down,0,15.618,,0.320370427,-0.310185185,1,0,0,8.4995,0,68,68,164,1,anarchie,images/br_anarchie.png,images/cb_anarchie.png,0,,,,,,,,,,,,,,,,,,,,,,
,,,,,,53500,2023-07-21_24h23.17.091,vbt_B1_day2,2022.2.4,Win32,60.08171113,53500,,,,,,,,,,,,,,,,,,,,,,,,,,,down,0,22.5167,,0.320370427,-0.310185185,1,0,0,9.0671,0,69,69,195,1,middelen,images/br_middelen.png,images/cb_middelen.png,0,,,,,,,,,,,,,,,,,,,,,,
,,,,,,53500,2023-07-21_24h23.17.091,vbt_B1_day2,2022.2.4,Win32,60.08171113,53500,,,,,,,,,,,,,,,,,,,,,,,,,,,down,0,17.9361,,0.320370427,-0.310185185,1,0,0,6.9342,0,70,70,112,1,lukken,images/br_lukken.png,images/cb_lukken.png,0,,,,,,,,,,,,,,,,,,,,,,
,,,,,,53500,2023-07-21_24h23.17.091,vbt_B1_day2,2022.2.4,Win32,60.08171113,53500,,,,,,,,,,,,,,,,,,,,,,,,,,,down,0,20.944,,0.320370427,-0.310185185,1,0,0,5.3668,0,71,71,111,1,ticket,images/br_ticket.png,images/cb_ticket.png,0,,,,,,,,,,,,,,,,,,,,,,
,,,,,,53500,2023-07-21_24h23.17.091,vbt_B1_day2,2022.2.4,Win32,60.08171113,53500,,,,,,,,,,,,,,,,,,,,,,,,,,,down,0,9.3212,,0.320370427,-0.310185185,1,0,0,5.117,0,72,72,140,1,blijven,images/br_blijven.png,images/cb_blijven.png,0,,,,,,,,,,,,,,,,,,,,,,
,,,,,,53500,2023-07-21_24h23.17.091,vbt_B1_day2,2022.2.4,Win32,60.08171113,53500,,,,,,,,,,,,,,,,,,,,,,,,,,,down,0,16.443,,0.320370427,-0.310185185,1,0,0,5.9323,0,73,73,104,1,zweven,images/br_zweven.png,images/cb_zweven.png,0,,,,,,,,,,,,,,,,,,,,,,
,,,,,,53500,2023-07-21_24h23.17.091,vbt_B1_day2,2022.2.4,Win32,60.08171113,53500,,,,,,,,,,,,,,,,,,,,,,,,,,,down,0,12.6109,,0.320370427,-0.310185185,1,0,0,6.0505,0,74,74,163,1,schuilen,images/br_schuilen.png,images/cb_schuilen.png,0,,,,,,,,,,,,,,,,,,,,,,
,,,,,,53500,2023-07-21_24h23.17.091,vbt_B1_day2,2022.2.4,Win32,60.08171113,53500,,,,,,,,,,,,,,,,,,,,,,,,,,,down,0,7.5675,,0.270370413,-0.209259245,1,0,0,5.3205,0,75,75,19,1,geit,images/br_geit.png,images/cb_geit.png,1,Geit,,,,,,,,,,,,,,,,,,,,,
,,,,,,53500,2023-07-21_24h23.17.091,vbt_B1_day2,2022.2.4,Win32,60.08171113,53500,,,,,,,,,,,,,,,,,,,,,,,,,,,down,0,27.1233,,0.267592607,-0.199074074,1,0,0,6.0891,0,76,76,137,1,trekker,images/br_trekker.png,images/cb_trekker.png,1,trekker,,,,,,,,,,,,,,,,,,,,,
,,,,,,53500,2023-07-21_24h23.17.091,vbt_B1_day2,2022.2.4,Win32,60.08171113,53500,,,,,,,,,,,,,,,,,,,,,,,,,,,down,0,9.1174,,0.267592607,-0.199074074,1,0,0,10.2281,0,77,77,90,1,geluid,images/br_geluid.png,images/cb_geluid.png,0,,,,,,,,,,,,,,,,,,,,,,
,,,,,,53500,2023-07-21_24h23.17.091,vbt_B1_day2,2022.2.4,Win32,60.08171113,53500,,,,,,,,,,,,,,,,,,,,,,,,,,,down,0,5.867,,0.267592607,-0.199074074,1,0,0,7.2622,0,78,78,185,1,mijnheer,images/br_mijnheer.png,images/cb_mijnheer.png,0,,,,,,,,,,,,,,,,,,,,,,
,,,,,,53500,2023-07-21_24h23.17.091,vbt_B1_day2,2022.2.4,Win32,60.08171113,53500,,,,,,,,,,,,,,,,,,,,,,,,,,,down,0,10.8419,,0.267592607,-0.199074074,1,0,0,7.2666,0,79,79,118,1,vinger,images/br_vinger.png,images/cb_vinger.png,0,,,,,,,,,,,,,,,,,,,,,,
,,,,,,53500,2023-07-21_24h23.17.091,vbt_B1_day2,2022.2.4,Win32,60.08171113,53500,,,,,,,,,,,,,,,,,,,,,,,,,,,down,0,6.4628,,0.267592607,-0.199074074,1,0,0,6.4119,0,80,80,76,1,afval,images/br_afval.png,images/cb_afval.png,0,,,,,,,,,,,,,,,,,,,,,,
,,,,,,53500,2023-07-21_24h23.17.091,vbt_B1_day2,2022.2.4,Win32,60.08171113,53500,,,,,,,,,,,,,,,,,,,,,,,,,,,down,0,16.2056,,0.267592607,-0.199074074,1,0,0,8.2382,0,81,81,190,1,goedkoop,images/br_goedkoop.png,images/cb_goedkoop.png,0,,,,,,,,,,,,,,,,,,,,,,
,,,,,,53500,2023-07-21_24h23.17.091,vbt_B1_day2,2022.2.4,Win32,60.08171113,53500,,,,,,,,,,,,,,,,,,,,,,,,,,,down,0,9.8934,,0.267592607,-0.199074074,1,0,0,4.8501,0,82,82,32,1,palm,images/br_palm.png,images/cb_palm.png,0,,,,,,,,,,,,,,,,,,,,,,
,,,,,,53500,2023-07-21_24h23.17.091,vbt_B1_day2,2022.2.4,Win32,60.08171113,53500,,,,,,,,,,,,,,,,,,,,,,,,,,,down,0,18.2868,,0.267592607,-0.199074074,1,0,0,11.4168,0,83,83,145,1,invloed,images/br_invloed.png,images/cb_invloed.png,0,,,,,,,,,,,,,,,,,,,,,,
,,,,,,53500,2023-07-21_24h23.17.091,vbt_B1_day2,2022.2.4,Win32,60.08171113,53500,,,,,,,,,,,,,,,,,,,,,,,,,,,down,0,4.534,,0.267592607,-0.199074074,1,0,0,5.0851,0,84,84,51,1,samen,images/br_samen.png,images/cb_samen.png,0,,,,,,,,,,,,,,,,,,,,,,
,,,,,,53500,2023-07-21_24h23.17.091,vbt_B1_day2,2022.2.4,Win32,60.08171113,53500,,,,,,,,,,,,,,,,,,,,,,,,,,,down,0,7.7666,,0.267592607,-0.199074074,1,0,0,5.287,0,85,85,37,1,mijn,images/br_mijn.png,images/cb_mijn.png,0,,,,,,,,,,,,,,,,,,,,,,
,,,,,,53500,2023-07-21_24h23.17.091,vbt_B1_day2,2022.2.4,Win32,60.08171113,53500,,,,,,,,,,,,,,,,,,,,,,,,,,,down,0,10.0662,,0.267592607,-0.199074074,1,0,0,7.546,0,86,86,193,1,weeshuis,images/br_weeshuis.png,images/cb_weeshuis.png,0,,,,,,,,,,,,,,,,,,,,,,
,,,,,,53500,2023-07-21_24h23.17.091,vbt_B1_day2,2022.2.4,Win32,60.08171113,53500,,,,,,,,,,,,,,,,,,,,,,,,,,,down,0,9.1651,,0.267592607,-0.199074074,1,0,0,8.7839,0,87,87,165,1,feestdag,images/br_feestdag.png,images/cb_feestdag.png,0,,,,,,,,,,,,,,,,,,,,,,
,,,,,,53500,2023-07-21_24h23.17.091,vbt_B1_day2,2022.2.4,Win32,60.08171113,53500,,,,,,,,,,,,,,,,,,,,,,,,,,,down,0,8.5337,,0.267592607,-0.199074074,1,0,0,5.5722,0,88,88,38,1,baai,images/br_baai.png,images/cb_baai.png,0,,,,,,,,,,,,,,,,,,,,,,
,,,,,,53500,2023-07-21_24h23.17.091,vbt_B1_day2,2022.2.4,Win32,60.08171113,53500,,,,,,,,,,,,,,,,,,,,,,,,,,,down,0,15.3633,,0.267592607,-0.199074074,1,0,0,5.0054,0,89,89,26,1,leuk,images/br_leuk.png,images/cb_leuk.png,0,,,,,,,,,,,,,,,,,,,,,,
,,,,,,53500,2023-07-21_24h23.17.091,vbt_B1_day2,2022.2.4,Win32,60.08171113,53500,,,,,,,,,,,,,,,,,,,,,,,,,,,down,0,11.612,,0.267592607,-0.199074074,1,0,0,5.6992,0,90,90,15,1,soda,images/br_soda.png,images/cb_soda.png,0,,,,,,,,,,,,,,,,,,,,,,
,,,,,,53500,2023-07-21_24h23.17.091,vbt_B1_day2,2022.2.4,Win32,60.08171113,53500,,,,,,,,,,,,,,,,,,,,,,,,,,,down,0,10.1146,,0.267592607,-0.199074074,1,0,0,8.2642,0,91,91,95,1,vreten,images/br_vreten.png,images/cb_vreten.png,0,,,,,,,,,,,,,,,,,,,,,,
,,,,,,53500,2023-07-21_24h23.17.091,vbt_B1_day2,2022.2.4,Win32,60.08171113,53500,,,,,,,,,,,,,,,,,,,,,,,,,,,down,0,16.3406,,0.267592607,-0.199074074,1,0,0,14.4166,0,92,92,182,1,bijkomen,images/br_bijkomen.png,images/cb_bijkomen.png,0,,,,,,,,,,,,,,,,,,,,,,
,,,,,,53500,2023-07-21_24h23.17.091,vbt_B1_day2,2022.2.4,Win32,60.08171113,53500,,,,,,,,,,,,,,,,,,,,,,,,,,,down,0,4.0602,,0.267592607,-0.199074074,1,0,0,5.3389,0,93,93,30,1,uien,images/br_uien.png,images/cb_uien.png,0,,,,,,,,,,,,,,,,,,,,,,
,,,,,,53500,2023-07-21_24h23.17.091,vbt_B1_day2,2022.2.4,Win32,60.08171113,53500,,,,,,,,,,,,,,,,,,,,,,,,,,,down,0,2.9265,,0.267592607,-0.199074074,1,0,0,4.7712,0,94,94,13,1,kaal,images/br_kaal.png,images/cb_kaal.png,0,,,,,,,,,,,,,,,,,,,,,,
,,,,,,53500,2023-07-21_24h23.17.091,vbt_B1_day2,2022.2.4,Win32,60.08171113,53500,,,,,,,,,,,,,,,,,,,,,,,,,,,down,0,3.1362,,0.267592607,-0.199074074,1,0,0,4.5884,0,95,95,0,1,slak,images/br_slak.png,images/cb_slak.png,0,,,,,,,,,,,,,,,,,,,,,,
,,,,,,53500,2023-07-21_24h23.17.091,vbt_B1_day2,2022.2.4,Win32,60.08171113,53500,,,,,,,,,,,,,,,,,,,,,,,,,,,down,0,12.4047,,0.268518519,-0.195370356,1,0,0,6.6385,0,96,96,96,1,slagen,images/br_slagen.png,images/cb_slagen.png,1,slagen,,,,,,,,,,,,,,,,,,,,,
,,,,,,53500,2023-07-21_24h23.17.091,vbt_B1_day2,2022.2.4,Win32,60.08171113,53500,,,,,,,,,,,,,,,,,,,,,,,,,,,down,0,7.2466,,0.268518519,-0.195370356,1,0,0,5.4282,0,97,97,72,1,strak,images/br_strak.png,images/cb_strak.png,0,,,,,,,,,,,,,,,,,,,,,,
,,,,,,53500,2023-07-21_24h23.17.091,vbt_B1_day2,2022.2.4,Win32,60.08171113,53500,,,,,,,,,,,,,,,,,,,,,,,,,,,down,0,9.4521,,0.268518519,-0.195370356,1,0,0,7.2547,0,98,98,174,1,stemming,images/br_stemming.png,images/cb_stemming.png,0,,,,,,,,,,,,,,,,,,,,,,
,,,,,,53500,2023-07-21_24h23.17.091,vbt_B1_day2,2022.2.4,Win32,60.08171113,53500,,,,,,,,,,,,,,,,,,,,,,,,,,,down,0,8.2839,,0.268518519,-0.195370356,1,0,0,5.3495,0,99,99,23,1,zout,images/br_zout.png,images/cb_zout.png,0,,,,,,,,,,,,,,,,,,,,,,
,,,,,,53500,2023-07-21_24h23.17.091,vbt_B1_day2,2022.2.4,Win32,60.08171113,53500,,,,,,,,,,,,,,,,,,,,,,,,,,,down,0,11.0505,,0.268518519,-0.195370356,1,0,0,4.7945,0,100,100,34,1,vorm,images/br_vorm.png,images/cb_vorm.png,0,,,,,,,,,,,,,,,,,,,,,,
,,,,,,53500,2023-07-21_24h23.17.091,vbt_B1_day2,2022.2.4,Win32,60.08171113,53500,,,,,,,,,,,,,,,,,,,,,,,,,,,down,0,7.9354,,0.268518519,-0.195370356,1,0,0,1.8621,0,101,101,18,1,blik,images/br_blik.png,images/cb_blik.png,1,blik,,,,,,,,,,,,,,,,,,,,,
,,,,,,53500,2023-07-21_24h23.17.091,vbt_B1_day2,2022.2.4,Win32,60.08171113,53500,,,,,,,,,,,,,,,,,,,,,,,,,,,down,0,8.651,,0.266666695,-0.214814857,1,0,0,1.7495,0,102,102,20,1,site,images/br_site.png,images/cb_site.png,0,,,,,,,,,,,,,,,,,,,,,,
,,,,,,53500,2023-07-21_24h23.17.091,vbt_B1_day2,2022.2.4,Win32,60.08171113,53500,,,,,,,,,,,,,,,,,,,,,,,,,,,down,0,7.1802,,-0.02407406,-0.252777806,1,0,0,4.8993,0,103,103,133,1,seizoen,images/br_seizoen.png,images/cb_seizoen.png,0,,,,,,,,,,,,,,,,,,,,,,
,,,,,,53500,2023-07-21_24h23.17.091,vbt_B1_day2,2022.2.4,Win32,60.08171113,53500,,,,,,,,,,,,,,,,,,,,,,,,,,,down,0,9.517,,-0.02407406,-0.252777806,1,0,0,1.863,0,104,104,124,1,bloeien,images/br_bloeien.png,images/cb_bloeien.png,0,,,,,,,,,,,,,,,,,,,,,,
,,,,,,53500,2023-07-21_24h23.17.091,vbt_B1_day2,2022.2.4,Win32,60.08171113,53500,,,,,,,,,,,,,,,,,,,,,,,,,,,down,0,8.2159,,-0.02407406,-0.252777806,1,0,0,2.8797,0,105,105,142,1,snuiven,images/br_snuiven.png,images/cb_snuiven.png,0,,,,,,,,,,,,,,,,,,,,,,
,,,,,,53500,2023-07-21_24h23.17.091,vbt_B1_day2,2022.2.4,Win32,60.08171113,53500,,,,,,,,,,,,,,,,,,,,,,,,,,,down,0,5.4006,,-0.02407406,-0.252777806,1,0,0,2.9454,0,106,106,167,1,eenhoorn,images/br_eenhoorn.png,images/cb_eenhoorn.png,0,,,,,,,,,,,,,,,,,,,,,,
,,,,,,53500,2023-07-21_24h23.17.091,vbt_B1_day2,2022.2.4,Win32,60.08171113,53500,,,,,,,,,,,,,,,,,,,,,,,,,,,down,0,2.4187,,-0.02407406,-0.252777806,1,0,0,2.5335,0,107,107,42,1,bleek,images/br_bleek.png,images/cb_bleek.png,0,,,,,,,,,,,,,,,,,,,,,,
,,,,,,53500,2023-07-21_24h23.17.091,vbt_B1_day2,2022.2.4,Win32,60.08171113,53500,,,,,,,,,,,,,,,,,,,,,,,,,,,down,0,6.258,,-0.02407406,-0.252777806,1,0,0,3.0042,0,108,108,81,1,dubbel,images/br_dubbel.png,images/cb_dubbel.png,0,,,,,,,,,,,,,,,,,,,,,,
,,,,,,53500,2023-07-21_24h23.17.091,vbt_B1_day2,2022.2.4,Win32,60.08171113,53500,,,,,,,,,,,,,,,,,,,,,,,,,,,down,0,16.183,,-0.02407406,-0.252777806,1,0,0,1.9792,0,109,109,115,1,kleren,images/br_kleren.png,images/cb_kleren.png,0,,,,,,,,,,,,,,,,,,,,,,
,,,,,,53500,2023-07-21_24h23.17.091,vbt_B1_day2,2022.2.4,Win32,60.08171113,53500,,,,,,,,,,,,,,,,,,,,,,,,,,,down,0,10.8715,,-0.02407406,-0.252777806,1,0,0,3.7676,0,110,110,162,1,uitdelen,images/br_uitdelen.png,images/cb_uitdelen.png,0,,,,,,,,,,,,,,,,,,,,,,
,,,,,,53500,2023-07-21_24h23.17.091,vbt_B1_day2,2022.2.4,Win32,60.08171113,53500,,,,,,,,,,,,,,,,,,,,,,,,,,,down,0,9.3763,,-0.02407406,-0.252777806,1,0,0,2.4168,0,111,111,155,1,gerucht,images/br_gerucht.png,images/cb_gerucht.png,0,,,,,,,,,,,,,,,,,,,,,,
,,,,,,53500,2023-07-21_24h23.17.091,vbt_B1_day2,2022.2.4,Win32,60.08171113,53500,,,,,,,,,,,,,,,,,,,,,,,,,,,down,0,8.0682,,-0.02407406,-0.252777806,1,0,0,2.2001,0,112,112,132,1,grappen,images/br_grappen.png,images/cb_grappen.png,0,,,,,,,,,,,,,,,,,,,,,,
,,,,,,53500,2023-07-21_24h23.17.091,vbt_B1_day2,2022.2.4,Win32,60.08171113,53500,,,,,,,,,,,,,,,,,,,,,,,,,,,down,0,18.7181,,0.359259288,-0.115740741,1,0,0,2.2664,0,113,113,59,1,kring,images/br_kring.png,images/cb_kring.png,1,krant,,,,,,,,,,,,,,,,,,,,,
,,,,,,53500,2023-07-21_24h23.17.091,vbt_B1_day2,2022.2.4,Win32,60.08171113,53500,,,,,,,,,,,,,,,,,,,,,,,,,,,down,0,3.1185,,0.251851894,-0.277777778,1,0,0,2.1666,0,114,114,80,1,kanjer,images/br_kanjer.png,images/cb_kanjer.png,0,,,,,,,,,,,,,,,,,,,,,,
,,,,,,53500,2023-07-21_24h23.17.091,vbt_B1_day2,2022.2.4,Win32,60.08171113,53500,,,,,,,,,,,,,,,,,,,,,,,,,,,down,0,1.3205,,0.251851894,-0.277777778,1,0,0,0.8995,0,115,115,9,1,hier,images/br_hier.png,images/cb_hier.png,0,,,,,,,,,,,,,,,,,,,,,,
,,,,,,53500,2023-07-21_24h23.17.091,vbt_B1_day2,2022.2.4,Win32,60.08171113,53500,,,,,,,,,,,,,,,,,,,,,,,,,,,down,0,17.801,,0.312037009,-0.228703746,1,0,0,1.317,0,116,116,138,1,akkoord,images/br_akkoord.png,images/cb_akkoord.png,1,akkoord,,,,,,,,,,,,,,,,,,,,,
,,,,,,53500,2023-07-21_24h23.17.091,vbt_B1_day2,2022.2.4,Win32,60.08171113,53500,,,,,,,,,,,,,,,,,,,,,,,,,,,down,0,3.5224,,0.312037009,-0.228703746,1,0,0,1.3665,0,117,117,119,1,liefje,images/br_liefje.png,images/cb_liefje.png,0,,,,,,,,,,,,,,,,,,,,,,
,,,,,,53500,2023-07-21_24h23.17.091,vbt_B1_day2,2022.2.4,Win32,60.08171113,53500,,,,,,,,,,,,,,,,,,,,,,,,,,,down,0,7.4228,,0.312037009,-0.228703746,1,0,0,2.8833,0,118,118,128,1,prikken,images/br_prikken.png,images/cb_prikken.png,0,,,,,,,,,,,,,,,,,,,,,,
,,,,,,53500,2023-07-21_24h23.17.091,vbt_B1_day2,2022.2.4,Win32,60.08171113,53500,,,,,,,,,,,,,,,,,,,,,,,,,,,down,0,6.5555,,0.307407379,-0.239814829,1,0,0,1.1501,0,119,119,94,1,oceaan,images/br_oceaan.png,images/cb_oceaan.png,0,,,,,,,,,,,,,,,,,,,,,,
,,,,,,53500,2023-07-21_24h23.17.091,vbt_B1_day2,2022.2.4,Win32,60.08171113,53500,,,,,,,,,,,,,,,,,,,,,,,,,,,down,0,4.8716,,0.307407379,-0.239814829,1,0,0,2.4664,0,120,120,170,1,schatten,images/br_schatten.png,images/cb_schatten.png,0,,,,,,,,,,,,,,,,,,,,,,
,,,,,,53500,2023-07-21_24h23.17.091,vbt_B1_day2,2022.2.4,Win32,60.08171113,53500,,,,,,,,,,,,,,,,,,,,,,,,,,,down,0,5.4256,,0.306481538,-0.242592635,1,0,0,1.4161,0,121,121,181,1,toegeven,images/br_toegeven.png,images/cb_toegeven.png,0,,,,,,,,,,,,,,,,,,,,,,
,,,,,,53500,2023-07-21_24h23.17.091,vbt_B1_day2,2022.2.4,Win32,60.08171113,53500,,,,,,,,,,,,,,,,,,,,,,,,,,,down,0,4.0108,,0.306481538,-0.242592635,1,0,0,1.0166,0,122,122,194,1,driemaal,images/br_driemaal.png,images/cb_driemaal.png,0,,,,,,,,,,,,,,,,,,,,,,
,,,,,,53500,2023-07-21_24h23.17.091,vbt_B1_day2,2022.2.4,Win32,60.08171113,53500,,,,,,,,,,,,,,,,,,,,,,,,,,,down,0,0.8013,,0.304629714,-0.24537037,1,0,0,0.9162,0,123,123,10,1,leek,images/br_leek.png,images/cb_leek.png,0,,,,,,,,,,,,,,,,,,,,,,
,,,,,,53500,2023-07-21_24h23.17.091,vbt_B1_day2,2022.2.4,Win32,60.08171113,53500,,,,,,,,,,,,,,,,,,,,,,,,,,,down,0,0.8228,,0.303703732,-0.249074088,1,0,0,1.6494,0,124,124,39,1,laag,images/br_laag.png,images/cb_laag.png,0,,,,,,,,,,,,,,,,,,,,,,
,,,,,,53500,2023-07-21_24h23.17.091,vbt_B1_day2,2022.2.4,Win32,60.08171113,53500,,,,,,,,,,,,,,,,,,,,,,,,,,,down,0,1.4678,,0.30277775,-0.25,1,0,0,0.7335,0,125,125,22,1,stof,images/br_stof.png,images/cb_stof.png,0,,,,,,,,,,,,,,,,,,,,,,
,,,,,,53500,2023-07-21_24h23.17.091,vbt_B1_day2,2022.2.4,Win32,60.08171113,53500,,,,,,,,,,,,,,,,,,,,,,,,,,,down,0,9.7578,,0.301851908,-0.253703718,1,0,0,1.1997,0,126,126,122,1,waarvan,images/br_waarvan.png,images/cb_waarvan.png,0,,,,,,,,,,,,,,,,,,,,,,
,,,,,,53500,2023-07-21_24h23.17.091,vbt_B1_day2,2022.2.4,Win32,60.08171113,53500,,,,,,,,,,,,,,,,,,,,,,,,,,,down,0,4.6688,,0.301851908,-0.253703718,1,0,0,0.8665,0,127,127,146,1,opkomen,images/br_opkomen.png,images/cb_opkomen.png,0,,,,,,,,,,,,,,,,,,,,,,
,,,,,,53500,2023-07-21_24h23.17.091,vbt_B1_day2,2022.2.4,Win32,60.08171113,53500,,,,,,,,,,,,,,,,,,,,,,,,,,,down,0,3.651,,0.301851908,-0.253703718,1,0,0,1.2836,0,128,128,120,1,klimmen,images/br_klimmen.png,images/cb_klimmen.png,0,,,,,,,,,,,,,,,,,,,,,,
,,,,,,53500,2023-07-21_24h23.17.091,vbt_B1_day2,2022.2.4,Win32,60.08171113,53500,,,,,,,,,,,,,,,,,,,,,,,,,,,down,0,2.351,,0.301851908,-0.253703718,1,0,0,1.116,0,129,129,66,1,lever,images/br_lever.png,images/cb_lever.png,0,,,,,,,,,,,,,,,,,,,,,,
,,,,,,53500,2023-07-21_24h23.17.091,vbt_B1_day2,2022.2.4,Win32,60.08171113,53500,,,,,,,,,,,,,,,,,,,,,,,,,,,down,0,3.753,,0.300925926,-0.255555541,1,0,0,0.8166,0,130,130,36,1,vuur,images/br_vuur.png,images/cb_vuur.png,0,,,,,,,,,,,,,,,,,,,,,,
,,,,,,53500,2023-07-21_24h23.17.091,vbt_B1_day2,2022.2.4,Win32,60.08171113,53500,,,,,,,,,,,,,,,,,,,,,,,,,,,down,0,4.3565,,0.300925926,-0.255555541,1,0,0,0.7502,0,131,131,60,1,jasje,images/br_jasje.png,images/cb_jasje.png,0,,,,,,,,,,,,,,,,,,,,,,
,,,,,,53500,2023-07-21_24h23.17.091,vbt_B1_day2,2022.2.4,Win32,60.08171113,53500,,,,,,,,,,,,,,,,,,,,,,,,,,,down,0,27.9254,,0.384259259,-0.25,1,0,0,1.2324,0,132,132,97,1,loyaal,images/br_loyaal.png,images/cb_loyaal.png,1,lokaallokaal,,,,,,,,,,,,,,,,,,,,,
,,,,,,53500,2023-07-21_24h23.17.091,vbt_B1_day2,2022.2.4,Win32,60.08171113,53500,,,,,,,,,,,,,,,,,,,,,,,,,,,down,0,3.287,,0.384259259,-0.262037065,1,0,0,1.0497,0,133,133,173,1,apparaat,images/br_apparaat.png,images/cb_apparaat.png,0,,,,,,,,,,,,,,,,,,,,,,
,,,,,,53500,2023-07-21_24h23.17.091,vbt_B1_day2,2022.2.4,Win32,60.08171113,53500,,,,,,,,,,,,,,,,,,,,,,,,,,,down,0,3.6935,,0.384259259,-0.262037065,1,0,0,1.866,0,134,134,7,1,geld,images/br_geld.png,images/cb_geld.png,0,,,,,,,,,,,,,,,,,,,,,,
,,,,,,53500,2023-07-21_24h23.17.091,vbt_B1_day2,2022.2.4,Win32,60.08171113,53500,,,,,,,,,,,,,,,,,,,,,,,,,,,down,0,4.02,,0.384259259,-0.262037065,1,0,0,2.2335,0,135,135,184,1,aandelen,images/br_aandelen.png,images/cb_aandelen.png,0,,,,,,,,,,,,,,,,,,,,,,
,,,,,,53500,2023-07-21_24h23.17.091,vbt_B1_day2,2022.2.4,Win32,60.08171113,53500,,,,,,,,,,,,,,,,,,,,,,,,,,,down,0,3.8683,,0.384259259,-0.262037065,1,0,0,1.0997,0,136,136,43,1,klauw,images/br_klauw.png,images/cb_klauw.png,0,,,,,,,,,,,,,,,,,,,,,,
,,,,,,53500,2023-07-21_24h23.17.091,vbt_B1_day2,2022.2.4,Win32,60.08171113,53500,,,,,,,,,,,,,,,,,,,,,,,,,,,down,0,3.7621,,0.384259259,-0.262037065,1,0,0,1.2495,0,137,137,74,1,graaf,images/br_graaf.png,images/cb_graaf.png,0,,,,,,,,,,,,,,,,,,,,,,
,,,,,,53500,2023-07-21_24h23.17.091,vbt_B1_day2,2022.2.4,Win32,60.08171113,53500,,,,,,,,,,,,,,,,,,,,,,,,,,,down,0,3.0855,,0.384259259,-0.262037065,1,0,0,0.9999,0,138,138,156,1,rechten,images/br_rechten.png,images/cb_rechten.png,0,,,,,,,,,,,,,,,,,,,,,,
,,,,,,53500,2023-07-21_24h23.17.091,vbt_B1_day2,2022.2.4,Win32,60.08171113,53500,,,,,,,,,,,,,,,,,,,,,,,,,,,down,0,2.3891,,0.384259259,-0.262037065,1,0,0,1.3002,0,139,139,83,1,mening,images/br_mening.png,images/cb_mening.png,0,,,,,,,,,,,,,,,,,,,,,,
,,,,,,53500,2023-07-21_24h23.17.091,vbt_B1_day2,2022.2.4,Win32,60.08171113,53500,,,,,,,,,,,,,,,,,,,,,,,,,,,down,0,1.7005,,0.384259259,-0.262037065,1,0,0,1.2675,0,140,140,103,1,joggen,images/br_joggen.png,images/cb_joggen.png,0,,,,,,,,,,,,,,,,,,,,,,
,,,,,,53500,2023-07-21_24h23.17.091,vbt_B1_day2,2022.2.4,Win32,60.08171113,53500,,,,,,,,,,,,,,,,,,,,,,,,,,,down,0,0.8036,,0.384259259,-0.262037065,1,0,0,1.7499,0,141,141,187,1,opkijken,images/br_opkijken.png,images/cb_opkijken.png,0,,,,,,,,,,,,,,,,,,,,,,
,,,,,,53500,2023-07-21_24h23.17.091,vbt_B1_day2,2022.2.4,Win32,60.08171113,53500,,,,,,,,,,,,,,,,,,,,,,,,,,,down,0,1.6168,,0.384259259,-0.262037065,1,0,0,1.5332,0,142,142,151,1,aanzoek,images/br_aanzoek.png,images/cb_aanzoek.png,0,,,,,,,,,,,,,,,,,,,,,,
,,,,,,53500,2023-07-21_24h23.17.091,vbt_B1_day2,2022.2.4,Win32,60.08171113,53500,,,,,,,,,,,,,,,,,,,,,,,,,,,down,0,0.3096,,0.384259259,-0.262037065,1,0,0,0.8674,0,143,143,70,1,ijdel,images/br_ijdel.png,images/cb_ijdel.png,0,,,,,,,,,,,,,,,,,,,,,,
,,,,,,53500,2023-07-21_24h23.17.091,vbt_B1_day2,2022.2.4,Win32,60.08171113,53500,,,,,,,,,,,,,,,,,,,,,,,,,,,down,0,0.8755,,0.384259259,-0.262037065,1,0,0,0.5327,0,144,144,199,1,beseffen,images/br_beseffen.png,images/cb_beseffen.png,0,,,,,,,,,,,,,,,,,,,,,,
,,,,,,53500,2023-07-21_24h23.17.091,vbt_B1_day2,2022.2.4,Win32,60.08171113,53500,,,,,,,,,,,,,,,,,,,,,,,,,,,down,0,2.6904,,0.384259259,-0.262037065,1,0,0,0.7488,0,145,145,78,1,leren,images/br_leren.png,images/cb_leren.png,0,,,,,,,,,,,,,,,,,,,,,,
,,,,,,53500,2023-07-21_24h23.17.091,vbt_B1_day2,2022.2.4,Win32,60.08171113,53500,,,,,,,,,,,,,,,,,,,,,,,,,,,down,0,1.2007,,0.384259259,-0.262037065,1,0,0,1.0841,0,146,146,129,1,verhaal,images/br_verhaal.png,images/cb_verhaal.png,0,,,,,,,,,,,,,,,,,,,,,,
,,,,,,53500,2023-07-21_24h23.17.091,vbt_B1_day2,2022.2.4,Win32,60.08171113,53500,,,,,,,,,,,,,,,,,,,,,,,,,,,down,0,1.1007,,0.384259259,-0.262037065,1,0,0,1.0667,0,147,147,169,1,oprotten,images/br_oprotten.png,images/cb_oprotten.png,0,,,,,,,,,,,,,,,,,,,,,,
,,,,,,53500,2023-07-21_24h23.17.091,vbt_B1_day2,2022.2.4,Win32,60.08171113,53500,,,,,,,,,,,,,,,,,,,,,,,,,,,down,0,0.1009,,0.384259259,-0.262037065,1,0,0,1.6174,0,148,148,63,1,flirt,images/br_flirt.png,images/cb_flirt.png,0,,,,,,,,,,,,,,,,,,,,,,
,,,,,,53500,2023-07-21_24h23.17.091,vbt_B1_day2,2022.2.4,Win32,60.08171113,53500,,,,,,,,,,,,,,,,,,,,,,,,,,,down,0,0.5717,,0.317592621,-0.237963005,1,0,0,1.6494,0,149,149,143,1,hechten,images/br_hechten.png,images/cb_hechten.png,0,,,,,,,,,,,,,,,,,,,,,,
,,,,,,53500,2023-07-21_24h23.17.091,vbt_B1_day2,2022.2.4,Win32,60.08171113,53500,,,,,,,,,,,,,,,,,,,,,,,,,,,down,0,1.5846,,0.317592621,-0.237963005,1,0,0,1.0334,0,150,150,75,1,snoep,images/br_snoep.png,images/cb_snoep.png,0,,,,,,,,,,,,,,,,,,,,,,
,,,,,,53500,2023-07-21_24h23.17.091,vbt_B1_day2,2022.2.4,Win32,60.08171113,53500,,,,,,,,,,,,,,,,,,,,,,,,,,,down,0,1.3365,,0.317592621,-0.237963005,1,0,0,1.3494,0,151,151,110,1,zuster,images/br_zuster.png,images/cb_zuster.png,0,,,,,,,,,,,,,,,,,,,,,,
,,,,,,53500,2023-07-21_24h23.17.091,vbt_B1_day2,2022.2.4,Win32,60.08171113,53500,,,,,,,,,,,,,,,,,,,,,,,,,,,down,0,2.7675,,0.317592621,-0.237963005,1,0,0,0.9994,0,152,152,92,1,geheim,images/br_geheim.png,images/cb_geheim.png,0,,,,,,,,,,,,,,,,,,,,,,
,,,,,,53500,2023-07-21_24h23.17.091,vbt_B1_day2,2022.2.4,Win32,60.08171113,53500,,,,,,,,,,,,,,,,,,,,,,,,,,,down,0,1.3264,,0.317592621,-0.237963005,1,0,0,1.2499,0,153,153,73,1,volop,images/br_volop.png,images/cb_volop.png,0,,,,,,,,,,,,,,,,,,,,,,
,,,,,,53500,2023-07-21_24h23.17.091,vbt_B1_day2,2022.2.4,Win32,60.08171113,53500,,,,,,,,,,,,,,,,,,,,,,,,,,,down,0,0.8008,,0.317592621,-0.237963005,1,0,0,0.8,0,154,154,192,1,schaamte,images/br_schaamte.png,images/cb_schaamte.png,0,,,,,,,,,,,,,,,,,,,,,,
,,,,,,53500,2023-07-21_24h23.17.091,vbt_B1_day2,2022.2.4,Win32,60.08171113,53500,,,,,,,,,,,,,,,,,,,,,,,,,,,down,0,1.6841,,0.317592621,-0.237963005,1,0,0,1.2664,0,155,155,25,1,plek,images/br_plek.png,images/cb_plek.png,0,,,,,,,,,,,,,,,,,,,,,,
,,,,,,53500,2023-07-21_24h23.17.091,vbt_B1_day2,2022.2.4,Win32,60.08171113,53500,,,,,,,,,,,,,,,,,,,,,,,,,,,down,0,3.5398,,0.348148205,-0.240740741,1,0,0,1.1165,0,156,156,88,1,boeien,images/br_boeien.png,images/cb_boeien.png,0,,,,,,,,,,,,,,,,,,,,,,
,,,,,,53500,2023-07-21_24h23.17.091,vbt_B1_day2,2022.2.4,Win32,60.08171113,53500,,,,,,,,,,,,,,,,,,,,,,,,,,,down,0,4.1599,,0.348148205,-0.240740741,1,0,0,0.7333,0,157,157,153,1,vervoer,images/br_vervoer.png,images/cb_vervoer.png,0,,,,,,,,,,,,,,,,,,,,,,
,,,,,,53500,2023-07-21_24h23.17.091,vbt_B1_day2,2022.2.4,Win32,60.08171113,53500,,,,,,,,,,,,,,,,,,,,,,,,,,,down,0,1.617,,0.348148205,-0.240740741,1,0,0,1.9,0,158,158,100,1,geduld,images/br_geduld.png,images/cb_geduld.png,0,,,,,,,,,,,,,,,,,,,,,,
,,,,,,53500,2023-07-21_24h23.17.091,vbt_B1_day2,2022.2.4,Win32,60.08171113,53500,,,,,,,,,,,,,,,,,,,,,,,,,,,down,0,1.675,,0.348148205,-0.240740741,1,0,0,1.3999,0,159,159,85,1,heilig,images/br_heilig.png,images/cb_heilig.png,0,,,,,,,,,,,,,,,,,,,,,,
,,,,,,53500,2023-07-21_24h23.17.091,vbt_B1_day2,2022.2.4,Win32,60.08171113,53500,,,,,,,,,,,,,,,,,,,,,,,,,,,down,0,40.5848,,0.37962963,-0.136111153,1,0,0,2.3331,0,160,160,178,1,huisdier,images/br_huisdier.png,images/cb_huisdier.png,1,huisdier,,,,,,,,,,,,,,,,,,,,,
,,,,,,53500,2023-07-21_24h23.17.091,vbt_B1_day2,2022.2.4,Win32,60.08171113,53500,,,,,,,,,,,,,,,,,,,,,,,,,,,down,0,11.8012,,0.367592564,-0.118518547,1,0,0,0.383,0,161,161,98,1,kreeft,images/br_kreeft.png,images/cb_kreeft.png,1,kreeft,,,,,,,,,,,,,,,,,,,,,
,,,,,,53500,2023-07-21_24h23.17.091,vbt_B1_day2,2022.2.4,Win32,60.08171113,53500,,,,,,,,,,,,,,,,,,,,,,,,,,,down,0,4.5926,,0.367592564,-0.118518547,1,0,0,0.2836,0,162,162,2,1,jaar,images/br_jaar.png,images/cb_jaar.png,0,,,,,,,,,,,,,,,,,,,,,,
,,,,,,53500,2023-07-21_24h23.17.091,vbt_B1_day2,2022.2.4,Win32,60.08171113,53500,,,,,,,,,,,,,,,,,,,,,,,,,,,down,0,0.2844,,0.367592564,-0.118518547,1,0,0,0.8666,0,163,163,54,1,gebit,images/br_gebit.png,images/cb_gebit.png,0,,,,,,,,,,,,,,,,,,,,,,
,,,,,,53500,2023-07-21_24h23.17.091,vbt_B1_day2,2022.2.4,Win32,60.08171113,53500,,,,,,,,,,,,,,,,,,,,,,,,,,,down,0,6.1353,,0.367592564,-0.118518547,1,0,0,0.8162,0,164,164,40,1,schep,images/br_schep.png,images/cb_schep.png,0,,,,,,,,,,,,,,,,,,,,,,
,,,,,,53500,2023-07-21_24h23.17.091,vbt_B1_day2,2022.2.4,Win32,60.08171113,53500,,,,,,,,,,,,,,,,,,,,,,,,,,,down,0,1.0687,,0.367592564,-0.118518547,1,0,0,0.783,0,165,165,109,1,totaal,images/br_totaal.png,images/cb_totaal.png,0,,,,,,,,,,,,,,,,,,,,,,
,,,,,,53500,2023-07-21_24h23.17.091,vbt_B1_day2,2022.2.4,Win32,60.08171113,53500,,,,,,,,,,,,,,,,,,,,,,,,,,,down,0,0.6673,,0.367592564,-0.118518547,1,0,0,1.0331,0,166,166,147,1,komisch,images/br_komisch.png,images/cb_komisch.png,0,,,,,,,,,,,,,,,,,,,,,,
,,,,,,53500,2023-07-21_24h23.17.091,vbt_B1_day2,2022.2.4,Win32,60.08171113,53500,,,,,,,,,,,,,,,,,,,,,,,,,,,down,0,2.3364,,0.367592564,-0.118518547,1,0,0,0.817,0,167,167,183,1,getuigen,images/br_getuigen.png,images/cb_getuigen.png,0,,,,,,,,,,,,,,,,,,,,,,
,,,,,,53500,2023-07-21_24h23.17.091,vbt_B1_day2,2022.2.4,Win32,60.08171113,53500,,,,,,,,,,,,,,,,,,,,,,,,,,,down,0,0.2192,,0.367592564,-0.118518547,1,0,0,1.3832,0,168,168,4,1,moes,images/br_moes.png,images/cb_moes.png,0,,,,,,,,,,,,,,,,,,,,,,
,,,,,,53500,2023-07-21_24h23.17.091,vbt_B1_day2,2022.2.4,Win32,60.08171113,53500,,,,,,,,,,,,,,,,,,,,,,,,,,,down,0,0.2367,,0.367592564,-0.118518547,1,0,0,0.7497,0,169,169,61,1,groen,images/br_groen.png,images/cb_groen.png,0,,,,,,,,,,,,,,,,,,,,,,
,,,,,,53500,2023-07-21_24h23.17.091,vbt_B1_day2,2022.2.4,Win32,60.08171113,53500,,,,,,,,,,,,,,,,,,,,,,,,,,,down,0,28.9429,,0.367592564,-0.118518547,1,0,0,0.4836,0,170,170,177,1,maaltijd,images/br_maaltijd.png,images/cb_maaltijd.png,1,maaltijd,,,,,,,,,,,,,,,,,,,,,
,,,,,,53500,2023-07-21_24h23.17.091,vbt_B1_day2,2022.2.4,Win32,60.08171113,53500,,,,,,,,,,,,,,,,,,,,,,,,,,,down,0,1.4166,,0.367592564,-0.118518547,1,0,0,0.7667,0,171,171,47,1,kabel,images/br_kabel.png,images/cb_kabel.png,0,,,,,,,,,,,,,,,,,,,,,,
,,,,,,53500,2023-07-21_24h23.17.091,vbt_B1_day2,2022.2.4,Win32,60.08171113,53500,,,,,,,,,,,,,,,,,,,,,,,,,,,down,0,0.0528,,0.367592564,-0.118518547,1,0,0,0.6499,0,172,172,3,1,mand,images/br_mand.png,images/cb_mand.png,0,,,,,,,,,,,,,,,,,,,,,,
,,,,,,53500,2023-07-21_24h23.17.091,vbt_B1_day2,2022.2.4,Win32,60.08171113,53500,,,,,,,,,,,,,,,,,,,,,,,,,,,down,0,0.9384,,0.367592564,-0.118518547,1,0,0,1.0499,0,173,173,8,1,knie,images/br_knie.png,images/cb_knie.png,0,,,,,,,,,,,,,,,,,,,,,,
,,,,,,53500,2023-07-21_24h23.17.091,vbt_B1_day2,2022.2.4,Win32,60.08171113,53500,,,,,,,,,,,,,,,,,,,,,,,,,,,down,0,0.3173,,0.367592564,-0.118518547,1,0,0,0.9499,0,174,174,87,1,toeval,images/br_toeval.png,images/cb_toeval.png,0,,,,,,,,,,,,,,,,,,,,,,
,,,,,,53500,2023-07-21_24h23.17.091,vbt_B1_day2,2022.2.4,Win32,60.08171113,53500,,,,,,,,,,,,,,,,,,,,,,,,,,,down,0,0.6693,,0.367592564,-0.118518547,1,0,0,0.8661,0,175,175,101,1,staren,images/br_staren.png,images/cb_staren.png,0,,,,,,,,,,,,,,,,,,,,,,
,,,,,,53500,2023-07-21_24h23.17.091,vbt_B1_day2,2022.2.4,Win32,60.08171113,53500,,,,,,,,,,,,,,,,,,,,,,,,,,,down,0,1.402,,0.367592564,-0.118518547,1,0,0,1.3659,0,176,176,154,1,aflopen,images/br_aflopen.png,images/cb_aflopen.png,0,,,,,,,,,,,,,,,,,,,,,,
,,,,,,53500,2023-07-21_24h23.17.091,vbt_B1_day2,2022.2.4,Win32,60.08171113,53500,,,,,,,,,,,,,,,,,,,,,,,,,,,down,0,0.5182,,0.367592564,-0.118518547,1,0,0,1.3335,0,177,177,150,1,gegeven,images/br_gegeven.png,images/cb_gegeven.png,0,,,,,,,,,,,,,,,,,,,,,,
,,,,,,53500,2023-07-21_24h23.17.091,vbt_B1_day2,2022.2.4,Win32,60.08171113,53500,,,,,,,,,,,,,,,,,,,,,,,,,,,down,0,17.5848,,0.367592564,-0.118518547,1,0,0,0.65,0,178,178,179,1,woestijn,images/br_woestijn.png,images/cb_woestijn.png,1,woestijn,,,,,,,,,,,,,,,,,,,,,
,,,,,,53500,2023-07-21_24h23.17.091,vbt_B1_day2,2022.2.4,Win32,60.08171113,53500,,,,,,,,,,,,,,,,,,,,,,,,,,,down,0,1.3759,,0.367592564,-0.118518547,1,0,0,1.4327,0,179,179,68,1,schat,images/br_schat.png,images/cb_schat.png,0,,,,,,,,,,,,,,,,,,,,,,
,,,,,,53500,2023-07-21_24h23.17.091,vbt_B1_day2,2022.2.4,Win32,60.08171113,53500,,,,,,,,,,,,,,,,,,,,,,,,,,,down,0,9.7855,,0.367592564,-0.118518547,1,0,0,0.467,0,180,180,56,1,traag,images/br_traag.png,images/cb_traag.png,1,traag,,,,,,,,,,,,,,,,,,,,,
,,,,,,53500,2023-07-21_24h23.17.091,vbt_B1_day2,2022.2.4,Win32,60.08171113,53500,,,,,,,,,,,,,,,,,,,,,,,,,,,down,0,0.0861,,0.367592564,-0.118518547,1,0,0,1.5001,0,181,181,127,1,doodmoe,images/br_doodmoe.png,images/cb_doodmoe.png,0,,,,,,,,,,,,,,,,,,,,,,
,,,,,,53500,2023-07-21_24h23.17.091,vbt_B1_day2,2022.2.4,Win32,60.08171113,53500,,,,,,,,,,,,,,,,,,,,,,,,,,,down,0,1.5015,,0.367592564,-0.118518547,1,0,0,0.6329,0,182,182,91,1,gezond,images/br_gezond.png,images/cb_gezond.png,0,,,,,,,,,,,,,,,,,,,,,,
,,,,,,53500,2023-07-21_24h23.17.091,vbt_B1_day2,2022.2.4,Win32,60.08171113,53500,,,,,,,,,,,,,,,,,,,,,,,,,,,down,0,0.6093,,0.367592564,-0.118518547,1,0,0,0.6836,0,183,183,50,1,stoom,images/br_stoom.png,images/cb_stoom.png,0,,,,,,,,,,,,,,,,,,,,,,
,,,,,,53500,2023-07-21_24h23.17.091,vbt_B1_day2,2022.2.4,Win32,60.08171113,53500,,,,,,,,,,,,,,,,,,,,,,,,,,,down,0,0.7242,,0.367592564,-0.118518547,1,0,0,1.4166,0,184,184,69,1,waken,images/br_waken.png,images/cb_waken.png,0,,,,,,,,,,,,,,,,,,,,,,
,,,,,,53500,2023-07-21_24h23.17.091,vbt_B1_day2,2022.2.4,Win32,60.08171113,53500,,,,,,,,,,,,,,,,,,,,,,,,,,,down,0,0.6168,,0.367592564,-0.118518547,1,0,0,1.4333,0,185,185,159,1,sufferd,images/br_sufferd.png,images/cb_sufferd.png,0,,,,,,,,,,,,,,,,,,,,,,
,,,,,,53500,2023-07-21_24h23.17.091,vbt_B1_day2,2022.2.4,Win32,60.08171113,53500,,,,,,,,,,,,,,,,,,,,,,,,,,,down,0,1.6505,,0.367592564,-0.118518547,1,0,0,1.8499,0,186,186,79,1,nodig,images/br_nodig.png,images/cb_nodig.png,0,,,,,,,,,,,,,,,,,,,,,,
,,,,,,53500,2023-07-21_24h23.17.091,vbt_B1_day2,2022.2.4,Win32,60.08171113,53500,,,,,,,,,,,,,,,,,,,,,,,,,,,down,0,0.5388,,0.367592564,-0.118518547,1,0,0,1.4334,0,187,187,27,1,dans,images/br_dans.png,images/cb_dans.png,0,,,,,,,,,,,,,,,,,,,,,,
,,,,,,53500,2023-07-21_24h23.17.091,vbt_B1_day2,2022.2.4,Win32,60.08171113,53500,,,,,,,,,,,,,,,,,,,,,,,,,,,down,0,0.853,,0.367592564,-0.118518547,1,0,0,0.6663,0,188,188,29,1,baas,images/br_baas.png,images/cb_baas.png,0,,,,,,,,,,,,,,,,,,,,,,
,,,,,,53500,2023-07-21_24h23.17.091,vbt_B1_day2,2022.2.4,Win32,60.08171113,53500,,,,,,,,,,,,,,,,,,,,,,,,,,,down,0,0.269,,0.367592564,-0.118518547,1,0,0,0.5661,0,189,189,45,1,piste,images/br_piste.png,images/cb_piste.png,0,,,,,,,,,,,,,,,,,,,,,,
,,,,,,53500,2023-07-21_24h23.17.091,vbt_B1_day2,2022.2.4,Win32,60.08171113,53500,,,,,,,,,,,,,,,,,,,,,,,,,,,down,0,5.0163,,0.367592564,-0.118518547,1,0,0,0.7666,0,190,190,57,1,steek,images/br_steek.png,images/cb_steek.png,1,steek,,,,,,,,,,,,,,,,,,,,,
,,,,,,53500,2023-07-21_24h23.17.091,vbt_B1_day2,2022.2.4,Win32,60.08171113,53500,,,,,,,,,,,,,,,,,,,,,,,,,,,down,0,1.478,,0.367592564,-0.118518547,1,0,0,0.8837,0,191,191,168,1,bisschop,images/br_bisschop.png,images/cb_bisschop.png,0,,,,,,,,,,,,,,,,,,,,,,
,,,,,,53500,2023-07-21_24h23.17.091,vbt_B1_day2,2022.2.4,Win32,60.08171113,53500,,,,,,,,,,,,,,,,,,,,,,,,,,,down,0,0.3685,,0.367592564,-0.118518547,1,0,0,0.5835,0,192,192,198,1,bedoelen,images/br_bedoelen.png,images/cb_bedoelen.png,0,,,,,,,,,,,,,,,,,,,,,,
,,,,,,53500,2023-07-21_24h23.17.091,vbt_B1_day2,2022.2.4,Win32,60.08171113,53500,,,,,,,,,,,,,,,,,,,,,,,,,,,down,0,0.2893,,0.367592564,-0.118518547,1,0,0,0.6001,0,193,193,116,1,besmet,images/br_besmet.png,images/cb_besmet.png,0,,,,,,,,,,,,,,,,,,,,,,
,,,,,,53500,2023-07-21_24h23.17.091,vbt_B1_day2,2022.2.4,Win32,60.08171113,53500,,,,,,,,,,,,,,,,,,,,,,,,,,,down,0,1.1857,,0.367592564,-0.118518547,1,0,0,0.7001,0,194,194,149,1,redding,images/br_redding.png,images/cb_redding.png,0,,,,,,,,,,,,,,,,,,,,,,
,,,,,,53500,2023-07-21_24h23.17.091,vbt_B1_day2,2022.2.4,Win32,60.08171113,53500,,,,,,,,,,,,,,,,,,,,,,,,,,,down,0,1.0594,,0.367592564,-0.118518547,1,0,0,0.6828,0,195,195,144,1,eetlust,images/br_eetlust.png,images/cb_eetlust.png,0,,,,,,,,,,,,,,,,,,,,,,
,,,,,,53500,2023-07-21_24h23.17.091,vbt_B1_day2,2022.2.4,Win32,60.08171113,53500,,,,,,,,,,,,,,,,,,,,,,,,,,,down,0,1.7503,,0.367592564,-0.118518547,1,0,0,0.5499,0,196,196,189,1,aanraden,images/br_aanraden.png,images/cb_aanraden.png,0,,,,,,,,,,,,,,,,,,,,,,
,,,,,,53500,2023-07-21_24h23.17.091,vbt_B1_day2,2022.2.4,Win32,60.08171113,53500,,,,,,,,,,,,,,,,,,,,,,,,,,,down,0,2.2173,,0.367592564,-0.118518547,1,0,0,0.6997,0,197,197,35,1,lust,images/br_lust.png,images/cb_lust.png,0,,,,,,,,,,,,,,,,,,,,,,
,,,,,,53500,2023-07-21_24h23.17.091,vbt_B1_day2,2022.2.4,Win32,60.08171113,53500,,,,,,,,,,,,,,,,,,,,,,,,,,,down,0,1.0374,,0.367592564,-0.118518547,1,0,0,0.5834,0,198,198,24,1,jurk,images/br_jurk.png,images/cb_jurk.png,0,,,,,,,,,,,,,,,,,,,,,,
,,,,,,53500,2023-07-21_24h23.17.091,vbt_B1_day2,2022.2.4,Win32,60.08171113,53500,,,,,,,,,,,,,,,,,,,,,,,,,,,down,0,8.274,,0.368518547,-0.121296282,1,0,0,0.5327,0,199,199,16,1,ziek,images/br_ziek.png,images/cb_ziek.png,1,ziek,,,,,,,,,,,,,,,,,,,,,
,,,,,,53500,2023-07-21_24h23.17.091,vbt_B1_day2,2022.2.4,Win32,60.08171113,53500,,,,,,,,,,,,,,,,,,,,,,,,,,,,,,,,,,,,,,,,,,,,,,,0.368518547,-0.121296282,1,0,0,,,,,,,,,,,,,,,,
,,,,,,53500,2023-07-21_24h23.17.091,vbt_B1_day2,2022.2.4,Win32,60.08171113,53500,,,,,,,,,,,,,,,,,,,,,,,,,,,,,,,,,,,,,,,,,,,,,,,,,,,,0.368518547,-0.121296282,1,0,0,,,,,,,,,,,
,,,,,,53500,2023-07-21_24h23.17.091,vbt_B1_day2,2022.2.4,Win32,60.08171113,53500,,,,,,,,,,,,,,,,,,,,,,,,,,,,,,,,,,,,,,,,,,sjijfel,images/br_sjijfel.png,images/cb_sjijfel.png,,sj....,,,,,,,,,,,0.368518547,-0.121296282,1,0,0,sj....,0,0,0,33,1
,,,,,,53500,2023-07-21_24h23.17.091,vbt_B1_day2,2022.2.4,Win32,60.08171113,53500,,,,,,,,,,,,,,,,,,,,,,,,,,,,,,,,,,,,,,,,,,geld,images/br_geld.png,images/cb_geld.png,,....,,,,,,,,,,,0.241666653,-0.300925926,1,0,0,....,0,1,1,3,1
,,,,,,53500,2023-07-21_24h23.17.091,vbt_B1_day2,2022.2.4,Win32,60.08171113,53500,,,,,,,,,,,,,,,,,,,,,,,,,,,,,,,,,,,,,,,,,,remel,images/br_remel.png,images/cb_remel.png,,regel,,,,,,,,,,,0.241666653,-0.300925926,1,0,0,regel,0,2,2,25,1
,,,,,,53500,2023-07-21_24h23.17.091,vbt_B1_day2,2022.2.4,Win32,60.08171113,53500,,,,,,,,,,,,,,,,,,,,,,,,,,,,,,,,,,,,,,,,,,kijlen,images/br_kijlen.png,images/cb_kijlen.png,,ki.len,,,,,,,,,,,0.410185213,-0.222222222,1,0,0,ki.len,0,3,3,31,1
,,,,,,53500,2023-07-21_24h23.17.091,vbt_B1_day2,2022.2.4,Win32,60.08171113,53500,,,,,,,,,,,,,,,,,,,,,,,,,,,,,,,,,,,,,,,,,,goon,images/br_goon.png,images/cb_goon.png,,.oon,,,,,,,,,,,0.589814787,0.1175926,1,0,0,.oon,0,4,4,23,1
,,,,,,53500,2023-07-21_24h23.17.091,vbt_B1_day2,2022.2.4,Win32,60.08171113,53500,,,,,,,,,,,,,,,,,,,,,,,,,,,,,,,,,,,,,,,,,,sifferd,images/br_sifferd.png,images/cb_sifferd.png,,siffe..,,,,,,,,,,,0.432407379,0.005555541,1,0,0,siffe..,0,5,5,32,1
,,,,,,53500,2023-07-21_24h23.17.091,vbt_B1_day2,2022.2.4,Win32,60.08171113,53500,,,,,,,,,,,,,,,,,,,,,,,,,,,,,,,,,,,,,,,,,,strikken,images/br_strikken.png,images/cb_strikken.png,,strikken,,,,,,,,,,,0.428703732,-0.106481481,1,0,0,strikken,0,6,6,18,1
,,,,,,53500,2023-07-21_24h23.17.091,vbt_B1_day2,2022.2.4,Win32,60.08171113,53500,,,,,,,,,,,,,,,,,,,,,,,,,,,,,,,,,,,,,,,,,,heilig,images/br_heilig.png,images/cb_heilig.png,,heilig,,,,,,,,,,,0.425925926,-0.122222265,1,0,0,heilig,0,7,7,9,1
,,,,,,53500,2023-07-21_24h23.17.091,vbt_B1_day2,2022.2.4,Win32,60.08171113,53500,,,,,,,,,,,,,,,,,,,,,,,,,,,,,,,,,,,,,,,,,,ningen,images/br_ningen.png,images/cb_ningen.png,,ninge.,,,,,,,,,,,0.425925926,-0.122222265,1,0,0,ninge.,0,8,8,28,1
,,,,,,53500,2023-07-21_24h23.17.091,vbt_B1_day2,2022.2.4,Win32,60.08171113,53500,,,,,,,,,,,,,,,,,,,,,,,,,,,,,,,,,,,,,,,,,,inzicht,images/br_inzicht.png,images/cb_inzicht.png,,in.icht,,,,,,,,,,,-0.006481453,-0.202777792,1,0,0,in.icht,0,9,9,53,1
,,,,,,53500,2023-07-21_24h23.17.091,vbt_B1_day2,2022.2.4,Win32,60.08171113,53500,,,,,,,,,,,,,,,,,,,,,,,,,,,,,,,,,,,,,,,,,,kabel,images/br_kabel.png,images/cb_kabel.png,,kabel,,,,,,,,,,,0.424074102,-0.101851852,1,0,0,kabel,0,10,10,7,1
,,,,,,53500,2023-07-21_24h23.17.091,vbt_B1_day2,2022.2.4,Win32,60.08171113,53500,,,,,,,,,,,,,,,,,,,,,,,,,,,,,,,,,,,,,,,,,,lijnen,images/br_lijnen.png,images/cb_lijnen.png,,lijnen,,,,,,,,,,,0.425000085,-0.061111132,1,0,0,lijnen,0,11,11,51,1
,,,,,,53500,2023-07-21_24h23.17.091,vbt_B1_day2,2022.2.4,Win32,60.08171113,53500,,,,,,,,,,,,,,,,,,,,,,,,,,,,,,,,,,,,,,,,,,koorts,images/br_koorts.png,images/cb_koorts.png,,koort.,,,,,,,,,,,0.432407379,-0.180555556,1,0,0,koort.,0,12,12,50,1
,,,,,,53500,2023-07-21_24h23.17.091,vbt_B1_day2,2022.2.4,Win32,60.08171113,53500,,,,,,,,,,,,,,,,,,,,,,,,,,,,,,,,,,,,,,,,,,toeval,images/br_toeval.png,images/cb_toeval.png,,toeval,,,,,,,,,,,0.432407379,-0.180555556,1,0,0,toeval,0,13,13,11,1
,,,,,,53500,2023-07-21_24h23.17.091,vbt_B1_day2,2022.2.4,Win32,60.08171113,53500,,,,,,,,,,,,,,,,,,,,,,,,,,,,,,,,,,,,,,,,,,jagen,images/br_jagen.png,images/cb_jagen.png,,.age.,,,,,,,,,,,0.431481538,-0.178703732,1,0,0,.age.,0,14,14,6,1
,,,,,,53500,2023-07-21_24h23.17.091,vbt_B1_day2,2022.2.4,Win32,60.08171113,53500,,,,,,,,,,,,,,,,,,,,,,,,,,,,,,,,,,,,,,,,,,bereuwen,images/br_bereuwen.png,images/cb_bereuwen.png,,bere.we.,,,,,,,,,,,0.472222222,-0.052777785,1,0,0,bere.we.,0,15,15,39,1
,,,,,,53500,2023-07-21_24h23.17.091,vbt_B1_day2,2022.2.4,Win32,60.08171113,53500,,,,,,,,,,,,,,,,,,,,,,,,,,,,,,,,,,,,,,,,,,moes,images/br_moes.png,images/cb_moes.png,,moe.,,,,,,,,,,,0.472222222,-0.052777785,1,0,0,moe.,0,16,16,0,1
,,,,,,53500,2023-07-21_24h23.17.091,vbt_B1_day2,2022.2.4,Win32,60.08171113,53500,,,,,,,,,,,,,,,,,,,,,,,,,,,,,,,,,,,,,,,,,,bloeien,images/br_bloeien.png,images/cb_bloeien.png,,bloeien,,,,,,,,,,,0.470370399,-0.059259273,1,0,0,bloeien,0,17,17,12,1
,,,,,,53500,2023-07-21_24h23.17.091,vbt_B1_day2,2022.2.4,Win32,60.08171113,53500,,,,,,,,,,,,,,,,,,,,,,,,,,,,,,,,,,,,,,,,,,zegel,images/br_zegel.png,images/cb_zegel.png,,.gel,,,,,,,,,,,0.471296381,-0.046296296,1,0,0,.gel,0,18,18,46,1
,,,,,,53500,2023-07-21_24h23.17.091,vbt_B1_day2,2022.2.4,Win32,60.08171113,53500,,,,,,,,,,,,,,,,,,,,,,,,,,,,,,,,,,,,,,,,,,aanvraag,images/br_aanvraag.png,images/cb_aanvraag.png,,aanvraag,,,,,,,,,,,0.471296381,-0.046296296,1,0,0,aanvraag,0,19,19,57,1
,,,,,,53500,2023-07-21_24h23.17.091,vbt_B1_day2,2022.2.4,Win32,60.08171113,53500,,,,,,,,,,,,,,,,,,,,,,,,,,,,,,,,,,,,,,,,,,ophuimen,images/br_ophuimen.png,images/cb_ophuimen.png,,op.,,,,,,,,,,,0.471296381,-0.046296296,1,0,0,op.,0,20,20,36,1
,,,,,,53500,2023-07-21_24h23.17.091,vbt_B1_day2,2022.2.4,Win32,60.08171113,53500,,,,,,,,,,,,,,,,,,,,,,,,,,,,,,,,,,,,,,,,,,anarchie,images/br_anarchie.png,images/cb_anarchie.png,,anarchie,,,,,,,,,,,0.469444416,-0.050000014,1,0,0,anarchie,0,21,21,16,1
,,,,,,53500,2023-07-21_24h23.17.091,vbt_B1_day2,2022.2.4,Win32,60.08171113,53500,,,,,,,,,,,,,,,,,,,,,,,,,,,,,,,,,,,,,,,,,,heengeen,images/br_heengeen.png,images/cb_heengeen.png,,.eengeen,,,,,,,,,,,0.568518603,0.052777785,1,0,0,.eengeen,0,22,22,38,1
,,,,,,53500,2023-07-21_24h23.17.091,vbt_B1_day2,2022.2.4,Win32,60.08171113,53500,,,,,,,,,,,,,,,,,,,,,,,,,,,,,,,,,,,,,,,,,,trots,images/br_trots.png,images/cb_trots.png,,trot$.,,,,,,,,,,,0.764814871,0.085185192,1,0,0,trot$.,0,23,23,44,1
,,,,,,53500,2023-07-21_24h23.17.091,vbt_B1_day2,2022.2.4,Win32,60.08171113,53500,,,,,,,,,,,,,,,,,,,,,,,,,,,,,,,,,,,,,,,,,,stes,images/br_stes.png,images/cb_stes.png,,ster,,,,,,,,,,,0.36018527,-0.106481481,1,0,0,ster,0,24,24,21,1
,,,,,,53500,2023-07-21_24h23.17.091,vbt_B1_day2,2022.2.4,Win32,60.08171113,53500,,,,,,,,,,,,,,,,,,,,,,,,,,,,,,,,,,,,,,,,,,plannen,images/br_plannen.png,images/cb_plannen.png,,plannen,,,,,,,,,,,0.350000028,-0.106481481,1,0,0,plannen,0,25,25,55,1
,,,,,,53500,2023-07-21_24h23.17.091,vbt_B1_day2,2022.2.4,Win32,60.08171113,53500,,,,,,,,,,,,,,,,,,,,,,,,,,,,,,,,,,,,,,,,,,sora,images/br_sora.png,images/cb_sora.png,,sora,,,,,,,,,,,0.437962991,-0.124074088,1,0,0,sora,0,26,26,22,1
,,,,,,53500,2023-07-21_24h23.17.091,vbt_B1_day2,2022.2.4,Win32,60.08171113,53500,,,,,,,,,,,,,,,,,,,,,,,,,,,,,,,,,,,,,,,,,,dode,images/br_dode.png,images/cb_dode.png,,.,,,,,,,,,,,0.437962991,-0.119444459,1,0,0,.,0,27,27,41,1
,,,,,,53500,2023-07-21_24h23.17.091,vbt_B1_day2,2022.2.4,Win32,60.08171113,53500,,,,,,,,,,,,,,,,,,,,,,,,,,,,,,,,,,,,,,,,,,thema,images/br_thema.png,images/cb_thema.png,,.,,,,,,,,,,,0.437962991,-0.119444459,1,0,0,.,0,28,28,47,1
,,,,,,53500,2023-07-21_24h23.17.091,vbt_B1_day2,2022.2.4,Win32,60.08171113,53500,,,,,,,,,,,,,,,,,,,,,,,,,,,,,,,,,,,,,,,,,,aanzien,images/br_aanzien.png,images/cb_aanzien.png,,aanzien,,,,,,,,,,,0.449074074,-0.113888917,1,0,0,aanzien,0,29,29,13,1
,,,,,,53500,2023-07-21_24h23.17.091,vbt_B1_day2,2022.2.4,Win32,60.08171113,53500,,,,,,,,,,,,,,,,,,,,,,,,,,,,,,,,,,,,,,,,,,woning,images/br_woning.png,images/cb_woning.png,,woning,,,,,,,,,,,0.67777775,0.039814808,1,0,0,woning,0,30,30,10,1
,,,,,,53500,2023-07-21_24h23.17.091,vbt_B1_day2,2022.2.4,Win32,60.08171113,53500,,,,,,,,,,,,,,,,,,,,,,,,,,,,,,,,,,,,,,,,,,krimmen,images/br_krimmen.png,images/cb_krimmen.png,,bre.,,,,,,,,,,,0.54351849,-0.005555577,1,0,0,bre.,0,31,31,35,1
,,,,,,53500,2023-07-21_24h23.17.091,vbt_B1_day2,2022.2.4,Win32,60.08171113,53500,,,,,,,,,,,,,,,,,,,,,,,,,,,,,,,,,,,,,,,,,,tand,images/br_tand.png,images/cb_tand.png,,ta.d,,,,,,,,,,,0.296296296,0.10833334,1,0,0,ta.d,0,32,32,42,1
,,,,,,53500,2023-07-21_24h23.17.091,vbt_B1_day2,2022.2.4,Win32,60.08171113,53500,,,,,,,,,,,,,,,,,,,,,,,,,,,,,,,,,,,,,,,,,,prekken,images/br_prekken.png,images/cb_prekken.png,,prekken,,,,,,,,,,,0.296296296,0.107407393,1,0,0,prekken,0,33,33,34,1
,,,,,,53500,2023-07-21_24h23.17.091,vbt_B1_day2,2022.2.4,Win32,60.08171113,53500,,,,,,,,,,,,,,,,,,,,,,,,,,,,,,,,,,,,,,,,,,manieren,images/br_manieren.png,images/cb_manieren.png,,.,,,,,,,,,,,0.215740769,-0.165740755,1,0,0,.,0,34,34,56,1
,,,,,,53500,2023-07-21_24h23.17.091,vbt_B1_day2,2022.2.4,Win32,60.08171113,53500,,,,,,,,,,,,,,,,,,,,,,,,,,,,,,,,,,,,,,,,,,kasteel,images/br_kasteel.png,images/cb_kasteel.png,,kasteel,,,,,,,,,,,0.425000085,0.158333319,1,0,0,kasteel,0,35,35,14,1
,,,,,,53500,2023-07-21_24h23.17.091,vbt_B1_day2,2022.2.4,Win32,60.08171113,53500,,,,,,,,,,,,,,,,,,,,,,,,,,,,,,,,,,,,,,,,,,wijve,images/br_wijve.png,images/cb_wijve.png,,wijze,,,,,,,,,,,0.446296268,0.158333319,1,0,0,wijze,0,36,36,27,1
,,,,,,53500,2023-07-21_24h23.17.091,vbt_B1_day2,2022.2.4,Win32,60.08171113,53500,,,,,,,,,,,,,,,,,,,,,,,,,,,,,,,,,,,,,,,,,,joes,images/br_joes.png,images/cb_joes.png,,joe.,,,,,,,,,,,0.440740797,0.14444443,1,0,0,joe.,0,37,37,20,1
,,,,,,53500,2023-07-21_24h23.17.091,vbt_B1_day2,2022.2.4,Win32,60.08171113,53500,,,,,,,,,,,,,,,,,,,,,,,,,,,,,,,,,,,,,,,,,,systeem,images/br_systeem.png,images/cb_systeem.png,,.,,,,,,,,,,,0.256481524,-0.001851859,1,0,0,.,0,38,38,54,1
,,,,,,53500,2023-07-21_24h23.17.091,vbt_B1_day2,2022.2.4,Win32,60.08171113,53500,,,,,,,,,,,,,,,,,,,,,,,,,,,,,,,,,,,,,,,,,,lurgen,images/br_lurgen.png,images/cb_lurgen.png,,.,,,,,,,,,,,0.256481524,-0.003703718,1,0,0,.,0,39,39,29,1
,,,,,,53500,2023-07-21_24h23.17.091,vbt_B1_day2,2022.2.4,Win32,60.08171113,53500,,,,,,,,,,,,,,,,,,,,,,,,,,,,,,,,,,,,,,,,,,welzijn,images/br_welzijn.png,images/cb_welzijn.png,,,,,,,,,,,,,-0.09629631,-0.216666681,1,0,0,,0,40,40,52,1
,,,,,,53500,2023-07-21_24h23.17.091,vbt_B1_day2,2022.2.4,Win32,60.08171113,53500,,,,,,,,,,,,,,,,,,,,,,,,,,,,,,,,,,,,,,,,,,lokken,images/br_lokken.png,images/cb_lokken.png,,welzijn,,,,,,,,,,,0.550925926,0.274074078,1,0,0,welzijn,0,41,41,8,1
,,,,,,53500,2023-07-21_24h23.17.091,vbt_B1_day2,2022.2.4,Win32,60.08171113,53500,,,,,,,,,,,,,,,,,,,,,,,,,,,,,,,,,,,,,,,,,,breuk,images/br_breuk.png,images/cb_breuk.png,,bre.k,,,,,,,,,,,0.517592677,0.1175926,1,0,0,bre.k,0,42,42,45,1
,,,,,,53500,2023-07-21_24h23.17.091,vbt_B1_day2,2022.2.4,Win32,60.08171113,53500,,,,,,,,,,,,,,,,,,,,,,,,,,,,,,,,,,,,,,,,,,opdatten,images/br_opdatten.png,images/cb_opdatten.png,,op.,,,,,,,,,,,0.517592677,0.1175926,1,0,0,op.,0,43,43,37,1
,,,,,,53500,2023-07-21_24h23.17.091,vbt_B1_day2,2022.2.4,Win32,60.08171113,53500,,,,,,,,,,,,,,,,,,,,,,,,,,,,,,,,,,,,,,,,,,clan,images/br_clan.png,images/cb_clan.png,,clan,,,,,,,,,,,0.48518527,0.091666645,1,0,0,clan,0,44,44,40,1
,,,,,,53500,2023-07-21_24h23.17.091,vbt_B1_day2,2022.2.4,Win32,60.08171113,53500,,,,,,,,,,,,,,,,,,,,,,,,,,,,,,,,,,,,,,,,,,agressie,images/br_agressie.png,images/cb_agressie.png,,agre.,,,,,,,,,,,0.48518527,0.091666645,1,0,0,agre.,0,45,45,59,1
,,,,,,53500,2023-07-21_24h23.17.091,vbt_B1_day2,2022.2.4,Win32,60.08171113,53500,,,,,,,,,,,,,,,,,,,,,,,,,,,,,,,,,,,,,,,,,,jong,images/br_jong.png,images/cb_jong.png,,jo.g,,,,,,,,,,,0.48518527,0.091666645,1,0,0,jo.g,0,46,46,43,1
,,,,,,53500,2023-07-21_24h23.17.091,vbt_B1_day2,2022.2.4,Win32,60.08171113,53500,,,,,,,,,,,,,,,,,,,,,,,,,,,,,,,,,,,,,,,,,,tweeling,images/br_tweeling.png,images/cb_tweeling.png,,tweeling,,,,,,,,,,,0.275000042,-0.044444437,1,0,0,tweeling,0,47,47,58,1
,,,,,,53500,2023-07-21_24h23.17.091,vbt_B1_day2,2022.2.4,Win32,60.08171113,53500,,,,,,,,,,,,,,,,,,,,,,,,,,,,,,,,,,,,,,,,,,badon,images/br_badon.png,images/cb_badon.png,,.,,,,,,,,,,,0.376851824,-0.000925947,1,0,0,.,0,48,48,26,1
,,,,,,53500,2023-07-21_24h23.17.091,vbt_B1_day2,2022.2.4,Win32,60.08171113,53500,,,,,,,,,,,,,,,,,,,,,,,,,,,,,,,,,,,,,,,,,,diep,images/br_diep.png,images/cb_diep.png,,dief,,,,,,,,,,,0.376851824,-0.000925947,1,0,0,dief,0,49,49,2,1
,,,,,,53500,2023-07-21_24h23.17.091,vbt_B1_day2,2022.2.4,Win32,60.08171113,53500,,,,,,,,,,,,,,,,,,,,,,,,,,,,,,,,,,,,,,,,,,negel,images/br_negel.png,images/cb_negel.png,,negel,,,,,,,,,,,-0.02407406,-0.199074074,1,0,0,negel,0,50,50,24,1
,,,,,,53500,2023-07-21_24h23.17.091,vbt_B1_day2,2022.2.4,Win32,60.08171113,53500,,,,,,,,,,,,,,,,,,,,,,,,,,,,,,,,,,,,,,,,,,zomers,images/br_zomers.png,images/cb_zomers.png,,.,,,,,,,,,,,0.279629672,0.006481489,1,0,0,.,0,51,51,48,1
,,,,,,53500,2023-07-21_24h23.17.091,vbt_B1_day2,2022.2.4,Win32,60.08171113,53500,,,,,,,,,,,,,,,,,,,,,,,,,,,,,,,,,,,,,,,,,,feestdag,images/br_feestdag.png,images/cb_feestdag.png,,feestdag,,,,,,,,,,,0.465740769,-0.048148155,1,0,0,feestdag,0,52,52,17,1
,,,,,,53500,2023-07-21_24h23.17.091,vbt_B1_day2,2022.2.4,Win32,60.08171113,53500,,,,,,,,,,,,,,,,,,,,,,,,,,,,,,,,,,,,,,,,,,blad,images/br_blad.png,images/cb_blad.png,,blad,,,,,,,,,,,0.467592593,-0.067592586,1,0,0,blad,0,53,53,1,1
,,,,,,53500,2023-07-21_24h23.17.091,vbt_B1_day2,2022.2.4,Win32,60.08171113,53500,,,,,,,,,,,,,,,,,,,,,,,,,,,,,,,,,,,,,,,,,,eenhoorn,images/br_eenhoorn.png,images/cb_eenhoorn.png,,.,,,,,,,,,,,0.467592593,-0.067592586,1,0,0,.,0,54,54,19,1
,,,,,,53500,2023-07-21_24h23.17.091,vbt_B1_day2,2022.2.4,Win32,60.08171113,53500,,,,,,,,,,,,,,,,,,,,,,,,,,,,,,,,,,,,,,,,,,kenzis,images/br_kenzis.png,images/cb_kenzis.png,,kennis,,,,,,,,,,,0.513888889,0.037037037,1,0,0,kennis,0,55,55,30,1
,,,,,,53500,2023-07-21_24h23.17.091,vbt_B1_day2,2022.2.4,Win32,60.08171113,53500,,,,,,,,,,,,,,,,,,,,,,,,,,,,,,,,,,,,,,,,,,flits,images/br_flits.png,images/cb_flits.png,,flits,,,,,,,,,,,0.513888889,0.037037037,1,0,0,flits,0,56,56,4,1
,,,,,,53500,2023-07-21_24h23.17.091,vbt_B1_day2,2022.2.4,Win32,60.08171113,53500,,,,,,,,,,,,,,,,,,,,,,,,,,,,,,,,,,,,,,,,,,zwager,images/br_zwager.png,images/cb_zwager.png,,zwager,,,,,,,,,,,0.513888889,0.037037037,1,0,0,zwager,0,57,57,49,1
,,,,,,53500,2023-07-21_24h23.17.091,vbt_B1_day2,2022.2.4,Win32,60.08171113,53500,,,,,,,,,,,,,,,,,,,,,,,,,,,,,,,,,,,,,,,,,,doodmoe,images/br_doodmoe.png,images/cb_doodmoe.png,,.,,,,,,,,,,,0.559259344,0.182407414,1,0,0,.,0,58,58,15,1
,,,,,,53500,2023-07-21_24h23.17.091,vbt_B1_day2,2022.2.4,Win32,60.08171113,53500,,,,,,,,,,,,,,,,,,,,,,,,,,,,,,,,,,,,,,,,,,piste,images/br_piste.png,images/cb_piste.png,,.,,,,,,,,,,,-0.295370384,-0.272222236,1,0,0,.,0,59,59,5,1
,,,,,,53500,2023-07-21_24h23.17.091,vbt_B1_day2,2022.2.4,Win32,60.08171113,53500,,,,,,,,,,,,,,,,,,,,,,,,,,,,,,,,,,,,,,,,,,,,,,,,,,,,,,,,,,,,,,,,,,,
