welcome_mouse.x,welcome_mouse.y,welcome_mouse.leftButton,welcome_mouse.midButton,welcome_mouse.rightButton,welcome_mouse.time,"ID",date,expName,psychopyVersion,OS,frameRate,participant,refresh_mouse.x,refresh_mouse.y,refresh_mouse.leftButton,refresh_mouse.midButton,refresh_mouse.rightButton,refresh_mouse.time,braille_mouse.x,braille_mouse.y,braille_mouse.leftButton,braille_mouse.midButton,braille_mouse.rightButton,braille_mouse.time,trials.thisRepN,trials.thisTrialN,trials.thisN,trials.thisIndex,trials.ran,nlLet,brLet,cbLet,trainInstr_mouse.x,trainInstr_mouse.y,trainInstr_mouse.leftButton,trainInstr_mouse.midButton,trainInstr_mouse.rightButton,trainInstr_mouse.time,translation_key.keys,translation_key.corr,translation_key.rt,word_rsp.text,word_mouse.x,word_mouse.y,word_mouse.leftButton,word_mouse.midButton,word_mouse.rightButton,word_mouse.time,train_loop.thisRepN,train_loop.thisTrialN,train_loop.thisN,train_loop.thisIndex,train_loop.ran,nlWrd,brWrd,cbWrd,test,testResp,mouse.x,mouse.y,mouse.leftButton,mouse.midButton,mouse.rightButton,testInstr_mouse.x,testInstr_mouse.y,testInstr_mouse.leftButton,testInstr_mouse.midButton,testInstr_mouse.rightButton,test_mouse.x,test_mouse.y,test_mouse.leftButton,test_mouse.midButton,test_mouse.rightButton,test_response.text,test_loop.thisRepN,test_loop.thisTrialN,test_loop.thisN,test_loop.thisIndex,test_loop.ran
-0.57,-0.103333333,1,0,0,13.454,,2023-09-26_08h55.50.291,vbt_B1_day2,2022.2.4,MacIntel,61.05006105,55918,,,,,,,,,,,,,,,,,,,,,,,,,,,,,,,,,,,,,,,,,,,,,,,,,,,,,,,,,,,,,,,,,,,
,,,,,,,2023-09-26_08h55.50.291,vbt_B1_day2,2022.2.4,MacIntel,61.05006105,55918,-0.603333333,-0.142222222,1,0,0,20.423,,,,,,,,,,,,,,,,,,,,,,,,,,,,,,,,,,,,,,,,,,,,,,,,,,,,,,,,,,,,,
,,,,,,,2023-09-26_08h55.50.291,vbt_B1_day2,2022.2.4,MacIntel,61.05006105,55918,,,,,,,-0.603333333,-0.145555556,1,0,0,0.533,0,0,0,23,1,x,images/br_x.png,images/cb_x.png,,,,,,,,,,,,,,,,,,,,,,,,,,,,,,,,,,,,,,,,,,,,,,,
,,,,,,,2023-09-26_08h55.50.291,vbt_B1_day2,2022.2.4,MacIntel,61.05006105,55918,,,,,,,-0.297777778,-0.013333333,1,0,0,1.301,0,1,1,22,1,w,images/br_w.png,images/cb_w.png,,,,,,,,,,,,,,,,,,,,,,,,,,,,,,,,,,,,,,,,,,,,,,,
,,,,,,,2023-09-26_08h55.50.291,vbt_B1_day2,2022.2.4,MacIntel,61.05006105,55918,,,,,,,-0.288888889,0.02,1,0,0,0.732,0,2,2,9,1,j,images/br_j.png,images/cb_j.png,,,,,,,,,,,,,,,,,,,,,,,,,,,,,,,,,,,,,,,,,,,,,,,
,,,,,,,2023-09-26_08h55.50.291,vbt_B1_day2,2022.2.4,MacIntel,61.05006105,55918,,,,,,,-0.287777778,0.02,1,0,0,0.017,0,3,3,19,1,t,images/br_t.png,images/cb_t.png,,,,,,,,,,,,,,,,,,,,,,,,,,,,,,,,,,,,,,,,,,,,,,,
,,,,,,,2023-09-26_08h55.50.291,vbt_B1_day2,2022.2.4,MacIntel,61.05006105,55918,,,,,,,-0.29,0.023333333,1,0,0,0.183,0,4,4,7,1,h,images/br_h.png,images/cb_h.png,,,,,,,,,,,,,,,,,,,,,,,,,,,,,,,,,,,,,,,,,,,,,,,
,,,,,,,2023-09-26_08h55.50.291,vbt_B1_day2,2022.2.4,MacIntel,61.05006105,55918,,,,,,,-0.29,0.023333333,1,0,0,0.767,0,5,5,24,1,y,images/br_y.png,images/cb_y.png,,,,,,,,,,,,,,,,,,,,,,,,,,,,,,,,,,,,,,,,,,,,,,,
,,,,,,,2023-09-26_08h55.50.291,vbt_B1_day2,2022.2.4,MacIntel,61.05006105,55918,,,,,,,-0.29,0.022222222,1,0,0,0.434,0,6,6,6,1,g,images/br_g.png,images/cb_g.png,,,,,,,,,,,,,,,,,,,,,,,,,,,,,,,,,,,,,,,,,,,,,,,
,,,,,,,2023-09-26_08h55.50.291,vbt_B1_day2,2022.2.4,MacIntel,61.05006105,55918,,,,,,,-0.29,0.023333333,1,0,0,0.533,0,7,7,13,1,n,images/br_n.png,images/cb_n.png,,,,,,,,,,,,,,,,,,,,,,,,,,,,,,,,,,,,,,,,,,,,,,,
,,,,,,,2023-09-26_08h55.50.291,vbt_B1_day2,2022.2.4,MacIntel,61.05006105,55918,,,,,,,-0.29,0.022222222,1,0,0,1.383,0,8,8,1,1,b,images/br_b.png,images/cb_b.png,,,,,,,,,,,,,,,,,,,,,,,,,,,,,,,,,,,,,,,,,,,,,,,
,,,,,,,2023-09-26_08h55.50.291,vbt_B1_day2,2022.2.4,MacIntel,61.05006105,55918,,,,,,,-0.225555556,0.036666667,1,0,0,0.516,0,9,9,18,1,s,images/br_s.png,images/cb_s.png,,,,,,,,,,,,,,,,,,,,,,,,,,,,,,,,,,,,,,,,,,,,,,,
,,,,,,,2023-09-26_08h55.50.291,vbt_B1_day2,2022.2.4,MacIntel,61.05006105,55918,,,,,,,-0.227777778,0.036666667,1,0,0,0.383,0,10,10,2,1,c,images/br_c.png,images/cb_c.png,,,,,,,,,,,,,,,,,,,,,,,,,,,,,,,,,,,,,,,,,,,,,,,
,,,,,,,2023-09-26_08h55.50.291,vbt_B1_day2,2022.2.4,MacIntel,61.05006105,55918,,,,,,,-0.228888889,0.036666667,1,0,0,0.299,0,11,11,17,1,r,images/br_r.png,images/cb_r.png,,,,,,,,,,,,,,,,,,,,,,,,,,,,,,,,,,,,,,,,,,,,,,,
,,,,,,,2023-09-26_08h55.50.291,vbt_B1_day2,2022.2.4,MacIntel,61.05006105,55918,,,,,,,-0.228888889,0.036666667,1,0,0,1.216,0,12,12,0,1,a,images/br_a.png,images/cb_a.png,,,,,,,,,,,,,,,,,,,,,,,,,,,,,,,,,,,,,,,,,,,,,,,
,,,,,,,2023-09-26_08h55.50.291,vbt_B1_day2,2022.2.4,MacIntel,61.05006105,55918,,,,,,,-0.231111111,0.035555556,1,0,0,3.967,0,13,13,16,1,q,images/br_q.png,images/cb_q.png,,,,,,,,,,,,,,,,,,,,,,,,,,,,,,,,,,,,,,,,,,,,,,,
,,,,,,,2023-09-26_08h55.50.291,vbt_B1_day2,2022.2.4,MacIntel,61.05006105,55918,,,,,,,-0.231111111,0.036666667,1,0,0,0.902,0,14,14,4,1,e,images/br_e.png,images/cb_e.png,,,,,,,,,,,,,,,,,,,,,,,,,,,,,,,,,,,,,,,,,,,,,,,
,,,,,,,2023-09-26_08h55.50.291,vbt_B1_day2,2022.2.4,MacIntel,61.05006105,55918,,,,,,,-0.231111111,0.038888889,1,0,0,6.934,0,15,15,5,1,f,images/br_f.png,images/cb_f.png,,,,,,,,,,,,,,,,,,,,,,,,,,,,,,,,,,,,,,,,,,,,,,,
,,,,,,,2023-09-26_08h55.50.291,vbt_B1_day2,2022.2.4,MacIntel,61.05006105,55918,,,,,,,-0.243333333,0.035555556,1,0,0,0.483,0,16,16,12,1,m,images/br_m.png,images/cb_m.png,,,,,,,,,,,,,,,,,,,,,,,,,,,,,,,,,,,,,,,,,,,,,,,
,,,,,,,2023-09-26_08h55.50.291,vbt_B1_day2,2022.2.4,MacIntel,61.05006105,55918,,,,,,,-0.244444444,0.034444444,1,0,0,0.466,0,17,17,10,1,k,images/br_k.png,images/cb_k.png,,,,,,,,,,,,,,,,,,,,,,,,,,,,,,,,,,,,,,,,,,,,,,,
,,,,,,,2023-09-26_08h55.50.291,vbt_B1_day2,2022.2.4,MacIntel,61.05006105,55918,,,,,,,-0.25,0.035555556,1,0,0,0.101,0,18,18,20,1,u,images/br_u.png,images/cb_u.png,,,,,,,,,,,,,,,,,,,,,,,,,,,,,,,,,,,,,,,,,,,,,,,
,,,,,,,2023-09-26_08h55.50.291,vbt_B1_day2,2022.2.4,MacIntel,61.05006105,55918,,,,,,,-0.248888889,0.031111111,1,0,0,0.484,0,19,19,3,1,d,images/br_d.png,images/cb_d.png,,,,,,,,,,,,,,,,,,,,,,,,,,,,,,,,,,,,,,,,,,,,,,,
,,,,,,,2023-09-26_08h55.50.291,vbt_B1_day2,2022.2.4,MacIntel,61.05006105,55918,,,,,,,-0.248888889,0.035555556,1,0,0,0.05,0,20,20,25,1,z,images/br_z.png,images/cb_z.png,,,,,,,,,,,,,,,,,,,,,,,,,,,,,,,,,,,,,,,,,,,,,,,
,,,,,,,2023-09-26_08h55.50.291,vbt_B1_day2,2022.2.4,MacIntel,61.05006105,55918,,,,,,,-0.25,0.036666667,1,0,0,0.582,0,21,21,15,1,p,images/br_p.png,images/cb_p.png,,,,,,,,,,,,,,,,,,,,,,,,,,,,,,,,,,,,,,,,,,,,,,,
,,,,,,,2023-09-26_08h55.50.291,vbt_B1_day2,2022.2.4,MacIntel,61.05006105,55918,,,,,,,-0.25,0.036666667,1,0,0,0.35,0,22,22,11,1,l,images/br_l.png,images/cb_l.png,,,,,,,,,,,,,,,,,,,,,,,,,,,,,,,,,,,,,,,,,,,,,,,
,,,,,,,2023-09-26_08h55.50.291,vbt_B1_day2,2022.2.4,MacIntel,61.05006105,55918,,,,,,,-0.251111111,0.036666667,1,0,0,0.651,0,23,23,14,1,o,images/br_o.png,images/cb_o.png,,,,,,,,,,,,,,,,,,,,,,,,,,,,,,,,,,,,,,,,,,,,,,,
,,,,,,,2023-09-26_08h55.50.291,vbt_B1_day2,2022.2.4,MacIntel,61.05006105,55918,,,,,,,-0.25,0.036666667,1,0,0,0.6,0,24,24,21,1,v,images/br_v.png,images/cb_v.png,,,,,,,,,,,,,,,,,,,,,,,,,,,,,,,,,,,,,,,,,,,,,,,
,,,,,,,2023-09-26_08h55.50.291,vbt_B1_day2,2022.2.4,MacIntel,61.05006105,55918,,,,,,,-0.25,0.036666667,1,0,0,4.099,0,25,25,8,1,i,images/br_i.png,images/cb_i.png,,,,,,,,,,,,,,,,,,,,,,,,,,,,,,,,,,,,,,,,,,,,,,,
,,,,,,,2023-09-26_08h55.50.291,vbt_B1_day2,2022.2.4,MacIntel,61.05006105,55918,,,,,,,,,,,,,,,,,,,,,-0.592222222,0.024444444,1,0,0,32.275,,,,,,,,,,,,,,,,,,,,,,,,,,,,,,,,,,,,,,,,,
,,,,,,,2023-09-26_08h55.50.291,vbt_B1_day2,2022.2.4,MacIntel,61.05006105,55918,,,,,,,,,,,,,,,,,,,,,,,,,,,down,0,70.878,,-0.051111111,-0.374444444,1,0,0,4.634,0,0,0,167,1,eenhoorn,images/br_eenhoorn.png,images/cb_eenhoorn.png,0,,,,,,,,,,,,,,,,,,,,,,
,,,,,,,2023-09-26_08h55.50.291,vbt_B1_day2,2022.2.4,MacIntel,61.05006105,55918,,,,,,,,,,,,,,,,,,,,,,,,,,,down,0,12.377,,-0.044444444,-0.344444444,1,0,0,2.668,0,1,1,190,1,goedkoop,images/br_goedkoop.png,images/cb_goedkoop.png,0,,,,,,,,,,,,,,,,,,,,,,
,,,,,,,2023-09-26_08h55.50.291,vbt_B1_day2,2022.2.4,MacIntel,61.05006105,55918,,,,,,,,,,,,,,,,,,,,,,,,,,,down,0,6.091,,-0.044444444,-0.344444444,1,0,0,0.968,0,2,2,9,1,hier,images/br_hier.png,images/cb_hier.png,0,,,,,,,,,,,,,,,,,,,,,,
,,,,,,,2023-09-26_08h55.50.291,vbt_B1_day2,2022.2.4,MacIntel,61.05006105,55918,,,,,,,,,,,,,,,,,,,,,,,,,,,down,0,17.47,,-0.044444444,-0.344444444,1,0,0,1.681,0,3,3,30,1,uien,images/br_uien.png,images/cb_uien.png,0,,,,,,,,,,,,,,,,,,,,,,
,,,,,,,2023-09-26_08h55.50.291,vbt_B1_day2,2022.2.4,MacIntel,61.05006105,55918,,,,,,,,,,,,,,,,,,,,,,,,,,,down,0,7.126,,-0.044444444,-0.344444444,1,0,0,1.482,0,4,4,75,1,snoep,images/br_snoep.png,images/cb_snoep.png,0,,,,,,,,,,,,,,,,,,,,,,
,,,,,,,2023-09-26_08h55.50.291,vbt_B1_day2,2022.2.4,MacIntel,61.05006105,55918,,,,,,,,,,,,,,,,,,,,,,,,,,,down,0,14.476,,-0.044444444,-0.344444444,1,0,0,1.284,0,5,5,83,1,mening,images/br_mening.png,images/cb_mening.png,0,,,,,,,,,,,,,,,,,,,,,,
,,,,,,,2023-09-26_08h55.50.291,vbt_B1_day2,2022.2.4,MacIntel,61.05006105,55918,,,,,,,,,,,,,,,,,,,,,,,,,,,down,0,3.724,,-0.044444444,-0.344444444,1,0,0,0.667,0,6,6,78,1,leren,images/br_leren.png,images/cb_leren.png,0,,,,,,,,,,,,,,,,,,,,,,
,,,,,,,2023-09-26_08h55.50.291,vbt_B1_day2,2022.2.4,MacIntel,61.05006105,55918,,,,,,,,,,,,,,,,,,,,,,,,,,,down,0,3.11,,-0.044444444,-0.344444444,1,0,0,0.783,0,7,7,10,1,leek,images/br_leek.png,images/cb_leek.png,0,,,,,,,,,,,,,,,,,,,,,,
,,,,,,,2023-09-26_08h55.50.291,vbt_B1_day2,2022.2.4,MacIntel,61.05006105,55918,,,,,,,,,,,,,,,,,,,,,,,,,,,down,0,6.452,,-0.044444444,-0.344444444,1,0,0,0.966,0,8,8,173,1,apparaat,images/br_apparaat.png,images/cb_apparaat.png,0,,,,,,,,,,,,,,,,,,,,,,
,,,,,,,2023-09-26_08h55.50.291,vbt_B1_day2,2022.2.4,MacIntel,61.05006105,55918,,,,,,,,,,,,,,,,,,,,,,,,,,,down,0,8.543,,-0.044444444,-0.344444444,1,0,0,0.5,0,9,9,111,1,ticket,images/br_ticket.png,images/cb_ticket.png,0,,,,,,,,,,,,,,,,,,,,,,
,,,,,,,2023-09-26_08h55.50.291,vbt_B1_day2,2022.2.4,MacIntel,61.05006105,55918,,,,,,,,,,,,,,,,,,,,,,,,,,,down,0,3.386,,-0.044444444,-0.344444444,1,0,0,0.584,0,10,10,61,1,groen,images/br_groen.png,images/cb_groen.png,0,,,,,,,,,,,,,,,,,,,,,,
,,,,,,,2023-09-26_08h55.50.291,vbt_B1_day2,2022.2.4,MacIntel,61.05006105,55918,,,,,,,,,,,,,,,,,,,,,,,,,,,down,0,10.709,,-0.045555556,-0.345555556,1,0,0,0.533,0,11,11,114,1,vullen,images/br_vullen.png,images/cb_vullen.png,0,,,,,,,,,,,,,,,,,,,,,,
,,,,,,,2023-09-26_08h55.50.291,vbt_B1_day2,2022.2.4,MacIntel,61.05006105,55918,,,,,,,,,,,,,,,,,,,,,,,,,,,down,0,4.092,,-0.045555556,-0.345555556,1,0,0,1.684,0,12,12,28,1,stal,images/br_stal.png,images/cb_stal.png,0,,,,,,,,,,,,,,,,,,,,,,
,,,,,,,2023-09-26_08h55.50.291,vbt_B1_day2,2022.2.4,MacIntel,61.05006105,55918,,,,,,,,,,,,,,,,,,,,,,,,,,,down,0,8.925,,-0.045555556,-0.345555556,1,0,0,0.584,0,13,13,153,1,vervoer,images/br_vervoer.png,images/cb_vervoer.png,0,,,,,,,,,,,,,,,,,,,,,,
,,,,,,,2023-09-26_08h55.50.291,vbt_B1_day2,2022.2.4,MacIntel,61.05006105,55918,,,,,,,,,,,,,,,,,,,,,,,,,,,down,0,5.975,,-0.045555556,-0.345555556,1,0,0,0.601,0,14,14,116,1,besmet,images/br_besmet.png,images/cb_besmet.png,0,,,,,,,,,,,,,,,,,,,,,,
,,,,,,,2023-09-26_08h55.50.291,vbt_B1_day2,2022.2.4,MacIntel,61.05006105,55918,,,,,,,,,,,,,,,,,,,,,,,,,,,down,0,10.436,,-0.045555556,-0.345555556,1,0,0,2.817,0,15,15,6,1,diep,images/br_diep.png,images/cb_diep.png,0,,,,,,,,,,,,,,,,,,,,,,
,,,,,,,2023-09-26_08h55.50.291,vbt_B1_day2,2022.2.4,MacIntel,61.05006105,55918,,,,,,,,,,,,,,,,,,,,,,,,,,,down,0,15.111,,0.268888889,-0.325555556,1,0,0,1.167,0,16,16,97,1,loyaal,images/br_loyaal.png,images/cb_loyaal.png,1,loyaal,,,,,,,,,,,,,,,,,,,,,
,,,,,,,2023-09-26_08h55.50.291,vbt_B1_day2,2022.2.4,MacIntel,61.05006105,55918,,,,,,,,,,,,,,,,,,,,,,,,,,,down,0,16.087,,0.268888889,-0.325555556,1,0,0,0.616,0,17,17,194,1,driemaal,images/br_driemaal.png,images/cb_driemaal.png,0,,,,,,,,,,,,,,,,,,,,,,
,,,,,,,2023-09-26_08h55.50.291,vbt_B1_day2,2022.2.4,MacIntel,61.05006105,55918,,,,,,,,,,,,,,,,,,,,,,,,,,,down,0,18.222,,0.096666667,-0.305555556,1,0,0,1.205,0,18,18,59,1,kring,images/br_kring.png,images/cb_kring.png,1,kring,,,,,,,,,,,,,,,,,,,,,
,,,,,,,2023-09-26_08h55.50.291,vbt_B1_day2,2022.2.4,MacIntel,61.05006105,55918,,,,,,,,,,,,,,,,,,,,,,,,,,,down,0,13.806,,0.096666667,-0.305555556,1,0,0,1.067,0,19,19,107,1,maling,images/br_maling.png,images/cb_maling.png,0,,,,,,,,,,,,,,,,,,,,,,
,,,,,,,2023-09-26_08h55.50.291,vbt_B1_day2,2022.2.4,MacIntel,61.05006105,55918,,,,,,,,,,,,,,,,,,,,,,,,,,,down,0,15.669,,0.096666667,-0.305555556,1,0,0,0.658,0,20,20,136,1,waarbij,images/br_waarbij.png,images/cb_waarbij.png,1,waarbij,,,,,,,,,,,,,,,,,,,,,
,,,,,,,2023-09-26_08h55.50.291,vbt_B1_day2,2022.2.4,MacIntel,61.05006105,55918,,,,,,,,,,,,,,,,,,,,,,,,,,,down,0,5.09,,0.096666667,-0.305555556,1,0,0,0.516,0,21,21,8,1,knie,images/br_knie.png,images/cb_knie.png,0,,,,,,,,,,,,,,,,,,,,,,
,,,,,,,2023-09-26_08h55.50.291,vbt_B1_day2,2022.2.4,MacIntel,61.05006105,55918,,,,,,,,,,,,,,,,,,,,,,,,,,,down,0,7.025,,0.096666667,-0.305555556,1,0,0,0.599,0,22,22,120,1,klimmen,images/br_klimmen.png,images/cb_klimmen.png,0,,,,,,,,,,,,,,,,,,,,,,
,,,,,,,2023-09-26_08h55.50.291,vbt_B1_day2,2022.2.4,MacIntel,61.05006105,55918,,,,,,,,,,,,,,,,,,,,,,,,,,,down,0,3.376,,0.096666667,-0.305555556,1,0,0,0.55,0,23,23,93,1,waarop,images/br_waarop.png,images/cb_waarop.png,0,,,,,,,,,,,,,,,,,,,,,,
,,,,,,,2023-09-26_08h55.50.291,vbt_B1_day2,2022.2.4,MacIntel,61.05006105,55918,,,,,,,,,,,,,,,,,,,,,,,,,,,down,0,14.094,,0.096666667,-0.305555556,1,0,0,0.517,0,24,24,179,1,woestijn,images/br_woestijn.png,images/cb_woestijn.png,1,woestijn,,,,,,,,,,,,,,,,,,,,,
,,,,,,,2023-09-26_08h55.50.291,vbt_B1_day2,2022.2.4,MacIntel,61.05006105,55918,,,,,,,,,,,,,,,,,,,,,,,,,,,down,0,8.307,,0.096666667,-0.305555556,1,0,0,0.634,0,25,25,88,1,boeien,images/br_boeien.png,images/cb_boeien.png,0,,,,,,,,,,,,,,,,,,,,,,
,,,,,,,2023-09-26_08h55.50.291,vbt_B1_day2,2022.2.4,MacIntel,61.05006105,55918,,,,,,,,,,,,,,,,,,,,,,,,,,,down,0,7.643,,0.096666667,-0.305555556,1,0,0,0.615,0,26,26,144,1,eetlust,images/br_eetlust.png,images/cb_eetlust.png,0,,,,,,,,,,,,,,,,,,,,,,
,,,,,,,2023-09-26_08h55.50.291,vbt_B1_day2,2022.2.4,MacIntel,61.05006105,55918,,,,,,,,,,,,,,,,,,,,,,,,,,,down,0,17.712,,0.096666667,-0.305555556,1,0,0,1.367,0,27,27,174,1,stemming,images/br_stemming.png,images/cb_stemming.png,0,,,,,,,,,,,,,,,,,,,,,,
,,,,,,,2023-09-26_08h55.50.291,vbt_B1_day2,2022.2.4,MacIntel,61.05006105,55918,,,,,,,,,,,,,,,,,,,,,,,,,,,down,0,10.771,,-0.05,-0.294444444,1,0,0,0.523,0,28,28,56,1,traag,images/br_traag.png,images/cb_traag.png,1,traag,,,,,,,,,,,,,,,,,,,,,
,,,,,,,2023-09-26_08h55.50.291,vbt_B1_day2,2022.2.4,MacIntel,61.05006105,55918,,,,,,,,,,,,,,,,,,,,,,,,,,,down,0,6.378,,-0.05,-0.294444444,1,0,0,1.067,0,29,29,157,1,uitlaat,images/br_uitlaat.png,images/cb_uitlaat.png,0,,,,,,,,,,,,,,,,,,,,,,
,,,,,,,2023-09-26_08h55.50.291,vbt_B1_day2,2022.2.4,MacIntel,61.05006105,55918,,,,,,,,,,,,,,,,,,,,,,,,,,,down,0,11.378,,-0.05,-0.294444444,1,0,0,0.983,0,30,30,34,1,vorm,images/br_vorm.png,images/cb_vorm.png,0,,,,,,,,,,,,,,,,,,,,,,
,,,,,,,2023-09-26_08h55.50.291,vbt_B1_day2,2022.2.4,MacIntel,61.05006105,55918,,,,,,,,,,,,,,,,,,,,,,,,,,,down,0,11.321,,-0.05,-0.294444444,1,0,0,0.6,0,31,31,154,1,aflopen,images/br_aflopen.png,images/cb_aflopen.png,0,,,,,,,,,,,,,,,,,,,,,,
,,,,,,,2023-09-26_08h55.50.291,vbt_B1_day2,2022.2.4,MacIntel,61.05006105,55918,,,,,,,,,,,,,,,,,,,,,,,,,,,down,0,5.823,,-0.05,-0.294444444,1,0,0,0.635,0,32,32,26,1,leuk,images/br_leuk.png,images/cb_leuk.png,0,,,,,,,,,,,,,,,,,,,,,,
,,,,,,,2023-09-26_08h55.50.291,vbt_B1_day2,2022.2.4,MacIntel,61.05006105,55918,,,,,,,,,,,,,,,,,,,,,,,,,,,down,0,7.941,,-0.05,-0.294444444,1,0,0,1.167,0,33,33,151,1,aanzoek,images/br_aanzoek.png,images/cb_aanzoek.png,0,,,,,,,,,,,,,,,,,,,,,,
,,,,,,,2023-09-26_08h55.50.291,vbt_B1_day2,2022.2.4,MacIntel,61.05006105,55918,,,,,,,,,,,,,,,,,,,,,,,,,,,down,0,5.126,,-0.05,-0.294444444,1,0,0,0.649,0,34,34,103,1,joggen,images/br_joggen.png,images/cb_joggen.png,0,,,,,,,,,,,,,,,,,,,,,,
,,,,,,,2023-09-26_08h55.50.291,vbt_B1_day2,2022.2.4,MacIntel,61.05006105,55918,,,,,,,,,,,,,,,,,,,,,,,,,,,down,0,19.139,,-0.05,-0.294444444,1,0,0,1.682,0,35,35,130,1,keihard,images/br_keihard.png,images/cb_keihard.png,0,,,,,,,,,,,,,,,,,,,,,,
,,,,,,,2023-09-26_08h55.50.291,vbt_B1_day2,2022.2.4,MacIntel,61.05006105,55918,,,,,,,,,,,,,,,,,,,,,,,,,,,down,0,9.054,,-0.054444444,-0.298888889,1,0,0,0.867,0,36,36,79,1,nodig,images/br_nodig.png,images/cb_nodig.png,0,,,,,,,,,,,,,,,,,,,,,,
,,,,,,,2023-09-26_08h55.50.291,vbt_B1_day2,2022.2.4,MacIntel,61.05006105,55918,,,,,,,,,,,,,,,,,,,,,,,,,,,down,0,3.592,,-0.06,-0.292222222,1,0,0,0.601,0,37,37,62,1,knaap,images/br_knaap.png,images/cb_knaap.png,0,,,,,,,,,,,,,,,,,,,,,,
,,,,,,,2023-09-26_08h55.50.291,vbt_B1_day2,2022.2.4,MacIntel,61.05006105,55918,,,,,,,,,,,,,,,,,,,,,,,,,,,down,0,9.728,,-0.06,-0.292222222,1,0,0,0.833,0,38,38,198,1,bedoelen,images/br_bedoelen.png,images/cb_bedoelen.png,0,,,,,,,,,,,,,,,,,,,,,,
,,,,,,,2023-09-26_08h55.50.291,vbt_B1_day2,2022.2.4,MacIntel,61.05006105,55918,,,,,,,,,,,,,,,,,,,,,,,,,,,down,0,0.207,,-0.06,-0.292222222,1,0,0,0.566,0,39,39,13,1,kaal,images/br_kaal.png,images/cb_kaal.png,0,,,,,,,,,,,,,,,,,,,,,,
,,,,,,,2023-09-26_08h55.50.291,vbt_B1_day2,2022.2.4,MacIntel,61.05006105,55918,,,,,,,,,,,,,,,,,,,,,,,,,,,down,0,4.002,,-0.06,-0.292222222,1,0,0,0.55,0,40,40,126,1,kasteel,images/br_kasteel.png,images/cb_kasteel.png,0,,,,,,,,,,,,,,,,,,,,,,
,,,,,,,2023-09-26_08h55.50.291,vbt_B1_day2,2022.2.4,MacIntel,61.05006105,55918,,,,,,,,,,,,,,,,,,,,,,,,,,,down,0,3.769,,-0.06,-0.292222222,1,0,0,0.449,0,41,41,43,1,klauw,images/br_klauw.png,images/cb_klauw.png,0,,,,,,,,,,,,,,,,,,,,,,
,,,,,,,2023-09-26_08h55.50.291,vbt_B1_day2,2022.2.4,MacIntel,61.05006105,55918,,,,,,,,,,,,,,,,,,,,,,,,,,,down,0,6.523,,-0.06,-0.292222222,1,0,0,0.451,0,42,42,27,1,dans,images/br_dans.png,images/cb_dans.png,0,,,,,,,,,,,,,,,,,,,,,,
,,,,,,,2023-09-26_08h55.50.291,vbt_B1_day2,2022.2.4,MacIntel,61.05006105,55918,,,,,,,,,,,,,,,,,,,,,,,,,,,down,0,7.56,,-0.06,-0.292222222,1,0,0,0.55,0,43,43,187,1,opkijken,images/br_opkijken.png,images/cb_opkijken.png,0,,,,,,,,,,,,,,,,,,,,,,
,,,,,,,2023-09-26_08h55.50.291,vbt_B1_day2,2022.2.4,MacIntel,61.05006105,55918,,,,,,,,,,,,,,,,,,,,,,,,,,,down,0,40.257,,-0.06,-0.292222222,1,0,0,0.7,0,44,44,196,1,nakijken,images/br_nakijken.png,images/cb_nakijken.png,0,,,,,,,,,,,,,,,,,,,,,,
,,,,,,,2023-09-26_08h55.50.291,vbt_B1_day2,2022.2.4,MacIntel,61.05006105,55918,,,,,,,,,,,,,,,,,,,,,,,,,,,down,0,6.785,,0.37,-0.043333333,1,0,0,0.584,0,45,45,41,1,maken,images/br_maken.png,images/cb_maken.png,0,,,,,,,,,,,,,,,,,,,,,,
,,,,,,,2023-09-26_08h55.50.291,vbt_B1_day2,2022.2.4,MacIntel,61.05006105,55918,,,,,,,,,,,,,,,,,,,,,,,,,,,down,0,14.401,,0.37,-0.043333333,1,0,0,0.649,0,46,46,181,1,toegeven,images/br_toegeven.png,images/cb_toegeven.png,0,,,,,,,,,,,,,,,,,,,,,,
,,,,,,,2023-09-26_08h55.50.291,vbt_B1_day2,2022.2.4,MacIntel,61.05006105,55918,,,,,,,,,,,,,,,,,,,,,,,,,,,down,0,21.123,,0.37,-0.043333333,1,0,0,0.65,0,47,47,159,1,sufferd,images/br_sufferd.png,images/cb_sufferd.png,0,,,,,,,,,,,,,,,,,,,,,,
,,,,,,,2023-09-26_08h55.50.291,vbt_B1_day2,2022.2.4,MacIntel,61.05006105,55918,,,,,,,,,,,,,,,,,,,,,,,,,,,down,0,9.568,,0.37,-0.043333333,1,0,0,0.95,0,48,48,54,1,gebit,images/br_gebit.png,images/cb_gebit.png,0,,,,,,,,,,,,,,,,,,,,,,
,,,,,,,2023-09-26_08h55.50.291,vbt_B1_day2,2022.2.4,MacIntel,61.05006105,55918,,,,,,,,,,,,,,,,,,,,,,,,,,,down,0,7.755,,0.368888889,-0.036666667,1,0,0,0.616,0,49,49,87,1,toeval,images/br_toeval.png,images/cb_toeval.png,0,,,,,,,,,,,,,,,,,,,,,,
,,,,,,,2023-09-26_08h55.50.291,vbt_B1_day2,2022.2.4,MacIntel,61.05006105,55918,,,,,,,,,,,,,,,,,,,,,,,,,,,down,0,4.142,,0.368888889,-0.036666667,1,0,0,0.483,0,50,50,45,1,piste,images/br_piste.png,images/cb_piste.png,0,,,,,,,,,,,,,,,,,,,,,,
,,,,,,,2023-09-26_08h55.50.291,vbt_B1_day2,2022.2.4,MacIntel,61.05006105,55918,,,,,,,,,,,,,,,,,,,,,,,,,,,down,0,2.685,,0.368888889,-0.036666667,1,0,0,0.516,0,51,51,50,1,stoom,images/br_stoom.png,images/cb_stoom.png,0,,,,,,,,,,,,,,,,,,,,,,
,,,,,,,2023-09-26_08h55.50.291,vbt_B1_day2,2022.2.4,MacIntel,61.05006105,55918,,,,,,,,,,,,,,,,,,,,,,,,,,,down,0,8.69,,0.368888889,-0.036666667,1,0,0,0.434,0,52,52,51,1,samen,images/br_samen.png,images/cb_samen.png,0,,,,,,,,,,,,,,,,,,,,,,
,,,,,,,2023-09-26_08h55.50.291,vbt_B1_day2,2022.2.4,MacIntel,61.05006105,55918,,,,,,,,,,,,,,,,,,,,,,,,,,,down,0,6.241,,0.368888889,-0.036666667,1,0,0,0.566,0,53,53,60,1,jasje,images/br_jasje.png,images/cb_jasje.png,0,,,,,,,,,,,,,,,,,,,,,,
,,,,,,,2023-09-26_08h55.50.291,vbt_B1_day2,2022.2.4,MacIntel,61.05006105,55918,,,,,,,,,,,,,,,,,,,,,,,,,,,down,0,4.269,,0.368888889,-0.036666667,1,0,0,0.7,0,54,54,89,1,slapen,images/br_slapen.png,images/cb_slapen.png,0,,,,,,,,,,,,,,,,,,,,,,
,,,,,,,2023-09-26_08h55.50.291,vbt_B1_day2,2022.2.4,MacIntel,61.05006105,55918,,,,,,,,,,,,,,,,,,,,,,,,,,,down,0,1.695,,0.368888889,-0.036666667,1,0,0,0.648,0,55,55,5,1,blad,images/br_blad.png,images/cb_blad.png,0,,,,,,,,,,,,,,,,,,,,,,
,,,,,,,2023-09-26_08h55.50.291,vbt_B1_day2,2022.2.4,MacIntel,61.05006105,55918,,,,,,,,,,,,,,,,,,,,,,,,,,,down,0,9.57,,0.368888889,-0.036666667,1,0,0,1.016,0,56,56,115,1,kleren,images/br_kleren.png,images/cb_kleren.png,0,,,,,,,,,,,,,,,,,,,,,,
,,,,,,,2023-09-26_08h55.50.291,vbt_B1_day2,2022.2.4,MacIntel,61.05006105,55918,,,,,,,,,,,,,,,,,,,,,,,,,,,down,0,5.574,,0.448888889,-0.123333333,1,0,0,0.484,0,57,57,96,1,slagen,images/br_slagen.png,images/cb_slagen.png,1,slagen,,,,,,,,,,,,,,,,,,,,,
,,,,,,,2023-09-26_08h55.50.291,vbt_B1_day2,2022.2.4,MacIntel,61.05006105,55918,,,,,,,,,,,,,,,,,,,,,,,,,,,down,0,12.01,,0.45,-0.121111111,1,0,0,0.551,0,58,58,35,1,lust,images/br_lust.png,images/cb_lust.png,0,,,,,,,,,,,,,,,,,,,,,,
,,,,,,,2023-09-26_08h55.50.291,vbt_B1_day2,2022.2.4,MacIntel,61.05006105,55918,,,,,,,,,,,,,,,,,,,,,,,,,,,down,0,0.058,,0.45,-0.121111111,1,0,0,0.767,0,59,59,39,1,laag,images/br_laag.png,images/cb_laag.png,0,,,,,,,,,,,,,,,,,,,,,,
,,,,,,,2023-09-26_08h55.50.291,vbt_B1_day2,2022.2.4,MacIntel,61.05006105,55918,,,,,,,,,,,,,,,,,,,,,,,,,,,down,0,5.97,,0.45,-0.121111111,1,0,0,1.166,0,60,60,184,1,aandelen,images/br_aandelen.png,images/cb_aandelen.png,0,,,,,,,,,,,,,,,,,,,,,,
,,,,,,,2023-09-26_08h55.50.291,vbt_B1_day2,2022.2.4,MacIntel,61.05006105,55918,,,,,,,,,,,,,,,,,,,,,,,,,,,down,0,4.273,,0.45,-0.121111111,1,0,0,0.851,0,61,61,105,1,wijlen,images/br_wijlen.png,images/cb_wijlen.png,0,,,,,,,,,,,,,,,,,,,,,,
,,,,,,,2023-09-26_08h55.50.291,vbt_B1_day2,2022.2.4,MacIntel,61.05006105,55918,,,,,,,,,,,,,,,,,,,,,,,,,,,down,0,7.124,,0.45,-0.121111111,1,0,0,0.4,0,62,62,104,1,zweven,images/br_zweven.png,images/cb_zweven.png,0,,,,,,,,,,,,,,,,,,,,,,
,,,,,,,2023-09-26_08h55.50.291,vbt_B1_day2,2022.2.4,MacIntel,61.05006105,55918,,,,,,,,,,,,,,,,,,,,,,,,,,,down,0,19.827,,0.45,-0.121111111,1,0,0,0.85,0,63,63,91,1,gezond,images/br_gezond.png,images/cb_gezond.png,0,,,,,,,,,,,,,,,,,,,,,,
,,,,,,,2023-09-26_08h55.50.291,vbt_B1_day2,2022.2.4,MacIntel,61.05006105,55918,,,,,,,,,,,,,,,,,,,,,,,,,,,down,0,9.46,,0.45,-0.121111111,1,0,0,0.617,0,64,64,165,1,feestdag,images/br_feestdag.png,images/cb_feestdag.png,0,,,,,,,,,,,,,,,,,,,,,,
,,,,,,,2023-09-26_08h55.50.291,vbt_B1_day2,2022.2.4,MacIntel,61.05006105,55918,,,,,,,,,,,,,,,,,,,,,,,,,,,down,0,7.11,,0.45,-0.121111111,1,0,0,0.598,0,65,65,73,1,volop,images/br_volop.png,images/cb_volop.png,0,,,,,,,,,,,,,,,,,,,,,,
,,,,,,,2023-09-26_08h55.50.291,vbt_B1_day2,2022.2.4,MacIntel,61.05006105,55918,,,,,,,,,,,,,,,,,,,,,,,,,,,down,0,8.726,,0.45,-0.121111111,1,0,0,0.434,0,66,66,123,1,hiervan,images/br_hiervan.png,images/cb_hiervan.png,0,,,,,,,,,,,,,,,,,,,,,,
,,,,,,,2023-09-26_08h55.50.291,vbt_B1_day2,2022.2.4,MacIntel,61.05006105,55918,,,,,,,,,,,,,,,,,,,,,,,,,,,down,0,15.044,,0.45,-0.121111111,1,0,0,0.685,0,67,67,82,1,muziek,images/br_muziek.png,images/cb_muziek.png,0,,,,,,,,,,,,,,,,,,,,,,
,,,,,,,2023-09-26_08h55.50.291,vbt_B1_day2,2022.2.4,MacIntel,61.05006105,55918,,,,,,,,,,,,,,,,,,,,,,,,,,,down,0,7.31,,0.45,-0.121111111,1,0,0,0.667,0,68,68,90,1,geluid,images/br_geluid.png,images/cb_geluid.png,0,,,,,,,,,,,,,,,,,,,,,,
,,,,,,,2023-09-26_08h55.50.291,vbt_B1_day2,2022.2.4,MacIntel,61.05006105,55918,,,,,,,,,,,,,,,,,,,,,,,,,,,down,0,3.502,,0.45,-0.121111111,1,0,0,0.649,0,69,69,22,1,stof,images/br_stof.png,images/cb_stof.png,0,,,,,,,,,,,,,,,,,,,,,,
,,,,,,,2023-09-26_08h55.50.291,vbt_B1_day2,2022.2.4,MacIntel,61.05006105,55918,,,,,,,,,,,,,,,,,,,,,,,,,,,down,0,11.893,,0.45,-0.121111111,1,0,0,0.517,0,70,70,189,1,aanraden,images/br_aanraden.png,images/cb_aanraden.png,0,,,,,,,,,,,,,,,,,,,,,,
,,,,,,,2023-09-26_08h55.50.291,vbt_B1_day2,2022.2.4,MacIntel,61.05006105,55918,,,,,,,,,,,,,,,,,,,,,,,,,,,down,0,9.569,,0.45,-0.121111111,1,0,0,0.699,0,71,71,40,1,schep,images/br_schep.png,images/cb_schep.png,0,,,,,,,,,,,,,,,,,,,,,,
,,,,,,,2023-09-26_08h55.50.291,vbt_B1_day2,2022.2.4,MacIntel,61.05006105,55918,,,,,,,,,,,,,,,,,,,,,,,,,,,down,0,6.819,,0.45,-0.121111111,1,0,0,0.569,0,72,72,192,1,schaamte,images/br_schaamte.png,images/cb_schaamte.png,0,,,,,,,,,,,,,,,,,,,,,,
,,,,,,,2023-09-26_08h55.50.291,vbt_B1_day2,2022.2.4,MacIntel,61.05006105,55918,,,,,,,,,,,,,,,,,,,,,,,,,,,down,0,4.475,,0.45,-0.122222222,1,0,0,0.718,0,73,73,101,1,staren,images/br_staren.png,images/cb_staren.png,0,,,,,,,,,,,,,,,,,,,,,,
,,,,,,,2023-09-26_08h55.50.291,vbt_B1_day2,2022.2.4,MacIntel,61.05006105,55918,,,,,,,,,,,,,,,,,,,,,,,,,,,down,0,17.56,,0.452222222,-0.122222222,1,0,0,0.468,0,74,74,64,1,wegen,images/br_wegen.png,images/cb_wegen.png,0,,,,,,,,,,,,,,,,,,,,,,
,,,,,,,2023-09-26_08h55.50.291,vbt_B1_day2,2022.2.4,MacIntel,61.05006105,55918,,,,,,,,,,,,,,,,,,,,,,,,,,,down,0,13.261,,0.452222222,-0.122222222,1,0,0,0.584,0,75,75,131,1,opzicht,images/br_opzicht.png,images/cb_opzicht.png,0,,,,,,,,,,,,,,,,,,,,,,
,,,,,,,2023-09-26_08h55.50.291,vbt_B1_day2,2022.2.4,MacIntel,61.05006105,55918,,,,,,,,,,,,,,,,,,,,,,,,,,,down,0,10.671,,0.452222222,-0.122222222,1,0,0,0.783,0,76,76,185,1,mijnheer,images/br_mijnheer.png,images/cb_mijnheer.png,0,,,,,,,,,,,,,,,,,,,,,,
,,,,,,,2023-09-26_08h55.50.291,vbt_B1_day2,2022.2.4,MacIntel,61.05006105,55918,,,,,,,,,,,,,,,,,,,,,,,,,,,down,0,8.021,,0.452222222,-0.122222222,1,0,0,0.582,0,77,77,155,1,gerucht,images/br_gerucht.png,images/cb_gerucht.png,0,,,,,,,,,,,,,,,,,,,,,,
,,,,,,,2023-09-26_08h55.50.291,vbt_B1_day2,2022.2.4,MacIntel,61.05006105,55918,,,,,,,,,,,,,,,,,,,,,,,,,,,down,0,11.726,,0.452222222,-0.125555556,1,0,0,0.749,0,78,78,164,1,anarchie,images/br_anarchie.png,images/cb_anarchie.png,0,,,,,,,,,,,,,,,,,,,,,,
,,,,,,,2023-09-26_08h55.50.291,vbt_B1_day2,2022.2.4,MacIntel,61.05006105,55918,,,,,,,,,,,,,,,,,,,,,,,,,,,down,0,3.506,,0.452222222,-0.125555556,1,0,0,0.499,0,79,79,36,1,vuur,images/br_vuur.png,images/cb_vuur.png,0,,,,,,,,,,,,,,,,,,,,,,
,,,,,,,2023-09-26_08h55.50.291,vbt_B1_day2,2022.2.4,MacIntel,61.05006105,55918,,,,,,,,,,,,,,,,,,,,,,,,,,,down,0,1.344,,0.452222222,-0.125555556,1,0,0,0.568,0,80,80,25,1,plek,images/br_plek.png,images/cb_plek.png,0,,,,,,,,,,,,,,,,,,,,,,
,,,,,,,2023-09-26_08h55.50.291,vbt_B1_day2,2022.2.4,MacIntel,61.05006105,55918,,,,,,,,,,,,,,,,,,,,,,,,,,,down,0,4.592,,0.452222222,-0.125555556,1,0,0,0.5,0,81,81,14,1,rijp,images/br_rijp.png,images/cb_rijp.png,0,,,,,,,,,,,,,,,,,,,,,,
,,,,,,,2023-09-26_08h55.50.291,vbt_B1_day2,2022.2.4,MacIntel,61.05006105,55918,,,,,,,,,,,,,,,,,,,,,,,,,,,down,0,6.83,,0.452222222,-0.125555556,1,0,0,0.799,0,82,82,161,1,attentie,images/br_attentie.png,images/cb_attentie.png,0,,,,,,,,,,,,,,,,,,,,,,
,,,,,,,2023-09-26_08h55.50.291,vbt_B1_day2,2022.2.4,MacIntel,61.05006105,55918,,,,,,,,,,,,,,,,,,,,,,,,,,,down,0,6.757,,0.452222222,-0.125555556,1,0,0,0.466,0,83,83,76,1,afval,images/br_afval.png,images/cb_afval.png,0,,,,,,,,,,,,,,,,,,,,,,
,,,,,,,2023-09-26_08h55.50.291,vbt_B1_day2,2022.2.4,MacIntel,61.05006105,55918,,,,,,,,,,,,,,,,,,,,,,,,,,,down,0,3.76,,0.452222222,-0.125555556,1,0,0,0.484,0,84,84,21,1,mist,images/br_mist.png,images/cb_mist.png,0,,,,,,,,,,,,,,,,,,,,,,
,,,,,,,2023-09-26_08h55.50.291,vbt_B1_day2,2022.2.4,MacIntel,61.05006105,55918,,,,,,,,,,,,,,,,,,,,,,,,,,,down,0,36.863,,0.415555556,-0.143333333,1,0,0,0.785,0,85,85,176,1,techniek,images/br_techniek.png,images/cb_techniek.png,1,techniek,,,,,,,,,,,,,,,,,,,,,
,,,,,,,2023-09-26_08h55.50.291,vbt_B1_day2,2022.2.4,MacIntel,61.05006105,55918,,,,,,,,,,,,,,,,,,,,,,,,,,,down,0,4.674,,0.386666667,-0.147777778,1,0,0,0.533,0,86,86,102,1,legaal,images/br_legaal.png,images/cb_legaal.png,0,,,,,,,,,,,,,,,,,,,,,,
,,,,,,,2023-09-26_08h55.50.291,vbt_B1_day2,2022.2.4,MacIntel,61.05006105,55918,,,,,,,,,,,,,,,,,,,,,,,,,,,down,0,16.787,,0.386666667,-0.15,1,0,0,0.55,0,87,87,156,1,rechten,images/br_rechten.png,images/cb_rechten.png,0,,,,,,,,,,,,,,,,,,,,,,
,,,,,,,2023-09-26_08h55.50.291,vbt_B1_day2,2022.2.4,MacIntel,61.05006105,55918,,,,,,,,,,,,,,,,,,,,,,,,,,,down,0,7.16,,0.386666667,-0.15,1,0,0,0.433,0,88,88,110,1,zuster,images/br_zuster.png,images/cb_zuster.png,0,,,,,,,,,,,,,,,,,,,,,,
,,,,,,,2023-09-26_08h55.50.291,vbt_B1_day2,2022.2.4,MacIntel,61.05006105,55918,,,,,,,,,,,,,,,,,,,,,,,,,,,down,0,21.995,,0.386666667,-0.15,1,0,0,0.466,0,89,89,191,1,opheffen,images/br_opheffen.png,images/cb_opheffen.png,0,,,,,,,,,,,,,,,,,,,,,,
,,,,,,,2023-09-26_08h55.50.291,vbt_B1_day2,2022.2.4,MacIntel,61.05006105,55918,,,,,,,,,,,,,,,,,,,,,,,,,,,down,0,3.588,,0.386666667,-0.15,1,0,0,0.434,0,90,90,150,1,gegeven,images/br_gegeven.png,images/cb_gegeven.png,0,,,,,,,,,,,,,,,,,,,,,,
,,,,,,,2023-09-26_08h55.50.291,vbt_B1_day2,2022.2.4,MacIntel,61.05006105,55918,,,,,,,,,,,,,,,,,,,,,,,,,,,down,0,5.569,,0.386666667,-0.15,1,0,0,0.433,0,91,91,142,1,snuiven,images/br_snuiven.png,images/cb_snuiven.png,0,,,,,,,,,,,,,,,,,,,,,,
,,,,,,,2023-09-26_08h55.50.291,vbt_B1_day2,2022.2.4,MacIntel,61.05006105,55918,,,,,,,,,,,,,,,,,,,,,,,,,,,down,0,3.768,,0.386666667,-0.15,1,0,0,0.501,0,92,92,188,1,strekken,images/br_strekken.png,images/cb_strekken.png,0,,,,,,,,,,,,,,,,,,,,,,
,,,,,,,2023-09-26_08h55.50.291,vbt_B1_day2,2022.2.4,MacIntel,61.05006105,55918,,,,,,,,,,,,,,,,,,,,,,,,,,,down,0,1.439,,0.386666667,-0.15,1,0,0,0.383,0,93,93,42,1,bleek,images/br_bleek.png,images/cb_bleek.png,0,,,,,,,,,,,,,,,,,,,,,,
,,,,,,,2023-09-26_08h55.50.291,vbt_B1_day2,2022.2.4,MacIntel,61.05006105,55918,,,,,,,,,,,,,,,,,,,,,,,,,,,down,0,7.225,,0.386666667,-0.15,1,0,0,0.401,0,94,94,180,1,openbaar,images/br_openbaar.png,images/cb_openbaar.png,0,,,,,,,,,,,,,,,,,,,,,,
,,,,,,,2023-09-26_08h55.50.291,vbt_B1_day2,2022.2.4,MacIntel,61.05006105,55918,,,,,,,,,,,,,,,,,,,,,,,,,,,down,0,4.825,,0.386666667,-0.15,1,0,0,0.368,0,95,95,80,1,kanjer,images/br_kanjer.png,images/cb_kanjer.png,0,,,,,,,,,,,,,,,,,,,,,,
,,,,,,,2023-09-26_08h55.50.291,vbt_B1_day2,2022.2.4,MacIntel,61.05006105,55918,,,,,,,,,,,,,,,,,,,,,,,,,,,down,0,1.659,,0.386666667,-0.15,1,0,0,0.433,0,96,96,53,1,baron,images/br_baron.png,images/cb_baron.png,0,,,,,,,,,,,,,,,,,,,,,,
,,,,,,,2023-09-26_08h55.50.291,vbt_B1_day2,2022.2.4,MacIntel,61.05006105,55918,,,,,,,,,,,,,,,,,,,,,,,,,,,down,0,8.308,,0.386666667,-0.15,1,0,0,0.684,0,97,97,163,1,schuilen,images/br_schuilen.png,images/cb_schuilen.png,0,,,,,,,,,,,,,,,,,,,,,,
,,,,,,,2023-09-26_08h55.50.291,vbt_B1_day2,2022.2.4,MacIntel,61.05006105,55918,,,,,,,,,,,,,,,,,,,,,,,,,,,down,0,7.873,,0.386666667,-0.15,1,0,0,0.5,0,98,98,193,1,weeshuis,images/br_weeshuis.png,images/cb_weeshuis.png,0,,,,,,,,,,,,,,,,,,,,,,
,,,,,,,2023-09-26_08h55.50.291,vbt_B1_day2,2022.2.4,MacIntel,61.05006105,55918,,,,,,,,,,,,,,,,,,,,,,,,,,,down,0,2.009,,0.386666667,-0.15,1,0,0,0.6,0,99,99,65,1,parel,images/br_parel.png,images/cb_parel.png,0,,,,,,,,,,,,,,,,,,,,,,
,,,,,,,2023-09-26_08h55.50.291,vbt_B1_day2,2022.2.4,MacIntel,61.05006105,55918,,,,,,,,,,,,,,,,,,,,,,,,,,,down,0,13.894,,0.386666667,-0.15,1,0,0,0.499,0,100,100,166,1,strikken,images/br_strikken.png,images/cb_strikken.png,0,,,,,,,,,,,,,,,,,,,,,,
,,,,,,,2023-09-26_08h55.50.291,vbt_B1_day2,2022.2.4,MacIntel,61.05006105,55918,,,,,,,,,,,,,,,,,,,,,,,,,,,down,0,10.211,,0.386666667,-0.15,1,0,0,0.634,0,101,101,109,1,totaal,images/br_totaal.png,images/cb_totaal.png,0,,,,,,,,,,,,,,,,,,,,,,
,,,,,,,2023-09-26_08h55.50.291,vbt_B1_day2,2022.2.4,MacIntel,61.05006105,55918,,,,,,,,,,,,,,,,,,,,,,,,,,,down,0,9.337,,0.386666667,-0.15,1,0,0,0.406,0,102,102,139,1,stiekem,images/br_stiekem.png,images/cb_stiekem.png,1,stiekem,,,,,,,,,,,,,,,,,,,,,
,,,,,,,2023-09-26_08h55.50.291,vbt_B1_day2,2022.2.4,MacIntel,61.05006105,55918,,,,,,,,,,,,,,,,,,,,,,,,,,,down,0,22.892,,0.386666667,-0.15,1,0,0,6.567,0,103,103,11,1,mode,images/br_mode.png,images/cb_mode.png,0,,,,,,,,,,,,,,,,,,,,,,
,,,,,,,2023-09-26_08h55.50.291,vbt_B1_day2,2022.2.4,MacIntel,61.05006105,55918,,,,,,,,,,,,,,,,,,,,,,,,,,,down,0,7.668,,0.386666667,-0.15,1,0,0,0.39,0,104,104,137,1,trekker,images/br_trekker.png,images/cb_trekker.png,1,trekken,,,,,,,,,,,,,,,,,,,,,
,,,,,,,2023-09-26_08h55.50.291,vbt_B1_day2,2022.2.4,MacIntel,61.05006105,55918,,,,,,,,,,,,,,,,,,,,,,,,,,,down,0,21.576,,0.386666667,-0.15,1,0,0,0.501,0,105,105,7,1,geld,images/br_geld.png,images/cb_geld.png,0,,,,,,,,,,,,,,,,,,,,,,
,,,,,,,2023-09-26_08h55.50.291,vbt_B1_day2,2022.2.4,MacIntel,61.05006105,55918,,,,,,,,,,,,,,,,,,,,,,,,,,,down,0,14.303,,0.386666667,-0.15,1,0,0,0.901,0,106,106,183,1,getuigen,images/br_getuigen.png,images/cb_getuigen.png,0,,,,,,,,,,,,,,,,,,,,,,
,,,,,,,2023-09-26_08h55.50.291,vbt_B1_day2,2022.2.4,MacIntel,61.05006105,55918,,,,,,,,,,,,,,,,,,,,,,,,,,,down,0,4.376,,0.386666667,-0.15,1,0,0,0.485,0,107,107,33,1,vlek,images/br_vlek.png,images/cb_vlek.png,0,,,,,,,,,,,,,,,,,,,,,,
,,,,,,,2023-09-26_08h55.50.291,vbt_B1_day2,2022.2.4,MacIntel,61.05006105,55918,,,,,,,,,,,,,,,,,,,,,,,,,,,down,0,3.51,,0.386666667,-0.15,1,0,0,0.499,0,108,108,47,1,kabel,images/br_kabel.png,images/cb_kabel.png,0,,,,,,,,,,,,,,,,,,,,,,
,,,,,,,2023-09-26_08h55.50.291,vbt_B1_day2,2022.2.4,MacIntel,61.05006105,55918,,,,,,,,,,,,,,,,,,,,,,,,,,,down,0,5.209,,0.386666667,-0.15,1,0,0,0.502,0,109,109,77,1,woede,images/br_woede.png,images/cb_woede.png,0,,,,,,,,,,,,,,,,,,,,,,
,,,,,,,2023-09-26_08h55.50.291,vbt_B1_day2,2022.2.4,MacIntel,61.05006105,55918,,,,,,,,,,,,,,,,,,,,,,,,,,,down,0,28.963,,0.386666667,-0.15,1,0,0,0.467,0,110,110,143,1,hechten,images/br_hechten.png,images/cb_hechten.png,0,,,,,,,,,,,,,,,,,,,,,,
,,,,,,,2023-09-26_08h55.50.291,vbt_B1_day2,2022.2.4,MacIntel,61.05006105,55918,,,,,,,,,,,,,,,,,,,,,,,,,,,down,0,2.027,,0.386666667,-0.15,1,0,0,0.484,0,111,111,132,1,grappen,images/br_grappen.png,images/cb_grappen.png,0,,,,,,,,,,,,,,,,,,,,,,
,,,,,,,2023-09-26_08h55.50.291,vbt_B1_day2,2022.2.4,MacIntel,61.05006105,55918,,,,,,,,,,,,,,,,,,,,,,,,,,,down,0,9.558,,0.386666667,-0.15,1,0,0,0.95,0,112,112,129,1,verhaal,images/br_verhaal.png,images/cb_verhaal.png,0,,,,,,,,,,,,,,,,,,,,,,
,,,,,,,2023-09-26_08h55.50.291,vbt_B1_day2,2022.2.4,MacIntel,61.05006105,55918,,,,,,,,,,,,,,,,,,,,,,,,,,,down,0,4.461,,0.386666667,-0.15,1,0,0,0.483,0,113,113,37,1,mijn,images/br_mijn.png,images/cb_mijn.png,0,,,,,,,,,,,,,,,,,,,,,,
,,,,,,,2023-09-26_08h55.50.291,vbt_B1_day2,2022.2.4,MacIntel,61.05006105,55918,,,,,,,,,,,,,,,,,,,,,,,,,,,down,0,4.154,,0.386666667,-0.15,1,0,0,0.451,0,114,114,66,1,lever,images/br_lever.png,images/cb_lever.png,0,,,,,,,,,,,,,,,,,,,,,,
,,,,,,,2023-09-26_08h55.50.291,vbt_B1_day2,2022.2.4,MacIntel,61.05006105,55918,,,,,,,,,,,,,,,,,,,,,,,,,,,down,0,4.791,,0.386666667,-0.15,1,0,0,0.467,0,115,115,125,1,aanzien,images/br_aanzien.png,images/cb_aanzien.png,0,,,,,,,,,,,,,,,,,,,,,,
,,,,,,,2023-09-26_08h55.50.291,vbt_B1_day2,2022.2.4,MacIntel,61.05006105,55918,,,,,,,,,,,,,,,,,,,,,,,,,,,down,0,5.79,,0.386666667,-0.15,1,0,0,0.5,0,116,116,18,1,blik,images/br_blik.png,images/cb_blik.png,1,bleblik,,,,,,,,,,,,,,,,,,,,,
,,,,,,,2023-09-26_08h55.50.291,vbt_B1_day2,2022.2.4,MacIntel,61.05006105,55918,,,,,,,,,,,,,,,,,,,,,,,,,,,down,0,5.459,,0.386666667,-0.15,1,0,0,0.534,0,117,117,95,1,vreten,images/br_vreten.png,images/cb_vreten.png,0,,,,,,,,,,,,,,,,,,,,,,
,,,,,,,2023-09-26_08h55.50.291,vbt_B1_day2,2022.2.4,MacIntel,61.05006105,55918,,,,,,,,,,,,,,,,,,,,,,,,,,,down,0,12.637,,0.386666667,-0.15,1,0,0,0.667,0,118,118,158,1,innemen,images/br_innemen.png,images/cb_innemen.png,0,,,,,,,,,,,,,,,,,,,,,,
,,,,,,,2023-09-26_08h55.50.291,vbt_B1_day2,2022.2.4,MacIntel,61.05006105,55918,,,,,,,,,,,,,,,,,,,,,,,,,,,down,0,11.703,,0.386666667,-0.15,1,0,0,0.55,0,119,119,199,1,beseffen,images/br_beseffen.png,images/cb_beseffen.png,0,,,,,,,,,,,,,,,,,,,,,,
,,,,,,,2023-09-26_08h55.50.291,vbt_B1_day2,2022.2.4,MacIntel,61.05006105,55918,,,,,,,,,,,,,,,,,,,,,,,,,,,down,0,3.293,,0.386666667,-0.15,1,0,0,0.549,0,120,120,117,1,kennis,images/br_kennis.png,images/cb_kennis.png,0,,,,,,,,,,,,,,,,,,,,,,
,,,,,,,2023-09-26_08h55.50.291,vbt_B1_day2,2022.2.4,MacIntel,61.05006105,55918,,,,,,,,,,,,,,,,,,,,,,,,,,,down,0,7.305,,0.386666667,-0.15,1,0,0,0.432,0,121,121,146,1,opkomen,images/br_opkomen.png,images/cb_opkomen.png,0,,,,,,,,,,,,,,,,,,,,,,
,,,,,,,2023-09-26_08h55.50.291,vbt_B1_day2,2022.2.4,MacIntel,61.05006105,55918,,,,,,,,,,,,,,,,,,,,,,,,,,,down,0,6.335,,0.386666667,-0.15,1,0,0,0.449,0,122,122,140,1,blijven,images/br_blijven.png,images/cb_blijven.png,0,,,,,,,,,,,,,,,,,,,,,,
,,,,,,,2023-09-26_08h55.50.291,vbt_B1_day2,2022.2.4,MacIntel,61.05006105,55918,,,,,,,,,,,,,,,,,,,,,,,,,,,down,0,7.344,,0.386666667,-0.15,1,0,0,0.416,0,123,123,1,1,zaal,images/br_zaal.png,images/cb_zaal.png,0,,,,,,,,,,,,,,,,,,,,,,
,,,,,,,2023-09-26_08h55.50.291,vbt_B1_day2,2022.2.4,MacIntel,61.05006105,55918,,,,,,,,,,,,,,,,,,,,,,,,,,,down,0,15.989,,0.386666667,-0.15,1,0,0,0.901,0,124,124,55,1,praat,images/br_praat.png,images/cb_praat.png,0,,,,,,,,,,,,,,,,,,,,,,
,,,,,,,2023-09-26_08h55.50.291,vbt_B1_day2,2022.2.4,MacIntel,61.05006105,55918,,,,,,,,,,,,,,,,,,,,,,,,,,,down,0,8.707,,0.386666667,-0.15,0,0,1,0.455,0,125,125,3,1,mand,images/br_mand.png,images/cb_mand.png,0,,,,,,,,,,,,,,,,,,,,,,
,,,,,,,2023-09-26_08h55.50.291,vbt_B1_day2,2022.2.4,MacIntel,61.05006105,55918,,,,,,,,,,,,,,,,,,,,,,,,,,,down,0,7.443,,0.328888889,-0.156666667,1,0,0,0.484,0,126,126,20,1,site,images/br_site.png,images/cb_site.png,0,,,,,,,,,,,,,,,,,,,,,,
,,,,,,,2023-09-26_08h55.50.291,vbt_B1_day2,2022.2.4,MacIntel,61.05006105,55918,,,,,,,,,,,,,,,,,,,,,,,,,,,down,0,5.354,,0.328888889,-0.156666667,1,0,0,0.416,0,127,127,175,1,heengaan,images/br_heengaan.png,images/cb_heengaan.png,0,,,,,,,,,,,,,,,,,,,,,,
,,,,,,,2023-09-26_08h55.50.291,vbt_B1_day2,2022.2.4,MacIntel,61.05006105,55918,,,,,,,,,,,,,,,,,,,,,,,,,,,down,0,3.106,,0.328888889,-0.156666667,1,0,0,0.4,0,128,128,69,1,waken,images/br_waken.png,images/cb_waken.png,0,,,,,,,,,,,,,,,,,,,,,,
,,,,,,,2023-09-26_08h55.50.291,vbt_B1_day2,2022.2.4,MacIntel,61.05006105,55918,,,,,,,,,,,,,,,,,,,,,,,,,,,down,0,4.325,,0.328888889,-0.156666667,1,0,0,0.918,0,129,129,149,1,redding,images/br_redding.png,images/cb_redding.png,0,,,,,,,,,,,,,,,,,,,,,,
,,,,,,,2023-09-26_08h55.50.291,vbt_B1_day2,2022.2.4,MacIntel,61.05006105,55918,,,,,,,,,,,,,,,,,,,,,,,,,,,down,0,12.677,,0.328888889,-0.156666667,1,0,0,0.602,0,130,130,169,1,oprotten,images/br_oprotten.png,images/cb_oprotten.png,0,,,,,,,,,,,,,,,,,,,,,,
,,,,,,,2023-09-26_08h55.50.291,vbt_B1_day2,2022.2.4,MacIntel,61.05006105,55918,,,,,,,,,,,,,,,,,,,,,,,,,,,down,0,5.572,,0.328888889,-0.156666667,1,0,0,0.867,0,131,131,74,1,graaf,images/br_graaf.png,images/cb_graaf.png,0,,,,,,,,,,,,,,,,,,,,,,
,,,,,,,2023-09-26_08h55.50.291,vbt_B1_day2,2022.2.4,MacIntel,61.05006105,55918,,,,,,,,,,,,,,,,,,,,,,,,,,,down,0,17.254,,0.328888889,-0.156666667,1,0,0,0.606,0,132,132,138,1,akkoord,images/br_akkoord.png,images/cb_akkoord.png,1,akkoord,,,,,,,,,,,,,,,,,,,,,
,,,,,,,2023-09-26_08h55.50.291,vbt_B1_day2,2022.2.4,MacIntel,61.05006105,55918,,,,,,,,,,,,,,,,,,,,,,,,,,,down,0,20.46,,0.328888889,-0.156666667,1,0,0,2.518,0,133,133,152,1,afnemen,images/br_afnemen.png,images/cb_afnemen.png,0,,,,,,,,,,,,,,,,,,,,,,
,,,,,,,2023-09-26_08h55.50.291,vbt_B1_day2,2022.2.4,MacIntel,61.05006105,55918,,,,,,,,,,,,,,,,,,,,,,,,,,,down,0,5.285,,0.328888889,-0.156666667,1,0,0,0.784,0,134,134,12,1,kust,images/br_kust.png,images/cb_kust.png,0,,,,,,,,,,,,,,,,,,,,,,
,,,,,,,2023-09-26_08h55.50.291,vbt_B1_day2,2022.2.4,MacIntel,61.05006105,55918,,,,,,,,,,,,,,,,,,,,,,,,,,,down,0,13.891,,0.328888889,-0.156666667,1,0,0,0.669,0,135,135,24,1,jurk,images/br_jurk.png,images/cb_jurk.png,0,,,,,,,,,,,,,,,,,,,,,,
,,,,,,,2023-09-26_08h55.50.291,vbt_B1_day2,2022.2.4,MacIntel,61.05006105,55918,,,,,,,,,,,,,,,,,,,,,,,,,,,down,0,9.77,,0.326666667,-0.155555556,1,0,0,2.285,0,136,136,100,1,geduld,images/br_geduld.png,images/cb_geduld.png,0,,,,,,,,,,,,,,,,,,,,,,
,,,,,,,2023-09-26_08h55.50.291,vbt_B1_day2,2022.2.4,MacIntel,61.05006105,55918,,,,,,,,,,,,,,,,,,,,,,,,,,,down,0,7.151,,0.338888889,-0.16,1,0,0,0.834,0,137,137,124,1,bloeien,images/br_bloeien.png,images/cb_bloeien.png,0,,,,,,,,,,,,,,,,,,,,,,
,,,,,,,2023-09-26_08h55.50.291,vbt_B1_day2,2022.2.4,MacIntel,61.05006105,55918,,,,,,,,,,,,,,,,,,,,,,,,,,,down,0,10.492,,0.338888889,-0.16,1,0,0,0.4,0,138,138,182,1,bijkomen,images/br_bijkomen.png,images/cb_bijkomen.png,0,,,,,,,,,,,,,,,,,,,,,,
,,,,,,,2023-09-26_08h55.50.291,vbt_B1_day2,2022.2.4,MacIntel,61.05006105,55918,,,,,,,,,,,,,,,,,,,,,,,,,,,down,0,5.209,,0.338888889,-0.16,1,0,0,0.566,0,139,139,85,1,heilig,images/br_heilig.png,images/cb_heilig.png,0,,,,,,,,,,,,,,,,,,,,,,
,,,,,,,2023-09-26_08h55.50.291,vbt_B1_day2,2022.2.4,MacIntel,61.05006105,55918,,,,,,,,,,,,,,,,,,,,,,,,,,,down,0,3.973,,0.338888889,-0.16,1,0,0,0.684,0,140,140,168,1,bisschop,images/br_bisschop.png,images/cb_bisschop.png,0,,,,,,,,,,,,,,,,,,,,,,
,,,,,,,2023-09-26_08h55.50.291,vbt_B1_day2,2022.2.4,MacIntel,61.05006105,55918,,,,,,,,,,,,,,,,,,,,,,,,,,,down,0,42.748,,0.411111111,-0.16,1,0,0,1.716,0,141,141,127,1,doodmoe,images/br_doodmoe.png,images/cb_doodmoe.png,0,,,,,,,,,,,,,,,,,,,,,,
,,,,,,,2023-09-26_08h55.50.291,vbt_B1_day2,2022.2.4,MacIntel,61.05006105,55918,,,,,,,,,,,,,,,,,,,,,,,,,,,down,0,5.711,,0.411111111,-0.16,1,0,0,0.584,0,142,142,44,1,flits,images/br_flits.png,images/cb_flits.png,0,,,,,,,,,,,,,,,,,,,,,,
,,,,,,,2023-09-26_08h55.50.291,vbt_B1_day2,2022.2.4,MacIntel,61.05006105,55918,,,,,,,,,,,,,,,,,,,,,,,,,,,down,0,7.419,,0.411111111,-0.16,1,0,0,0.473,0,143,143,98,1,kreeft,images/br_kreeft.png,images/cb_kreeft.png,1,kreeft,,,,,,,,,,,,,,,,,,,,,
,,,,,,,2023-09-26_08h55.50.291,vbt_B1_day2,2022.2.4,MacIntel,61.05006105,55918,,,,,,,,,,,,,,,,,,,,,,,,,,,down,0,14.023,,0.411111111,-0.16,1,0,0,0.651,0,144,144,135,1,gedicht,images/br_gedicht.png,images/cb_gedicht.png,0,,,,,,,,,,,,,,,,,,,,,,
,,,,,,,2023-09-26_08h55.50.291,vbt_B1_day2,2022.2.4,MacIntel,61.05006105,55918,,,,,,,,,,,,,,,,,,,,,,,,,,,down,0,6.809,,0.411111111,-0.16,0,0,1,1.334,0,145,145,186,1,voorraad,images/br_voorraad.png,images/cb_voorraad.png,0,,,,,,,,,,,,,,,,,,,,,,
,,,,,,,2023-09-26_08h55.50.291,vbt_B1_day2,2022.2.4,MacIntel,61.05006105,55918,,,,,,,,,,,,,,,,,,,,,,,,,,,down,0,11.395,,0.36,-0.136666667,1,0,0,1.534,0,146,146,147,1,komisch,images/br_komisch.png,images/cb_komisch.png,0,,,,,,,,,,,,,,,,,,,,,,
,,,,,,,2023-09-26_08h55.50.291,vbt_B1_day2,2022.2.4,MacIntel,61.05006105,55918,,,,,,,,,,,,,,,,,,,,,,,,,,,down,0,3.77,,0.36,-0.136666667,1,0,0,0.684,0,147,147,32,1,palm,images/br_palm.png,images/cb_palm.png,0,,,,,,,,,,,,,,,,,,,,,,
,,,,,,,2023-09-26_08h55.50.291,vbt_B1_day2,2022.2.4,MacIntel,61.05006105,55918,,,,,,,,,,,,,,,,,,,,,,,,,,,down,0,3.62,,0.367777778,-0.136666667,1,0,0,0.635,0,148,148,118,1,vinger,images/br_vinger.png,images/cb_vinger.png,0,,,,,,,,,,,,,,,,,,,,,,
,,,,,,,2023-09-26_08h55.50.291,vbt_B1_day2,2022.2.4,MacIntel,61.05006105,55918,,,,,,,,,,,,,,,,,,,,,,,,,,,down,0,2.738,,0.371111111,-0.135555556,1,0,0,0.833,0,149,149,171,1,aarzelen,images/br_aarzelen.png,images/cb_aarzelen.png,0,,,,,,,,,,,,,,,,,,,,,,
,,,,,,,2023-09-26_08h55.50.291,vbt_B1_day2,2022.2.4,MacIntel,61.05006105,55918,,,,,,,,,,,,,,,,,,,,,,,,,,,down,0,8.078,,0.371111111,-0.133333333,1,0,0,0.552,0,150,150,68,1,schat,images/br_schat.png,images/cb_schat.png,0,,,,,,,,,,,,,,,,,,,,,,
,,,,,,,2023-09-26_08h55.50.291,vbt_B1_day2,2022.2.4,MacIntel,61.05006105,55918,,,,,,,,,,,,,,,,,,,,,,,,,,,down,0,12.37,,0.37,-0.133333333,1,0,0,0.999,0,151,151,172,1,weigeren,images/br_weigeren.png,images/cb_weigeren.png,0,,,,,,,,,,,,,,,,,,,,,,
,,,,,,,2023-09-26_08h55.50.291,vbt_B1_day2,2022.2.4,MacIntel,61.05006105,55918,,,,,,,,,,,,,,,,,,,,,,,,,,,down,0,7.104,,0.37,-0.133333333,1,0,0,0.683,0,152,152,122,1,waarvan,images/br_waarvan.png,images/cb_waarvan.png,0,,,,,,,,,,,,,,,,,,,,,,
,,,,,,,2023-09-26_08h55.50.291,vbt_B1_day2,2022.2.4,MacIntel,61.05006105,55918,,,,,,,,,,,,,,,,,,,,,,,,,,,down,0,28.64,,0.37,-0.133333333,1,0,0,0.883,0,153,153,133,1,seizoen,images/br_seizoen.png,images/cb_seizoen.png,0,,,,,,,,,,,,,,,,,,,,,,
,,,,,,,2023-09-26_08h55.50.291,vbt_B1_day2,2022.2.4,MacIntel,61.05006105,55918,,,,,,,,,,,,,,,,,,,,,,,,,,,down,0,8.409,,0.37,-0.133333333,1,0,0,0.484,0,154,154,71,1,bever,images/br_bever.png,images/cb_bever.png,0,,,,,,,,,,,,,,,,,,,,,,
,,,,,,,2023-09-26_08h55.50.291,vbt_B1_day2,2022.2.4,MacIntel,61.05006105,55918,,,,,,,,,,,,,,,,,,,,,,,,,,,down,0,7.21,,0.37,-0.133333333,1,0,0,0.599,0,155,155,121,1,twijfel,images/br_twijfel.png,images/cb_twijfel.png,0,,,,,,,,,,,,,,,,,,,,,,
,,,,,,,2023-09-26_08h55.50.291,vbt_B1_day2,2022.2.4,MacIntel,61.05006105,55918,,,,,,,,,,,,,,,,,,,,,,,,,,,down,0,13.409,,0.37,-0.133333333,1,0,0,0.435,0,156,156,195,1,middelen,images/br_middelen.png,images/cb_middelen.png,0,,,,,,,,,,,,,,,,,,,,,,
,,,,,,,2023-09-26_08h55.50.291,vbt_B1_day2,2022.2.4,MacIntel,61.05006105,55918,,,,,,,,,,,,,,,,,,,,,,,,,,,down,0,3.982,,0.37,-0.133333333,1,0,0,0.517,0,157,157,31,1,poes,images/br_poes.png,images/cb_poes.png,0,,,,,,,,,,,,,,,,,,,,,,
,,,,,,,2023-09-26_08h55.50.291,vbt_B1_day2,2022.2.4,MacIntel,61.05006105,55918,,,,,,,,,,,,,,,,,,,,,,,,,,,down,0,7.67,,0.37,-0.133333333,1,0,0,0.699,0,158,158,94,1,oceaan,images/br_oceaan.png,images/cb_oceaan.png,0,,,,,,,,,,,,,,,,,,,,,,
,,,,,,,2023-09-26_08h55.50.291,vbt_B1_day2,2022.2.4,MacIntel,61.05006105,55918,,,,,,,,,,,,,,,,,,,,,,,,,,,down,0,28.549,,0.37,-0.133333333,1,0,0,0.397,0,159,159,15,1,soda,images/br_soda.png,images/cb_soda.png,0,,,,,,,,,,,,,,,,,,,,,,
,,,,,,,2023-09-26_08h55.50.291,vbt_B1_day2,2022.2.4,MacIntel,61.05006105,55918,,,,,,,,,,,,,,,,,,,,,,,,,,,down,0,8.646,,0.37,-0.133333333,1,0,0,0.516,0,160,160,2,1,jaar,images/br_jaar.png,images/cb_jaar.png,0,,,,,,,,,,,,,,,,,,,,,,
,,,,,,,2023-09-26_08h55.50.291,vbt_B1_day2,2022.2.4,MacIntel,61.05006105,55918,,,,,,,,,,,,,,,,,,,,,,,,,,,down,0,7.777,,0.37,-0.133333333,1,0,0,0.367,0,161,161,141,1,knielen,images/br_knielen.png,images/cb_knielen.png,0,,,,,,,,,,,,,,,,,,,,,,
,,,,,,,2023-09-26_08h55.50.291,vbt_B1_day2,2022.2.4,MacIntel,61.05006105,55918,,,,,,,,,,,,,,,,,,,,,,,,,,,down,0,8.86,,0.37,-0.133333333,1,0,0,0.316,0,162,162,92,1,geheim,images/br_geheim.png,images/cb_geheim.png,0,,,,,,,,,,,,,,,,,,,,,,
,,,,,,,2023-09-26_08h55.50.291,vbt_B1_day2,2022.2.4,MacIntel,61.05006105,55918,,,,,,,,,,,,,,,,,,,,,,,,,,,down,0,0.427,,0.37,-0.133333333,1,0,0,0.332,0,163,163,84,1,lokken,images/br_lokken.png,images/cb_lokken.png,0,,,,,,,,,,,,,,,,,,,,,,
,,,,,,,2023-09-26_08h55.50.291,vbt_B1_day2,2022.2.4,MacIntel,61.05006105,55918,,,,,,,,,,,,,,,,,,,,,,,,,,,down,0,4.855,,0.37,-0.133333333,1,0,0,0.332,0,164,164,170,1,schatten,images/br_schatten.png,images/cb_schatten.png,0,,,,,,,,,,,,,,,,,,,,,,
,,,,,,,2023-09-26_08h55.50.291,vbt_B1_day2,2022.2.4,MacIntel,61.05006105,55918,,,,,,,,,,,,,,,,,,,,,,,,,,,down,0,1.025,,0.37,-0.133333333,1,0,0,0.317,0,165,165,0,1,slak,images/br_slak.png,images/cb_slak.png,0,,,,,,,,,,,,,,,,,,,,,,
,,,,,,,2023-09-26_08h55.50.291,vbt_B1_day2,2022.2.4,MacIntel,61.05006105,55918,,,,,,,,,,,,,,,,,,,,,,,,,,,down,0,16.036,,0.37,-0.133333333,1,0,0,0.466,0,166,166,134,1,geliefd,images/br_geliefd.png,images/cb_geliefd.png,0,,,,,,,,,,,,,,,,,,,,,,
,,,,,,,2023-09-26_08h55.50.291,vbt_B1_day2,2022.2.4,MacIntel,61.05006105,55918,,,,,,,,,,,,,,,,,,,,,,,,,,,down,0,5.719,,0.35,-0.171111111,1,0,0,1.125,0,167,167,58,1,tekst,images/br_tekst.png,images/cb_tekst.png,1,tekst,,,,,,,,,,,,,,,,,,,,,
,,,,,,,2023-09-26_08h55.50.291,vbt_B1_day2,2022.2.4,MacIntel,61.05006105,55918,,,,,,,,,,,,,,,,,,,,,,,,,,,down,0,15.057,,0.35,-0.176666667,1,0,0,0.266,0,168,168,70,1,ijdel,images/br_ijdel.png,images/cb_ijdel.png,0,,,,,,,,,,,,,,,,,,,,,,
,,,,,,,2023-09-26_08h55.50.291,vbt_B1_day2,2022.2.4,MacIntel,61.05006105,55918,,,,,,,,,,,,,,,,,,,,,,,,,,,down,0,2.924,,0.35,-0.176666667,1,0,0,0.384,0,169,169,52,1,wagon,images/br_wagon.png,images/cb_wagon.png,0,,,,,,,,,,,,,,,,,,,,,,
,,,,,,,2023-09-26_08h55.50.291,vbt_B1_day2,2022.2.4,MacIntel,61.05006105,55918,,,,,,,,,,,,,,,,,,,,,,,,,,,down,0,0.39,,0.35,-0.176666667,1,0,0,0.734,0,170,170,49,1,laken,images/br_laken.png,images/cb_laken.png,0,,,,,,,,,,,,,,,,,,,,,,
,,,,,,,2023-09-26_08h55.50.291,vbt_B1_day2,2022.2.4,MacIntel,61.05006105,55918,,,,,,,,,,,,,,,,,,,,,,,,,,,down,0,13.908,,0.35,-0.176666667,1,0,0,0.367,0,171,171,108,1,excuus,images/br_excuus.png,images/cb_excuus.png,0,,,,,,,,,,,,,,,,,,,,,,
,,,,,,,2023-09-26_08h55.50.291,vbt_B1_day2,2022.2.4,MacIntel,61.05006105,55918,,,,,,,,,,,,,,,,,,,,,,,,,,,down,0,11.259,,0.35,-0.176666667,1,0,0,0.532,0,172,172,4,1,moes,images/br_moes.png,images/cb_moes.png,0,,,,,,,,,,,,,,,,,,,,,,
,,,,,,,2023-09-26_08h55.50.291,vbt_B1_day2,2022.2.4,MacIntel,61.05006105,55918,,,,,,,,,,,,,,,,,,,,,,,,,,,down,0,3.975,,0.462222222,-0.115555556,1,0,0,0.468,0,173,173,57,1,steek,images/br_steek.png,images/cb_steek.png,1,steek,,,,,,,,,,,,,,,,,,,,,
,,,,,,,2023-09-26_08h55.50.291,vbt_B1_day2,2022.2.4,MacIntel,61.05006105,55918,,,,,,,,,,,,,,,,,,,,,,,,,,,down,0,4.351,,0.462222222,-0.115555556,1,0,0,0.376,0,174,174,19,1,geit,images/br_geit.png,images/cb_geit.png,1,geit,,,,,,,,,,,,,,,,,,,,,
,,,,,,,2023-09-26_08h55.50.291,vbt_B1_day2,2022.2.4,MacIntel,61.05006105,55918,,,,,,,,,,,,,,,,,,,,,,,,,,,down,0,23.006,,0.462222222,-0.115555556,1,0,0,0.683,0,175,175,160,1,daarheen,images/br_daarheen.png,images/cb_daarheen.png,0,,,,,,,,,,,,,,,,,,,,,,
,,,,,,,2023-09-26_08h55.50.291,vbt_B1_day2,2022.2.4,MacIntel,61.05006105,55918,,,,,,,,,,,,,,,,,,,,,,,,,,,down,0,7.742,,0.462222222,-0.115555556,1,0,0,0.418,0,176,176,38,1,baai,images/br_baai.png,images/cb_baai.png,0,,,,,,,,,,,,,,,,,,,,,,
,,,,,,,2023-09-26_08h55.50.291,vbt_B1_day2,2022.2.4,MacIntel,61.05006105,55918,,,,,,,,,,,,,,,,,,,,,,,,,,,down,0,7.236,,0.462222222,-0.115555556,1,0,0,0.817,0,177,177,128,1,prikken,images/br_prikken.png,images/cb_prikken.png,0,,,,,,,,,,,,,,,,,,,,,,
,,,,,,,2023-09-26_08h55.50.291,vbt_B1_day2,2022.2.4,MacIntel,61.05006105,55918,,,,,,,,,,,,,,,,,,,,,,,,,,,down,0,14.777,,0.462222222,-0.115555556,1,0,0,0.399,0,178,178,119,1,liefje,images/br_liefje.png,images/cb_liefje.png,0,,,,,,,,,,,,,,,,,,,,,,
,,,,,,,2023-09-26_08h55.50.291,vbt_B1_day2,2022.2.4,MacIntel,61.05006105,55918,,,,,,,,,,,,,,,,,,,,,,,,,,,down,0,1.05,,0.462222222,-0.115555556,1,0,0,0.441,0,179,179,17,1,taal,images/br_taal.png,images/cb_taal.png,1,taal,,,,,,,,,,,,,,,,,,,,,
,,,,,,,2023-09-26_08h55.50.291,vbt_B1_day2,2022.2.4,MacIntel,61.05006105,55918,,,,,,,,,,,,,,,,,,,,,,,,,,,down,0,9.07,,0.462222222,-0.115555556,1,0,0,0.425,0,180,180,177,1,maaltijd,images/br_maaltijd.png,images/cb_maaltijd.png,1,maaltijd,,,,,,,,,,,,,,,,,,,,,
,,,,,,,2023-09-26_08h55.50.291,vbt_B1_day2,2022.2.4,MacIntel,61.05006105,55918,,,,,,,,,,,,,,,,,,,,,,,,,,,down,0,5.659,,0.462222222,-0.115555556,1,0,0,0.449,0,181,181,67,1,zwart,images/br_zwart.png,images/cb_zwart.png,0,,,,,,,,,,,,,,,,,,,,,,
,,,,,,,2023-09-26_08h55.50.291,vbt_B1_day2,2022.2.4,MacIntel,61.05006105,55918,,,,,,,,,,,,,,,,,,,,,,,,,,,down,0,16.018,,0.464444444,-0.133333333,1,0,0,0.5,0,182,182,197,1,spanning,images/br_spanning.png,images/cb_spanning.png,0,,,,,,,,,,,,,,,,,,,,,,
,,,,,,,2023-09-26_08h55.50.291,vbt_B1_day2,2022.2.4,MacIntel,61.05006105,55918,,,,,,,,,,,,,,,,,,,,,,,,,,,down,0,8.792,,0.464444444,-0.133333333,1,0,0,0.384,0,183,183,63,1,flirt,images/br_flirt.png,images/cb_flirt.png,0,,,,,,,,,,,,,,,,,,,,,,
,,,,,,,2023-09-26_08h55.50.291,vbt_B1_day2,2022.2.4,MacIntel,61.05006105,55918,,,,,,,,,,,,,,,,,,,,,,,,,,,down,0,3.239,,0.463333333,-0.135555556,1,0,0,0.45,0,184,184,46,1,jagen,images/br_jagen.png,images/cb_jagen.png,0,,,,,,,,,,,,,,,,,,,,,,
,,,,,,,2023-09-26_08h55.50.291,vbt_B1_day2,2022.2.4,MacIntel,61.05006105,55918,,,,,,,,,,,,,,,,,,,,,,,,,,,down,0,2.072,,0.282222222,-0.39,1,0,0,0.333,0,185,185,148,1,smullen,images/br_smullen.png,images/cb_smullen.png,0,,,,,,,,,,,,,,,,,,,,,,
,,,,,,,2023-09-26_08h55.50.291,vbt_B1_day2,2022.2.4,MacIntel,61.05006105,55918,,,,,,,,,,,,,,,,,,,,,,,,,,,down,0,13.491,,0.282222222,-0.39,1,0,0,0.382,0,186,186,86,1,woning,images/br_woning.png,images/cb_woning.png,0,,,,,,,,,,,,,,,,,,,,,,
,,,,,,,2023-09-26_08h55.50.291,vbt_B1_day2,2022.2.4,MacIntel,61.05006105,55918,,,,,,,,,,,,,,,,,,,,,,,,,,,down,0,4.133,,0.282222222,-0.39,1,0,0,0.367,0,187,187,112,1,lukken,images/br_lukken.png,images/cb_lukken.png,0,,,,,,,,,,,,,,,,,,,,,,
,,,,,,,2023-09-26_08h55.50.291,vbt_B1_day2,2022.2.4,MacIntel,61.05006105,55918,,,,,,,,,,,,,,,,,,,,,,,,,,,down,0,3.444,,0.282222222,-0.39,1,0,0,0.335,0,188,188,81,1,dubbel,images/br_dubbel.png,images/cb_dubbel.png,0,,,,,,,,,,,,,,,,,,,,,,
,,,,,,,2023-09-26_08h55.50.291,vbt_B1_day2,2022.2.4,MacIntel,61.05006105,55918,,,,,,,,,,,,,,,,,,,,,,,,,,,down,0,12.22,,0.282222222,-0.39,1,0,0,0.466,0,189,189,162,1,uitdelen,images/br_uitdelen.png,images/cb_uitdelen.png,0,,,,,,,,,,,,,,,,,,,,,,
,,,,,,,2023-09-26_08h55.50.291,vbt_B1_day2,2022.2.4,MacIntel,61.05006105,55918,,,,,,,,,,,,,,,,,,,,,,,,,,,down,0,7.026,,0.282222222,-0.39,1,0,0,0.384,0,190,190,99,1,koffie,images/br_koffie.png,images/cb_koffie.png,1,koffie,,,,,,,,,,,,,,,,,,,,,
,,,,,,,2023-09-26_08h55.50.291,vbt_B1_day2,2022.2.4,MacIntel,61.05006105,55918,,,,,,,,,,,,,,,,,,,,,,,,,,,down,0,34.855,,0.498888889,-0.197777778,1,0,0,0.375,0,191,191,16,1,ziek,images/br_ziek.png,images/cb_ziek.png,1,ziek,,,,,,,,,,,,,,,,,,,,,
,,,,,,,2023-09-26_08h55.50.291,vbt_B1_day2,2022.2.4,MacIntel,61.05006105,55918,,,,,,,,,,,,,,,,,,,,,,,,,,,down,0,11.27,,0.498888889,-0.197777778,1,0,0,0.717,0,192,192,23,1,zout,images/br_zout.png,images/cb_zout.png,0,,,,,,,,,,,,,,,,,,,,,,
,,,,,,,2023-09-26_08h55.50.291,vbt_B1_day2,2022.2.4,MacIntel,61.05006105,55918,,,,,,,,,,,,,,,,,,,,,,,,,,,down,0,14.402,,0.498888889,-0.197777778,1,0,0,0.582,0,193,193,145,1,invloed,images/br_invloed.png,images/cb_invloed.png,0,,,,,,,,,,,,,,,,,,,,,,
,,,,,,,2023-09-26_08h55.50.291,vbt_B1_day2,2022.2.4,MacIntel,61.05006105,55918,,,,,,,,,,,,,,,,,,,,,,,,,,,down,0,0.49,,0.498888889,-0.197777778,1,0,0,0.4,0,194,194,29,1,baas,images/br_baas.png,images/cb_baas.png,0,,,,,,,,,,,,,,,,,,,,,,
,,,,,,,2023-09-26_08h55.50.291,vbt_B1_day2,2022.2.4,MacIntel,61.05006105,55918,,,,,,,,,,,,,,,,,,,,,,,,,,,down,0,46.273,,0.498888889,-0.197777778,1,0,0,0.357,0,195,195,178,1,huisdier,images/br_huisdier.png,images/cb_huisdier.png,1,huisdier,,,,,,,,,,,,,,,,,,,,,
,,,,,,,2023-09-26_08h55.50.291,vbt_B1_day2,2022.2.4,MacIntel,61.05006105,55918,,,,,,,,,,,,,,,,,,,,,,,,,,,down,0,4.076,,0.5,-0.211111111,1,0,0,0.533,0,196,196,72,1,strak,images/br_strak.png,images/cb_strak.png,0,,,,,,,,,,,,,,,,,,,,,,
,,,,,,,2023-09-26_08h55.50.291,vbt_B1_day2,2022.2.4,MacIntel,61.05006105,55918,,,,,,,,,,,,,,,,,,,,,,,,,,,down,0,15.243,,0.5,-0.211111111,1,0,0,0.65,0,197,197,106,1,zingen,images/br_zingen.png,images/cb_zingen.png,0,,,,,,,,,,,,,,,,,,,,,,
,,,,,,,2023-09-26_08h55.50.291,vbt_B1_day2,2022.2.4,MacIntel,61.05006105,55918,,,,,,,,,,,,,,,,,,,,,,,,,,,down,0,2.456,,0.5,-0.211111111,1,0,0,0.368,0,198,198,113,1,koppen,images/br_koppen.png,images/cb_koppen.png,0,,,,,,,,,,,,,,,,,,,,,,
,,,,,,,2023-09-26_08h55.50.291,vbt_B1_day2,2022.2.4,MacIntel,61.05006105,55918,,,,,,,,,,,,,,,,,,,,,,,,,,,down,0,2.074,,0.5,-0.211111111,1,0,0,0.367,0,199,199,48,1,steel,images/br_steel.png,images/cb_steel.png,0,,,,,,,,,,,,,,,,,,,,,,
,,,,,,,2023-09-26_08h55.50.291,vbt_B1_day2,2022.2.4,MacIntel,61.05006105,55918,,,,,,,,,,,,,,,,,,,,,,,,,,,,,,,,,,,,,,,,,,,,,,,0.218888889,-0.005555556,1,0,0,,,,,,,,,,,,,,,,
,,,,,,,2023-09-26_08h55.50.291,vbt_B1_day2,2022.2.4,MacIntel,61.05006105,55918,,,,,,,,,,,,,,,,,,,,,,,,,,,,,,,,,,,,,,,,,,,,,,,,,,,,0.17,-0.125555556,1,0,0,,,,,,,,,,,
,,,,,,,2023-09-26_08h55.50.291,vbt_B1_day2,2022.2.4,MacIntel,61.05006105,55918,,,,,,,,,,,,,,,,,,,,,,,,,,,,,,,,,,,,,,,,,,bereuwen,images/br_bereuwen.png,images/cb_bereuwen.png,,beklemmen,,,,,,,,,,,0.128888889,-0.212222222,1,0,0,beklemmen,0,0,0,39,1
,,,,,,,2023-09-26_08h55.50.291,vbt_B1_day2,2022.2.4,MacIntel,61.05006105,55918,,,,,,,,,,,,,,,,,,,,,,,,,,,,,,,,,,,,,,,,,,heilig,images/br_heilig.png,images/cb_heilig.png,,heilig,,,,,,,,,,,0.168888889,-0.107777778,1,0,0,heilig,0,1,1,9,1
,,,,,,,2023-09-26_08h55.50.291,vbt_B1_day2,2022.2.4,MacIntel,61.05006105,55918,,,,,,,,,,,,,,,,,,,,,,,,,,,,,,,,,,,,,,,,,,zegel,images/br_zegel.png,images/cb_zegel.png,,zegel,,,,,,,,,,,0.166666667,0.025555556,1,0,0,zegel,0,2,2,46,1
,,,,,,,2023-09-26_08h55.50.291,vbt_B1_day2,2022.2.4,MacIntel,61.05006105,55918,,,,,,,,,,,,,,,,,,,,,,,,,,,,,,,,,,,,,,,,,,sjijfel,images/br_sjijfel.png,images/cb_sjijfel.png,,sje....,,,,,,,,,,,0.202222222,0.032222222,1,0,0,sje....,0,3,3,33,1
,,,,,,,2023-09-26_08h55.50.291,vbt_B1_day2,2022.2.4,MacIntel,61.05006105,55918,,,,,,,,,,,,,,,,,,,,,,,,,,,,,,,,,,,,,,,,,,diep,images/br_diep.png,images/cb_diep.png,,diep,,,,,,,,,,,0.228888889,0.193333333,1,0,0,diep,0,4,4,2,1
,,,,,,,2023-09-26_08h55.50.291,vbt_B1_day2,2022.2.4,MacIntel,61.05006105,55918,,,,,,,,,,,,,,,,,,,,,,,,,,,,,,,,,,,,,,,,,,strikken,images/br_strikken.png,images/cb_strikken.png,,strikken,,,,,,,,,,,0.214444444,0.187777778,1,0,0,strikken,0,5,5,18,1
,,,,,,,2023-09-26_08h55.50.291,vbt_B1_day2,2022.2.4,MacIntel,61.05006105,55918,,,,,,,,,,,,,,,,,,,,,,,,,,,,,,,,,,,,,,,,,,agressie,images/br_agressie.png,images/cb_agressie.png,,agressie,,,,,,,,,,,0.222222222,0.25,1,0,0,agressie,0,6,6,59,1
,,,,,,,2023-09-26_08h55.50.291,vbt_B1_day2,2022.2.4,MacIntel,61.05006105,55918,,,,,,,,,,,,,,,,,,,,,,,,,,,,,,,,,,,,,,,,,,koorts,images/br_koorts.png,images/cb_koorts.png,,koorts,,,,,,,,,,,0.24,0.292222222,1,0,0,koorts,0,7,7,50,1
,,,,,,,2023-09-26_08h55.50.291,vbt_B1_day2,2022.2.4,MacIntel,61.05006105,55918,,,,,,,,,,,,,,,,,,,,,,,,,,,,,,,,,,,,,,,,,,goon,images/br_goon.png,images/cb_goon.png,,hoog,,,,,,,,,,,0.146666667,0.126666667,1,0,0,hoog,0,8,8,23,1
,,,,,,,2023-09-26_08h55.50.291,vbt_B1_day2,2022.2.4,MacIntel,61.05006105,55918,,,,,,,,,,,,,,,,,,,,,,,,,,,,,,,,,,,,,,,,,,kijlen,images/br_kijlen.png,images/cb_kijlen.png,,kijlen,,,,,,,,,,,0.144444444,0.12,1,0,0,kijlen,0,9,9,31,1
,,,,,,,2023-09-26_08h55.50.291,vbt_B1_day2,2022.2.4,MacIntel,61.05006105,55918,,,,,,,,,,,,,,,,,,,,,,,,,,,,,,,,,,,,,,,,,,joes,images/br_joes.png,images/cb_joes.png,,does,,,,,,,,,,,0.141111111,0.182222222,1,0,0,does,0,10,10,20,1
,,,,,,,2023-09-26_08h55.50.291,vbt_B1_day2,2022.2.4,MacIntel,61.05006105,55918,,,,,,,,,,,,,,,,,,,,,,,,,,,,,,,,,,,,,,,,,,flits,images/br_flits.png,images/cb_flits.png,,lets,,,,,,,,,,,0.141111111,0.182222222,1,0,0,lets,0,11,11,4,1
,,,,,,,2023-09-26_08h55.50.291,vbt_B1_day2,2022.2.4,MacIntel,61.05006105,55918,,,,,,,,,,,,,,,,,,,,,,,,,,,,,,,,,,,,,,,,,,breuk,images/br_breuk.png,images/cb_breuk.png,,bremk,,,,,,,,,,,0.141111111,0.182222222,1,0,0,bremk,0,12,12,45,1
,,,,,,,2023-09-26_08h55.50.291,vbt_B1_day2,2022.2.4,MacIntel,61.05006105,55918,,,,,,,,,,,,,,,,,,,,,,,,,,,,,,,,,,,,,,,,,,remel,images/br_remel.png,images/cb_remel.png,,remel,,,,,,,,,,,0.111111111,-0.026666667,1,0,0,remel,0,13,13,25,1
,,,,,,,2023-09-26_08h55.50.291,vbt_B1_day2,2022.2.4,MacIntel,61.05006105,55918,,,,,,,,,,,,,,,,,,,,,,,,,,,,,,,,,,,,,,,,,,systeem,images/br_systeem.png,images/cb_systeem.png,,systeem,,,,,,,,,,,0.111111111,-0.026666667,1,0,0,systeem,0,14,14,54,1
,,,,,,,2023-09-26_08h55.50.291,vbt_B1_day2,2022.2.4,MacIntel,61.05006105,55918,,,,,,,,,,,,,,,,,,,,,,,,,,,,,,,,,,,,,,,,,,zwager,images/br_zwager.png,images/cb_zwager.png,,zager,,,,,,,,,,,0.111111111,-0.026666667,1,0,0,zager,0,15,15,49,1
,,,,,,,2023-09-26_08h55.50.291,vbt_B1_day2,2022.2.4,MacIntel,61.05006105,55918,,,,,,,,,,,,,,,,,,,,,,,,,,,,,,,,,,,,,,,,,,blad,images/br_blad.png,images/cb_blad.png,,blad,,,,,,,,,,,0.111111111,-0.026666667,1,0,0,blad,0,16,16,1,1
,,,,,,,2023-09-26_08h55.50.291,vbt_B1_day2,2022.2.4,MacIntel,61.05006105,55918,,,,,,,,,,,,,,,,,,,,,,,,,,,,,,,,,,,,,,,,,,krimmen,images/br_krimmen.png,images/cb_krimmen.png,,krimmen,,,,,,,,,,,0.111111111,-0.026666667,1,0,0,krimmen,0,17,17,35,1
,,,,,,,2023-09-26_08h55.50.291,vbt_B1_day2,2022.2.4,MacIntel,61.05006105,55918,,,,,,,,,,,,,,,,,,,,,,,,,,,,,,,,,,,,,,,,,,aanvraag,images/br_aanvraag.png,images/cb_aanvraag.png,,aanvraag,,,,,,,,,,,0.111111111,-0.026666667,1,0,0,aanvraag,0,18,18,57,1
,,,,,,,2023-09-26_08h55.50.291,vbt_B1_day2,2022.2.4,MacIntel,61.05006105,55918,,,,,,,,,,,,,,,,,,,,,,,,,,,,,,,,,,,,,,,,,,negel,images/br_negel.png,images/cb_negel.png,,negel,,,,,,,,,,,0.111111111,-0.026666667,1,0,0,negel,0,19,19,24,1
,,,,,,,2023-09-26_08h55.50.291,vbt_B1_day2,2022.2.4,MacIntel,61.05006105,55918,,,,,,,,,,,,,,,,,,,,,,,,,,,,,,,,,,,,,,,,,,badon,images/br_badon.png,images/cb_badon.png,,badon,,,,,,,,,,,0.111111111,-0.031111111,1,0,0,badon,0,20,20,26,1
,,,,,,,2023-09-26_08h55.50.291,vbt_B1_day2,2022.2.4,MacIntel,61.05006105,55918,,,,,,,,,,,,,,,,,,,,,,,,,,,,,,,,,,,,,,,,,,lurgen,images/br_lurgen.png,images/cb_lurgen.png,,lmrgen,,,,,,,,,,,0.111111111,-0.031111111,1,0,0,lmrgen,0,21,21,29,1
,,,,,,,2023-09-26_08h55.50.291,vbt_B1_day2,2022.2.4,MacIntel,61.05006105,55918,,,,,,,,,,,,,,,,,,,,,,,,,,,,,,,,,,,,,,,,,,bloeien,images/br_bloeien.png,images/cb_bloeien.png,,bloeien,,,,,,,,,,,0.111111111,-0.031111111,1,0,0,bloeien,0,22,22,12,1
,,,,,,,2023-09-26_08h55.50.291,vbt_B1_day2,2022.2.4,MacIntel,61.05006105,55918,,,,,,,,,,,,,,,,,,,,,,,,,,,,,,,,,,,,,,,,,,ningen,images/br_ningen.png,images/cb_ningen.png,,zingen,,,,,,,,,,,0.111111111,-0.031111111,1,0,0,zingen,0,23,23,28,1
,,,,,,,2023-09-26_08h55.50.291,vbt_B1_day2,2022.2.4,MacIntel,61.05006105,55918,,,,,,,,,,,,,,,,,,,,,,,,,,,,,,,,,,,,,,,,,,aanzien,images/br_aanzien.png,images/cb_aanzien.png,,aanzien,,,,,,,,,,,0.111111111,-0.031111111,1,0,0,aanzien,0,24,24,13,1
,,,,,,,2023-09-26_08h55.50.291,vbt_B1_day2,2022.2.4,MacIntel,61.05006105,55918,,,,,,,,,,,,,,,,,,,,,,,,,,,,,,,,,,,,,,,,,,doodmoe,images/br_doodmoe.png,images/cb_doodmoe.png,,doodmoe,,,,,,,,,,,0.111111111,-0.031111111,1,0,0,doodmoe,0,25,25,15,1
,,,,,,,2023-09-26_08h55.50.291,vbt_B1_day2,2022.2.4,MacIntel,61.05006105,55918,,,,,,,,,,,,,,,,,,,,,,,,,,,,,,,,,,,,,,,,,,heengeen,images/br_heengeen.png,images/cb_heengeen.png,,heengeen,,,,,,,,,,,0.111111111,-0.031111111,1,0,0,heengeen,0,26,26,38,1
,,,,,,,2023-09-26_08h55.50.291,vbt_B1_day2,2022.2.4,MacIntel,61.05006105,55918,,,,,,,,,,,,,,,,,,,,,,,,,,,,,,,,,,,,,,,,,,zomers,images/br_zomers.png,images/cb_zomers.png,,noemoers,,,,,,,,,,,0.111111111,-0.031111111,1,0,0,noemoers,0,27,27,48,1
,,,,,,,2023-09-26_08h55.50.291,vbt_B1_day2,2022.2.4,MacIntel,61.05006105,55918,,,,,,,,,,,,,,,,,,,,,,,,,,,,,,,,,,,,,,,,,,dode,images/br_dode.png,images/cb_dode.png,,dods,,,,,,,,,,,0.114444444,-0.006666667,1,0,0,dods,0,28,28,41,1
,,,,,,,2023-09-26_08h55.50.291,vbt_B1_day2,2022.2.4,MacIntel,61.05006105,55918,,,,,,,,,,,,,,,,,,,,,,,,,,,,,,,,,,,,,,,,,,opdatten,images/br_opdatten.png,images/cb_opdatten.png,,opdatten,,,,,,,,,,,0.125555556,-0.127777778,1,0,0,opdatten,0,29,29,37,1
,,,,,,,2023-09-26_08h55.50.291,vbt_B1_day2,2022.2.4,MacIntel,61.05006105,55918,,,,,,,,,,,,,,,,,,,,,,,,,,,,,,,,,,,,,,,,,,lijnen,images/br_lijnen.png,images/cb_lijnen.png,,lijnen,,,,,,,,,,,0.125555556,-0.127777778,1,0,0,lijnen,0,30,30,51,1
,,,,,,,2023-09-26_08h55.50.291,vbt_B1_day2,2022.2.4,MacIntel,61.05006105,55918,,,,,,,,,,,,,,,,,,,,,,,,,,,,,,,,,,,,,,,,,,stes,images/br_stes.png,images/cb_stes.png,,stes,,,,,,,,,,,0.125555556,-0.127777778,1,0,0,stes,0,31,31,21,1
,,,,,,,2023-09-26_08h55.50.291,vbt_B1_day2,2022.2.4,MacIntel,61.05006105,55918,,,,,,,,,,,,,,,,,,,,,,,,,,,,,,,,,,,,,,,,,,welzijn,images/br_welzijn.png,images/cb_welzijn.png,,welzijn,,,,,,,,,,,0.125555556,-0.127777778,1,0,0,welzijn,0,32,32,52,1
,,,,,,,2023-09-26_08h55.50.291,vbt_B1_day2,2022.2.4,MacIntel,61.05006105,55918,,,,,,,,,,,,,,,,,,,,,,,,,,,,,,,,,,,,,,,,,,clan,images/br_clan.png,images/cb_clan.png,,clan,,,,,,,,,,,0.077777778,-0.063333333,1,0,0,clan,0,33,33,40,1
,,,,,,,2023-09-26_08h55.50.291,vbt_B1_day2,2022.2.4,MacIntel,61.05006105,55918,,,,,,,,,,,,,,,,,,,,,,,,,,,,,,,,,,,,,,,,,,plannen,images/br_plannen.png,images/cb_plannen.png,,plannen,,,,,,,,,,,0.077777778,-0.063333333,1,0,0,plannen,0,34,34,55,1
,,,,,,,2023-09-26_08h55.50.291,vbt_B1_day2,2022.2.4,MacIntel,61.05006105,55918,,,,,,,,,,,,,,,,,,,,,,,,,,,,,,,,,,,,,,,,,,piste,images/br_piste.png,images/cb_piste.png,,piste,,,,,,,,,,,0.077777778,-0.063333333,1,0,0,piste,0,35,35,5,1
,,,,,,,2023-09-26_08h55.50.291,vbt_B1_day2,2022.2.4,MacIntel,61.05006105,55918,,,,,,,,,,,,,,,,,,,,,,,,,,,,,,,,,,,,,,,,,,moes,images/br_moes.png,images/cb_moes.png,,moes,,,,,,,,,,,0.076666667,-0.053333333,1,0,0,moes,0,36,36,0,1
,,,,,,,2023-09-26_08h55.50.291,vbt_B1_day2,2022.2.4,MacIntel,61.05006105,55918,,,,,,,,,,,,,,,,,,,,,,,,,,,,,,,,,,,,,,,,,,ophuimen,images/br_ophuimen.png,images/cb_ophuimen.png,,ophuisen,,,,,,,,,,,0.051111111,-0.11,1,0,0,ophuisen,0,37,37,36,1
,,,,,,,2023-09-26_08h55.50.291,vbt_B1_day2,2022.2.4,MacIntel,61.05006105,55918,,,,,,,,,,,,,,,,,,,,,,,,,,,,,,,,,,,,,,,,,,woning,images/br_woning.png,images/cb_woning.png,,woning,,,,,,,,,,,0.051111111,-0.11,1,0,0,woning,0,38,38,10,1
,,,,,,,2023-09-26_08h55.50.291,vbt_B1_day2,2022.2.4,MacIntel,61.05006105,55918,,,,,,,,,,,,,,,,,,,,,,,,,,,,,,,,,,,,,,,,,,feestdag,images/br_feestdag.png,images/cb_feestdag.png,,feestdag,,,,,,,,,,,0.051111111,-0.11,1,0,0,feestdag,0,39,39,17,1
,,,,,,,2023-09-26_08h55.50.291,vbt_B1_day2,2022.2.4,MacIntel,61.05006105,55918,,,,,,,,,,,,,,,,,,,,,,,,,,,,,,,,,,,,,,,,,,geld,images/br_geld.png,images/cb_geld.png,,geld,,,,,,,,,,,0.051111111,-0.11,1,0,0,geld,0,40,40,3,1
,,,,,,,2023-09-26_08h55.50.291,vbt_B1_day2,2022.2.4,MacIntel,61.05006105,55918,,,,,,,,,,,,,,,,,,,,,,,,,,,,,,,,,,,,,,,,,,sora,images/br_sora.png,images/cb_sora.png,,sora,,,,,,,,,,,0.051111111,-0.11,1,0,0,sora,0,41,41,22,1
,,,,,,,2023-09-26_08h55.50.291,vbt_B1_day2,2022.2.4,MacIntel,61.05006105,55918,,,,,,,,,,,,,,,,,,,,,,,,,,,,,,,,,,,,,,,,,,tweeling,images/br_tweeling.png,images/cb_tweeling.png,,aankoop,,,,,,,,,,,0.046666667,-0.117777778,1,0,0,aankoop,0,42,42,58,1
,,,,,,,2023-09-26_08h55.50.291,vbt_B1_day2,2022.2.4,MacIntel,61.05006105,55918,,,,,,,,,,,,,,,,,,,,,,,,,,,,,,,,,,,,,,,,,,wijve,images/br_wijve.png,images/cb_wijve.png,,wijne,,,,,,,,,,,0.046666667,-0.117777778,1,0,0,wijne,0,43,43,27,1
,,,,,,,2023-09-26_08h55.50.291,vbt_B1_day2,2022.2.4,MacIntel,61.05006105,55918,,,,,,,,,,,,,,,,,,,,,,,,,,,,,,,,,,,,,,,,,,kasteel,images/br_kasteel.png,images/cb_kasteel.png,,kasteel,,,,,,,,,,,0.046666667,-0.117777778,1,0,0,kasteel,0,44,44,14,1
,,,,,,,2023-09-26_08h55.50.291,vbt_B1_day2,2022.2.4,MacIntel,61.05006105,55918,,,,,,,,,,,,,,,,,,,,,,,,,,,,,,,,,,,,,,,,,,manieren,images/br_manieren.png,images/cb_manieren.png,,manieren,,,,,,,,,,,0.046666667,-0.117777778,1,0,0,manieren,0,45,45,56,1
,,,,,,,2023-09-26_08h55.50.291,vbt_B1_day2,2022.2.4,MacIntel,61.05006105,55918,,,,,,,,,,,,,,,,,,,,,,,,,,,,,,,,,,,,,,,,,,trots,images/br_trots.png,images/cb_trots.png,,trots,,,,,,,,,,,0.046666667,-0.117777778,1,0,0,trots,0,46,46,44,1
,,,,,,,2023-09-26_08h55.50.291,vbt_B1_day2,2022.2.4,MacIntel,61.05006105,55918,,,,,,,,,,,,,,,,,,,,,,,,,,,,,,,,,,,,,,,,,,jong,images/br_jong.png,images/cb_jong.png,,jong,,,,,,,,,,,0.046666667,-0.117777778,1,0,0,jong,0,47,47,43,1
,,,,,,,2023-09-26_08h55.50.291,vbt_B1_day2,2022.2.4,MacIntel,61.05006105,55918,,,,,,,,,,,,,,,,,,,,,,,,,,,,,,,,,,,,,,,,,,inzicht,images/br_inzicht.png,images/cb_inzicht.png,,inyc...,,,,,,,,,,,0.046666667,-0.117777778,1,0,0,inyc...,0,48,48,53,1
,,,,,,,2023-09-26_08h55.50.291,vbt_B1_day2,2022.2.4,MacIntel,61.05006105,55918,,,,,,,,,,,,,,,,,,,,,,,,,,,,,,,,,,,,,,,,,,anarchie,images/br_anarchie.png,images/cb_anarchie.png,,anarchie,,,,,,,,,,,0.046666667,-0.117777778,1,0,0,anarchie,0,49,49,16,1
,,,,,,,2023-09-26_08h55.50.291,vbt_B1_day2,2022.2.4,MacIntel,61.05006105,55918,,,,,,,,,,,,,,,,,,,,,,,,,,,,,,,,,,,,,,,,,,toeval,images/br_toeval.png,images/cb_toeval.png,,toeval,,,,,,,,,,,0.046666667,-0.117777778,1,0,0,toeval,0,50,50,11,1
,,,,,,,2023-09-26_08h55.50.291,vbt_B1_day2,2022.2.4,MacIntel,61.05006105,55918,,,,,,,,,,,,,,,,,,,,,,,,,,,,,,,,,,,,,,,,,,jagen,images/br_jagen.png,images/cb_jagen.png,,jagen,,,,,,,,,,,0.046666667,-0.117777778,1,0,0,jagen,0,51,51,6,1
,,,,,,,2023-09-26_08h55.50.291,vbt_B1_day2,2022.2.4,MacIntel,61.05006105,55918,,,,,,,,,,,,,,,,,,,,,,,,,,,,,,,,,,,,,,,,,,prekken,images/br_prekken.png,images/cb_prekken.png,,paikken,,,,,,,,,,,0.046666667,-0.117777778,1,0,0,paikken,0,52,52,34,1
,,,,,,,2023-09-26_08h55.50.291,vbt_B1_day2,2022.2.4,MacIntel,61.05006105,55918,,,,,,,,,,,,,,,,,,,,,,,,,,,,,,,,,,,,,,,,,,eenhoorn,images/br_eenhoorn.png,images/cb_eenhoorn.png,,eenhoor,,,,,,,,,,,0.046666667,-0.117777778,1,0,0,eenhoor,0,53,53,19,1
,,,,,,,2023-09-26_08h55.50.291,vbt_B1_day2,2022.2.4,MacIntel,61.05006105,55918,,,,,,,,,,,,,,,,,,,,,,,,,,,,,,,,,,,,,,,,,,kabel,images/br_kabel.png,images/cb_kabel.png,,kabel,,,,,,,,,,,0.046666667,-0.117777778,1,0,0,kabel,0,54,54,7,1
,,,,,,,2023-09-26_08h55.50.291,vbt_B1_day2,2022.2.4,MacIntel,61.05006105,55918,,,,,,,,,,,,,,,,,,,,,,,,,,,,,,,,,,,,,,,,,,sifferd,images/br_sifferd.png,images/cb_sifferd.png,,suffel,,,,,,,,,,,0.046666667,-0.117777778,1,0,0,suffel,0,55,55,32,1
,,,,,,,2023-09-26_08h55.50.291,vbt_B1_day2,2022.2.4,MacIntel,61.05006105,55918,,,,,,,,,,,,,,,,,,,,,,,,,,,,,,,,,,,,,,,,,,thema,images/br_thema.png,images/cb_thema.png,,themr,,,,,,,,,,,0.046666667,-0.117777778,1,0,0,themr,0,56,56,47,1
,,,,,,,2023-09-26_08h55.50.291,vbt_B1_day2,2022.2.4,MacIntel,61.05006105,55918,,,,,,,,,,,,,,,,,,,,,,,,,,,,,,,,,,,,,,,,,,lokken,images/br_lokken.png,images/cb_lokken.png,,lokken,,,,,,,,,,,0.046666667,-0.117777778,1,0,0,lokken,0,57,57,8,1
,,,,,,,2023-09-26_08h55.50.291,vbt_B1_day2,2022.2.4,MacIntel,61.05006105,55918,,,,,,,,,,,,,,,,,,,,,,,,,,,,,,,,,,,,,,,,,,tand,images/br_tand.png,images/cb_tand.png,,tand,,,,,,,,,,,0.046666667,-0.117777778,1,0,0,tand,0,58,58,42,1
,,,,,,,2023-09-26_08h55.50.291,vbt_B1_day2,2022.2.4,MacIntel,61.05006105,55918,,,,,,,,,,,,,,,,,,,,,,,,,,,,,,,,,,,,,,,,,,kenzis,images/br_kenzis.png,images/cb_kenzis.png,,kennis,,,,,,,,,,,0.046666667,-0.117777778,1,0,0,kennis,0,59,59,30,1
,,,,,,,2023-09-26_08h55.50.291,vbt_B1_day2,2022.2.4,MacIntel,61.05006105,55918,,,,,,,,,,,,,,,,,,,,,,,,,,,,,,,,,,,,,,,,,,,,,,,,,,,,,,,,,,,,,,,,,,,
