welcome_mouse.x,welcome_mouse.y,welcome_mouse.leftButton,welcome_mouse.midButton,welcome_mouse.rightButton,welcome_mouse.time,"ID",date,expName,psychopyVersion,OS,frameRate,participant,refresh_mouse.x,refresh_mouse.y,refresh_mouse.leftButton,refresh_mouse.midButton,refresh_mouse.rightButton,refresh_mouse.time,braille_mouse.x,braille_mouse.y,braille_mouse.leftButton,braille_mouse.midButton,braille_mouse.rightButton,braille_mouse.time,trials.thisRepN,trials.thisTrialN,trials.thisN,trials.thisIndex,trials.ran,nlLet,brLet,cbLet,trainInstr_mouse.x,trainInstr_mouse.y,trainInstr_mouse.leftButton,trainInstr_mouse.midButton,trainInstr_mouse.rightButton,trainInstr_mouse.time,translation_key.keys,translation_key.corr,translation_key.rt,word_rsp.text,word_mouse.x,word_mouse.y,word_mouse.leftButton,word_mouse.midButton,word_mouse.rightButton,word_mouse.time,train_loop.thisRepN,train_loop.thisTrialN,train_loop.thisN,train_loop.thisIndex,train_loop.ran,nlWrd,brWrd,cbWrd,test,testResp,mouse.x,mouse.y,mouse.leftButton,mouse.midButton,mouse.rightButton,testInstr_mouse.x,testInstr_mouse.y,testInstr_mouse.leftButton,testInstr_mouse.midButton,testInstr_mouse.rightButton,test_mouse.x,test_mouse.y,test_mouse.leftButton,test_mouse.midButton,test_mouse.rightButton,test_response.text,test_loop.thisRepN,test_loop.thisTrialN,test_loop.thisN,test_loop.thisIndex,test_loop.ran
0.22173913,-0.22173913,1,0,0,8.266,,2023-09-25_16h45.46.632,vbt_B1_day2,2022.2.4,MacIntel,62.5,55879,,,,,,,,,,,,,,,,,,,,,,,,,,,,,,,,,,,,,,,,,,,,,,,,,,,,,,,,,,,,,,,,,,,
,,,,,,,2023-09-25_16h45.46.632,vbt_B1_day2,2022.2.4,MacIntel,62.5,55879,0.22826087,-0.145652174,1,0,0,9.975,,,,,,,,,,,,,,,,,,,,,,,,,,,,,,,,,,,,,,,,,,,,,,,,,,,,,,,,,,,,,
,,,,,,,2023-09-25_16h45.46.632,vbt_B1_day2,2022.2.4,MacIntel,62.5,55879,,,,,,,0.231521739,-0.133695652,1,0,0,1.25,0,0,0,11,1,l,images/br_l.png,images/cb_l.png,,,,,,,,,,,,,,,,,,,,,,,,,,,,,,,,,,,,,,,,,,,,,,,
,,,,,,,2023-09-25_16h45.46.632,vbt_B1_day2,2022.2.4,MacIntel,62.5,55879,,,,,,,0.277173913,-0.138043478,1,0,0,0.084,0,1,1,14,1,o,images/br_o.png,images/cb_o.png,,,,,,,,,,,,,,,,,,,,,,,,,,,,,,,,,,,,,,,,,,,,,,,
,,,,,,,2023-09-25_16h45.46.632,vbt_B1_day2,2022.2.4,MacIntel,62.5,55879,,,,,,,0.276086957,-0.136956522,1,0,0,0.134,0,2,2,23,1,x,images/br_x.png,images/cb_x.png,,,,,,,,,,,,,,,,,,,,,,,,,,,,,,,,,,,,,,,,,,,,,,,
,,,,,,,2023-09-25_16h45.46.632,vbt_B1_day2,2022.2.4,MacIntel,62.5,55879,,,,,,,0.276086957,-0.136956522,1,0,0,3.2,0,3,3,5,1,f,images/br_f.png,images/cb_f.png,,,,,,,,,,,,,,,,,,,,,,,,,,,,,,,,,,,,,,,,,,,,,,,
,,,,,,,2023-09-25_16h45.46.632,vbt_B1_day2,2022.2.4,MacIntel,62.5,55879,,,,,,,0.279347826,-0.139130435,1,0,0,0.499,0,4,4,9,1,j,images/br_j.png,images/cb_j.png,,,,,,,,,,,,,,,,,,,,,,,,,,,,,,,,,,,,,,,,,,,,,,,
,,,,,,,2023-09-25_16h45.46.632,vbt_B1_day2,2022.2.4,MacIntel,62.5,55879,,,,,,,0.279347826,-0.139130435,1,0,0,2.366,0,5,5,8,1,i,images/br_i.png,images/cb_i.png,,,,,,,,,,,,,,,,,,,,,,,,,,,,,,,,,,,,,,,,,,,,,,,
,,,,,,,2023-09-25_16h45.46.632,vbt_B1_day2,2022.2.4,MacIntel,62.5,55879,,,,,,,0.279347826,-0.139130435,1,0,0,1.75,0,6,6,2,1,c,images/br_c.png,images/cb_c.png,,,,,,,,,,,,,,,,,,,,,,,,,,,,,,,,,,,,,,,,,,,,,,,
,,,,,,,2023-09-25_16h45.46.632,vbt_B1_day2,2022.2.4,MacIntel,62.5,55879,,,,,,,0.216304348,-0.147826087,1,0,0,1.033,0,7,7,1,1,b,images/br_b.png,images/cb_b.png,,,,,,,,,,,,,,,,,,,,,,,,,,,,,,,,,,,,,,,,,,,,,,,
,,,,,,,2023-09-25_16h45.46.632,vbt_B1_day2,2022.2.4,MacIntel,62.5,55879,,,,,,,0.211956522,-0.173913043,1,0,0,0.8,0,8,8,25,1,z,images/br_z.png,images/cb_z.png,,,,,,,,,,,,,,,,,,,,,,,,,,,,,,,,,,,,,,,,,,,,,,,
,,,,,,,2023-09-25_16h45.46.632,vbt_B1_day2,2022.2.4,MacIntel,62.5,55879,,,,,,,0.211956522,-0.173913043,1,0,0,1.083,0,9,9,18,1,s,images/br_s.png,images/cb_s.png,,,,,,,,,,,,,,,,,,,,,,,,,,,,,,,,,,,,,,,,,,,,,,,
,,,,,,,2023-09-25_16h45.46.632,vbt_B1_day2,2022.2.4,MacIntel,62.5,55879,,,,,,,0.211956522,-0.173913043,1,0,0,0.916,0,10,10,22,1,w,images/br_w.png,images/cb_w.png,,,,,,,,,,,,,,,,,,,,,,,,,,,,,,,,,,,,,,,,,,,,,,,
,,,,,,,2023-09-25_16h45.46.632,vbt_B1_day2,2022.2.4,MacIntel,62.5,55879,,,,,,,0.211956522,-0.173913043,1,0,0,0.1,0,11,11,24,1,y,images/br_y.png,images/cb_y.png,,,,,,,,,,,,,,,,,,,,,,,,,,,,,,,,,,,,,,,,,,,,,,,
,,,,,,,2023-09-25_16h45.46.632,vbt_B1_day2,2022.2.4,MacIntel,62.5,55879,,,,,,,0.211956522,-0.173913043,1,0,0,3.583,0,12,12,15,1,p,images/br_p.png,images/cb_p.png,,,,,,,,,,,,,,,,,,,,,,,,,,,,,,,,,,,,,,,,,,,,,,,
,,,,,,,2023-09-25_16h45.46.632,vbt_B1_day2,2022.2.4,MacIntel,62.5,55879,,,,,,,0.210869565,-0.173913043,1,0,0,3.066,0,13,13,12,1,m,images/br_m.png,images/cb_m.png,,,,,,,,,,,,,,,,,,,,,,,,,,,,,,,,,,,,,,,,,,,,,,,
,,,,,,,2023-09-25_16h45.46.632,vbt_B1_day2,2022.2.4,MacIntel,62.5,55879,,,,,,,0.19673913,-0.154347826,1,0,0,0.233,0,14,14,6,1,g,images/br_g.png,images/cb_g.png,,,,,,,,,,,,,,,,,,,,,,,,,,,,,,,,,,,,,,,,,,,,,,,
,,,,,,,2023-09-25_16h45.46.632,vbt_B1_day2,2022.2.4,MacIntel,62.5,55879,,,,,,,0.19673913,-0.154347826,1,0,0,0.85,0,15,15,17,1,r,images/br_r.png,images/cb_r.png,,,,,,,,,,,,,,,,,,,,,,,,,,,,,,,,,,,,,,,,,,,,,,,
,,,,,,,2023-09-25_16h45.46.632,vbt_B1_day2,2022.2.4,MacIntel,62.5,55879,,,,,,,0.161956522,-0.183695652,1,0,0,1.183,0,16,16,4,1,e,images/br_e.png,images/cb_e.png,,,,,,,,,,,,,,,,,,,,,,,,,,,,,,,,,,,,,,,,,,,,,,,
,,,,,,,2023-09-25_16h45.46.632,vbt_B1_day2,2022.2.4,MacIntel,62.5,55879,,,,,,,0.175,-0.157608696,1,0,0,2.566,0,17,17,20,1,u,images/br_u.png,images/cb_u.png,,,,,,,,,,,,,,,,,,,,,,,,,,,,,,,,,,,,,,,,,,,,,,,
,,,,,,,2023-09-25_16h45.46.632,vbt_B1_day2,2022.2.4,MacIntel,62.5,55879,,,,,,,0.163043478,-0.116304348,1,0,0,0.383,0,18,18,19,1,t,images/br_t.png,images/cb_t.png,,,,,,,,,,,,,,,,,,,,,,,,,,,,,,,,,,,,,,,,,,,,,,,
,,,,,,,2023-09-25_16h45.46.632,vbt_B1_day2,2022.2.4,MacIntel,62.5,55879,,,,,,,0.161956522,-0.061956522,1,0,0,0.083,0,19,19,13,1,n,images/br_n.png,images/cb_n.png,,,,,,,,,,,,,,,,,,,,,,,,,,,,,,,,,,,,,,,,,,,,,,,
,,,,,,,2023-09-25_16h45.46.632,vbt_B1_day2,2022.2.4,MacIntel,62.5,55879,,,,,,,0.14673913,0.011956522,1,0,0,0.117,0,20,20,10,1,k,images/br_k.png,images/cb_k.png,,,,,,,,,,,,,,,,,,,,,,,,,,,,,,,,,,,,,,,,,,,,,,,
,,,,,,,2023-09-25_16h45.46.632,vbt_B1_day2,2022.2.4,MacIntel,62.5,55879,,,,,,,0.14673913,0.011956522,1,0,0,0.333,0,21,21,3,1,d,images/br_d.png,images/cb_d.png,,,,,,,,,,,,,,,,,,,,,,,,,,,,,,,,,,,,,,,,,,,,,,,
,,,,,,,2023-09-25_16h45.46.632,vbt_B1_day2,2022.2.4,MacIntel,62.5,55879,,,,,,,0.127173913,-0.073913043,1,0,0,1.067,0,22,22,7,1,h,images/br_h.png,images/cb_h.png,,,,,,,,,,,,,,,,,,,,,,,,,,,,,,,,,,,,,,,,,,,,,,,
,,,,,,,2023-09-25_16h45.46.632,vbt_B1_day2,2022.2.4,MacIntel,62.5,55879,,,,,,,0.147826087,-0.05,1,0,0,0.4,0,23,23,16,1,q,images/br_q.png,images/cb_q.png,,,,,,,,,,,,,,,,,,,,,,,,,,,,,,,,,,,,,,,,,,,,,,,
,,,,,,,2023-09-25_16h45.46.632,vbt_B1_day2,2022.2.4,MacIntel,62.5,55879,,,,,,,0.147826087,-0.072826087,1,0,0,0.1,0,24,24,0,1,a,images/br_a.png,images/cb_a.png,,,,,,,,,,,,,,,,,,,,,,,,,,,,,,,,,,,,,,,,,,,,,,,
,,,,,,,2023-09-25_16h45.46.632,vbt_B1_day2,2022.2.4,MacIntel,62.5,55879,,,,,,,0.147826087,-0.056521739,1,0,0,0.017,0,25,25,21,1,v,images/br_v.png,images/cb_v.png,,,,,,,,,,,,,,,,,,,,,,,,,,,,,,,,,,,,,,,,,,,,,,,
,,,,,,,2023-09-25_16h45.46.632,vbt_B1_day2,2022.2.4,MacIntel,62.5,55879,,,,,,,,,,,,,,,,,,,,,0.305434783,0.036956522,1,0,0,36.174,,,,,,,,,,,,,,,,,,,,,,,,,,,,,,,,,,,,,,,,,
,,,,,,,2023-09-25_16h45.46.632,vbt_B1_day2,2022.2.4,MacIntel,62.5,55879,,,,,,,,,,,,,,,,,,,,,,,,,,,down,0,24.421,,0.255434783,-0.035869565,1,0,0,8.634,0,0,0,127,1,doodmoe,images/br_doodmoe.png,images/cb_doodmoe.png,0,,,,,,,,,,,,,,,,,,,,,,
,,,,,,,2023-09-25_16h45.46.632,vbt_B1_day2,2022.2.4,MacIntel,62.5,55879,,,,,,,,,,,,,,,,,,,,,,,,,,,down,0,11.157,,0.255434783,-0.035869565,1,0,0,2.099,0,1,1,176,1,techniek,images/br_techniek.png,images/cb_techniek.png,1,techniek,,,,,,,,,,,,,,,,,,,,,
,,,,,,,2023-09-25_16h45.46.632,vbt_B1_day2,2022.2.4,MacIntel,62.5,55879,,,,,,,,,,,,,,,,,,,,,,,,,,,down,0,13.19,,0.255434783,-0.035869565,1,0,0,3.632,0,2,2,136,1,waarbij,images/br_waarbij.png,images/cb_waarbij.png,1,waarbid,,,,,,,,,,,,,,,,,,,,,
,,,,,,,2023-09-25_16h45.46.632,vbt_B1_day2,2022.2.4,MacIntel,62.5,55879,,,,,,,,,,,,,,,,,,,,,,,,,,,down,0,11.073,,0.255434783,-0.035869565,1,0,0,1.366,0,3,3,175,1,heengaan,images/br_heengaan.png,images/cb_heengaan.png,0,,,,,,,,,,,,,,,,,,,,,,
,,,,,,,2023-09-25_16h45.46.632,vbt_B1_day2,2022.2.4,MacIntel,62.5,55879,,,,,,,,,,,,,,,,,,,,,,,,,,,down,0,1.439,,0.255434783,-0.035869565,1,0,0,0.984,0,4,4,2,1,jaar,images/br_jaar.png,images/cb_jaar.png,0,,,,,,,,,,,,,,,,,,,,,,
,,,,,,,2023-09-25_16h45.46.632,vbt_B1_day2,2022.2.4,MacIntel,62.5,55879,,,,,,,,,,,,,,,,,,,,,,,,,,,down,0,9.961,,0.255434783,-0.035869565,1,0,0,1.599,0,5,5,108,1,excuus,images/br_excuus.png,images/cb_excuus.png,0,,,,,,,,,,,,,,,,,,,,,,
,,,,,,,2023-09-25_16h45.46.632,vbt_B1_day2,2022.2.4,MacIntel,62.5,55879,,,,,,,,,,,,,,,,,,,,,,,,,,,down,0,3.667,,0.255434783,-0.035869565,1,0,0,0.667,0,6,6,163,1,schuilen,images/br_schuilen.png,images/cb_schuilen.png,0,,,,,,,,,,,,,,,,,,,,,,
,,,,,,,2023-09-25_16h45.46.632,vbt_B1_day2,2022.2.4,MacIntel,62.5,55879,,,,,,,,,,,,,,,,,,,,,,,,,,,down,0,7.007,,0.255434783,-0.035869565,1,0,0,0.75,0,7,7,164,1,anarchie,images/br_anarchie.png,images/cb_anarchie.png,0,,,,,,,,,,,,,,,,,,,,,,
,,,,,,,2023-09-25_16h45.46.632,vbt_B1_day2,2022.2.4,MacIntel,62.5,55879,,,,,,,,,,,,,,,,,,,,,,,,,,,down,0,10.669,,0.255434783,-0.035869565,1,0,0,0.634,0,8,8,153,1,vervoer,images/br_vervoer.png,images/cb_vervoer.png,0,,,,,,,,,,,,,,,,,,,,,,
,,,,,,,2023-09-25_16h45.46.632,vbt_B1_day2,2022.2.4,MacIntel,62.5,55879,,,,,,,,,,,,,,,,,,,,,,,,,,,down,0,15.75,,0.255434783,-0.035869565,1,0,0,21.583,0,9,9,128,1,prikken,images/br_prikken.png,images/cb_prikken.png,0,,,,,,,,,,,,,,,,,,,,,,
,,,,,,,2023-09-25_16h45.46.632,vbt_B1_day2,2022.2.4,MacIntel,62.5,55879,,,,,,,,,,,,,,,,,,,,,,,,,,,down,0,3.738,,0.255434783,-0.035869565,1,0,0,0.567,0,10,10,41,1,maken,images/br_maken.png,images/cb_maken.png,0,,,,,,,,,,,,,,,,,,,,,,
,,,,,,,2023-09-25_16h45.46.632,vbt_B1_day2,2022.2.4,MacIntel,62.5,55879,,,,,,,,,,,,,,,,,,,,,,,,,,,down,0,8.672,,0.290217391,-0.026086957,1,0,0,1.167,0,11,11,139,1,stiekem,images/br_stiekem.png,images/cb_stiekem.png,1,stiekem,,,,,,,,,,,,,,,,,,,,,
,,,,,,,2023-09-25_16h45.46.632,vbt_B1_day2,2022.2.4,MacIntel,62.5,55879,,,,,,,,,,,,,,,,,,,,,,,,,,,down,0,3.167,,0.290217391,-0.026086957,1,0,0,0.417,0,12,12,89,1,slapen,images/br_slapen.png,images/cb_slapen.png,0,,,,,,,,,,,,,,,,,,,,,,
,,,,,,,2023-09-25_16h45.46.632,vbt_B1_day2,2022.2.4,MacIntel,62.5,55879,,,,,,,,,,,,,,,,,,,,,,,,,,,down,0,7.117,,0.290217391,-0.026086957,1,0,0,1.149,0,13,13,149,1,redding,images/br_redding.png,images/cb_redding.png,0,,,,,,,,,,,,,,,,,,,,,,
,,,,,,,2023-09-25_16h45.46.632,vbt_B1_day2,2022.2.4,MacIntel,62.5,55879,,,,,,,,,,,,,,,,,,,,,,,,,,,down,0,1.923,,0.290217391,-0.026086957,1,0,0,0.6,0,14,14,29,1,baas,images/br_baas.png,images/cb_baas.png,0,,,,,,,,,,,,,,,,,,,,,,
,,,,,,,2023-09-25_16h45.46.632,vbt_B1_day2,2022.2.4,MacIntel,62.5,55879,,,,,,,,,,,,,,,,,,,,,,,,,,,down,0,3.235,,0.286956522,-0.056521739,1,0,0,0.351,0,15,15,97,1,loyaal,images/br_loyaal.png,images/cb_loyaal.png,1,loyaal,,,,,,,,,,,,,,,,,,,,,
,,,,,,,2023-09-25_16h45.46.632,vbt_B1_day2,2022.2.4,MacIntel,62.5,55879,,,,,,,,,,,,,,,,,,,,,,,,,,,down,0,4.823,,0.286956522,-0.056521739,1,0,0,1.734,0,16,16,132,1,grappen,images/br_grappen.png,images/cb_grappen.png,0,,,,,,,,,,,,,,,,,,,,,,
,,,,,,,2023-09-25_16h45.46.632,vbt_B1_day2,2022.2.4,MacIntel,62.5,55879,,,,,,,,,,,,,,,,,,,,,,,,,,,down,0,3.651,,0.286956522,-0.056521739,1,0,0,0.483,0,17,17,174,1,stemming,images/br_stemming.png,images/cb_stemming.png,0,,,,,,,,,,,,,,,,,,,,,,
,,,,,,,2023-09-25_16h45.46.632,vbt_B1_day2,2022.2.4,MacIntel,62.5,55879,,,,,,,,,,,,,,,,,,,,,,,,,,,down,0,1.967,,0.286956522,-0.056521739,1,0,0,0.667,0,18,18,102,1,legaal,images/br_legaal.png,images/cb_legaal.png,0,,,,,,,,,,,,,,,,,,,,,,
,,,,,,,2023-09-25_16h45.46.632,vbt_B1_day2,2022.2.4,MacIntel,62.5,55879,,,,,,,,,,,,,,,,,,,,,,,,,,,down,0,3.109,,0.286956522,-0.056521739,1,0,0,0.7,0,19,19,96,1,slagen,images/br_slagen.png,images/cb_slagen.png,1,slagen,,,,,,,,,,,,,,,,,,,,,
,,,,,,,2023-09-25_16h45.46.632,vbt_B1_day2,2022.2.4,MacIntel,62.5,55879,,,,,,,,,,,,,,,,,,,,,,,,,,,down,0,1.833,,0.286956522,-0.056521739,1,0,0,0.917,0,20,20,68,1,schat,images/br_schat.png,images/cb_schat.png,0,,,,,,,,,,,,,,,,,,,,,,
,,,,,,,2023-09-25_16h45.46.632,vbt_B1_day2,2022.2.4,MacIntel,62.5,55879,,,,,,,,,,,,,,,,,,,,,,,,,,,down,0,7.244,,0.286956522,-0.056521739,1,0,0,0.717,0,21,21,99,1,koffie,images/br_koffie.png,images/cb_koffie.png,1,koffie,,,,,,,,,,,,,,,,,,,,,
,,,,,,,2023-09-25_16h45.46.632,vbt_B1_day2,2022.2.4,MacIntel,62.5,55879,,,,,,,,,,,,,,,,,,,,,,,,,,,down,0,4.601,,0.286956522,-0.056521739,1,0,0,0.783,0,22,22,64,1,wegen,images/br_wegen.png,images/cb_wegen.png,0,,,,,,,,,,,,,,,,,,,,,,
,,,,,,,2023-09-25_16h45.46.632,vbt_B1_day2,2022.2.4,MacIntel,62.5,55879,,,,,,,,,,,,,,,,,,,,,,,,,,,down,0,2.351,,0.286956522,-0.056521739,1,0,0,0.617,0,23,23,44,1,flits,images/br_flits.png,images/cb_flits.png,0,,,,,,,,,,,,,,,,,,,,,,
,,,,,,,2023-09-25_16h45.46.632,vbt_B1_day2,2022.2.4,MacIntel,62.5,55879,,,,,,,,,,,,,,,,,,,,,,,,,,,down,0,6.027,,0.286956522,-0.056521739,1,0,0,0.598,0,24,24,155,1,gerucht,images/br_gerucht.png,images/cb_gerucht.png,0,,,,,,,,,,,,,,,,,,,,,,
,,,,,,,2023-09-25_16h45.46.632,vbt_B1_day2,2022.2.4,MacIntel,62.5,55879,,,,,,,,,,,,,,,,,,,,,,,,,,,down,0,2.402,,0.286956522,-0.056521739,1,0,0,0.434,0,25,25,115,1,kleren,images/br_kleren.png,images/cb_kleren.png,0,,,,,,,,,,,,,,,,,,,,,,
,,,,,,,2023-09-25_16h45.46.632,vbt_B1_day2,2022.2.4,MacIntel,62.5,55879,,,,,,,,,,,,,,,,,,,,,,,,,,,down,0,3.834,,0.286956522,-0.056521739,1,0,0,0.551,0,26,26,20,1,site,images/br_site.png,images/cb_site.png,0,,,,,,,,,,,,,,,,,,,,,,
,,,,,,,2023-09-25_16h45.46.632,vbt_B1_day2,2022.2.4,MacIntel,62.5,55879,,,,,,,,,,,,,,,,,,,,,,,,,,,down,0,6.477,,0.286956522,-0.056521739,1,0,0,0.55,0,27,27,173,1,apparaat,images/br_apparaat.png,images/cb_apparaat.png,0,,,,,,,,,,,,,,,,,,,,,,
,,,,,,,2023-09-25_16h45.46.632,vbt_B1_day2,2022.2.4,MacIntel,62.5,55879,,,,,,,,,,,,,,,,,,,,,,,,,,,down,0,6.218,,0.286956522,-0.056521739,1,0,0,1.466,0,28,28,147,1,komisch,images/br_komisch.png,images/cb_komisch.png,0,,,,,,,,,,,,,,,,,,,,,,
,,,,,,,2023-09-25_16h45.46.632,vbt_B1_day2,2022.2.4,MacIntel,62.5,55879,,,,,,,,,,,,,,,,,,,,,,,,,,,down,0,2.71,,0.286956522,-0.056521739,1,0,0,0.616,0,29,29,114,1,vullen,images/br_vullen.png,images/cb_vullen.png,0,,,,,,,,,,,,,,,,,,,,,,
,,,,,,,2023-09-25_16h45.46.632,vbt_B1_day2,2022.2.4,MacIntel,62.5,55879,,,,,,,,,,,,,,,,,,,,,,,,,,,down,0,1.645,,0.286956522,-0.056521739,1,0,0,0.617,0,30,30,72,1,strak,images/br_strak.png,images/cb_strak.png,0,,,,,,,,,,,,,,,,,,,,,,
,,,,,,,2023-09-25_16h45.46.632,vbt_B1_day2,2022.2.4,MacIntel,62.5,55879,,,,,,,,,,,,,,,,,,,,,,,,,,,down,0,1.753,,0.286956522,-0.056521739,1,0,0,0.55,0,31,31,62,1,knaap,images/br_knaap.png,images/cb_knaap.png,0,,,,,,,,,,,,,,,,,,,,,,
,,,,,,,2023-09-25_16h45.46.632,vbt_B1_day2,2022.2.4,MacIntel,62.5,55879,,,,,,,,,,,,,,,,,,,,,,,,,,,down,0,11.469,,0.286956522,-0.056521739,1,0,0,3.517,0,32,32,178,1,huisdier,images/br_huisdier.png,images/cb_huisdier.png,1,huisdier,,,,,,,,,,,,,,,,,,,,,
,,,,,,,2023-09-25_16h45.46.632,vbt_B1_day2,2022.2.4,MacIntel,62.5,55879,,,,,,,,,,,,,,,,,,,,,,,,,,,down,0,10.623,,0.286956522,-0.056521739,1,0,0,1.25,0,33,33,180,1,openbaar,images/br_openbaar.png,images/cb_openbaar.png,0,,,,,,,,,,,,,,,,,,,,,,
,,,,,,,2023-09-25_16h45.46.632,vbt_B1_day2,2022.2.4,MacIntel,62.5,55879,,,,,,,,,,,,,,,,,,,,,,,,,,,down,0,3.367,,0.286956522,-0.056521739,1,0,0,0.932,0,34,34,69,1,waken,images/br_waken.png,images/cb_waken.png,0,,,,,,,,,,,,,,,,,,,,,,
,,,,,,,2023-09-25_16h45.46.632,vbt_B1_day2,2022.2.4,MacIntel,62.5,55879,,,,,,,,,,,,,,,,,,,,,,,,,,,down,0,4.955,,0.286956522,-0.056521739,1,0,0,0.6,0,35,35,86,1,woning,images/br_woning.png,images/cb_woning.png,0,,,,,,,,,,,,,,,,,,,,,,
,,,,,,,2023-09-25_16h45.46.632,vbt_B1_day2,2022.2.4,MacIntel,62.5,55879,,,,,,,,,,,,,,,,,,,,,,,,,,,down,0,12.55,,0.286956522,-0.056521739,1,0,0,1.05,0,36,36,148,1,smullen,images/br_smullen.png,images/cb_smullen.png,0,,,,,,,,,,,,,,,,,,,,,,
,,,,,,,2023-09-25_16h45.46.632,vbt_B1_day2,2022.2.4,MacIntel,62.5,55879,,,,,,,,,,,,,,,,,,,,,,,,,,,down,0,3.153,,0.286956522,-0.056521739,1,0,0,0.533,0,37,37,126,1,kasteel,images/br_kasteel.png,images/cb_kasteel.png,0,,,,,,,,,,,,,,,,,,,,,,
,,,,,,,2023-09-25_16h45.46.632,vbt_B1_day2,2022.2.4,MacIntel,62.5,55879,,,,,,,,,,,,,,,,,,,,,,,,,,,down,0,0.901,,0.286956522,-0.056521739,1,0,0,0.5,0,38,38,35,1,lust,images/br_lust.png,images/cb_lust.png,0,,,,,,,,,,,,,,,,,,,,,,
,,,,,,,2023-09-25_16h45.46.632,vbt_B1_day2,2022.2.4,MacIntel,62.5,55879,,,,,,,,,,,,,,,,,,,,,,,,,,,down,0,3.416,,0.286956522,-0.056521739,1,0,0,0.4,0,39,39,106,1,zingen,images/br_zingen.png,images/cb_zingen.png,0,,,,,,,,,,,,,,,,,,,,,,
,,,,,,,2023-09-25_16h45.46.632,vbt_B1_day2,2022.2.4,MacIntel,62.5,55879,,,,,,,,,,,,,,,,,,,,,,,,,,,down,0,2.643,,0.286956522,-0.056521739,1,0,0,0.55,0,40,40,53,1,baron,images/br_baron.png,images/cb_baron.png,0,,,,,,,,,,,,,,,,,,,,,,
,,,,,,,2023-09-25_16h45.46.632,vbt_B1_day2,2022.2.4,MacIntel,62.5,55879,,,,,,,,,,,,,,,,,,,,,,,,,,,down,0,4.101,,0.286956522,-0.056521739,1,0,0,0.683,0,41,41,109,1,totaal,images/br_totaal.png,images/cb_totaal.png,0,,,,,,,,,,,,,,,,,,,,,,
,,,,,,,2023-09-25_16h45.46.632,vbt_B1_day2,2022.2.4,MacIntel,62.5,55879,,,,,,,,,,,,,,,,,,,,,,,,,,,down,0,0.984,,0.286956522,-0.056521739,1,0,0,0.5,0,42,42,39,1,laag,images/br_laag.png,images/cb_laag.png,0,,,,,,,,,,,,,,,,,,,,,,
,,,,,,,2023-09-25_16h45.46.632,vbt_B1_day2,2022.2.4,MacIntel,62.5,55879,,,,,,,,,,,,,,,,,,,,,,,,,,,down,0,3.317,,0.286956522,-0.056521739,1,0,0,0.684,0,43,43,3,1,mand,images/br_mand.png,images/cb_mand.png,0,,,,,,,,,,,,,,,,,,,,,,
,,,,,,,2023-09-25_16h45.46.632,vbt_B1_day2,2022.2.4,MacIntel,62.5,55879,,,,,,,,,,,,,,,,,,,,,,,,,,,down,0,2.641,,0.286956522,-0.056521739,1,0,0,0.6,0,44,44,16,1,ziek,images/br_ziek.png,images/cb_ziek.png,1,ziek,,,,,,,,,,,,,,,,,,,,,
,,,,,,,2023-09-25_16h45.46.632,vbt_B1_day2,2022.2.4,MacIntel,62.5,55879,,,,,,,,,,,,,,,,,,,,,,,,,,,down,0,0.711,,0.286956522,-0.056521739,1,0,0,0.583,0,45,45,7,1,geld,images/br_geld.png,images/cb_geld.png,0,,,,,,,,,,,,,,,,,,,,,,
,,,,,,,2023-09-25_16h45.46.632,vbt_B1_day2,2022.2.4,MacIntel,62.5,55879,,,,,,,,,,,,,,,,,,,,,,,,,,,down,0,5.583,,0.286956522,-0.056521739,1,0,0,0.366,0,46,46,145,1,invloed,images/br_invloed.png,images/cb_invloed.png,0,,,,,,,,,,,,,,,,,,,,,,
,,,,,,,2023-09-25_16h45.46.632,vbt_B1_day2,2022.2.4,MacIntel,62.5,55879,,,,,,,,,,,,,,,,,,,,,,,,,,,down,0,3.389,,0.286956522,-0.056521739,1,0,0,0.451,0,47,47,80,1,kanjer,images/br_kanjer.png,images/cb_kanjer.png,0,,,,,,,,,,,,,,,,,,,,,,
,,,,,,,2023-09-25_16h45.46.632,vbt_B1_day2,2022.2.4,MacIntel,62.5,55879,,,,,,,,,,,,,,,,,,,,,,,,,,,down,0,7.483,,0.286956522,-0.056521739,1,0,0,0.833,0,48,48,167,1,eenhoorn,images/br_eenhoorn.png,images/cb_eenhoorn.png,0,,,,,,,,,,,,,,,,,,,,,,
,,,,,,,2023-09-25_16h45.46.632,vbt_B1_day2,2022.2.4,MacIntel,62.5,55879,,,,,,,,,,,,,,,,,,,,,,,,,,,down,0,1.337,,0.286956522,-0.056521739,1,0,0,0.483,0,49,49,171,1,aarzelen,images/br_aarzelen.png,images/cb_aarzelen.png,0,,,,,,,,,,,,,,,,,,,,,,
,,,,,,,2023-09-25_16h45.46.632,vbt_B1_day2,2022.2.4,MacIntel,62.5,55879,,,,,,,,,,,,,,,,,,,,,,,,,,,down,0,0.051,,0.286956522,-0.056521739,1,0,0,0.567,0,50,50,8,1,knie,images/br_knie.png,images/cb_knie.png,0,,,,,,,,,,,,,,,,,,,,,,
,,,,,,,2023-09-25_16h45.46.632,vbt_B1_day2,2022.2.4,MacIntel,62.5,55879,,,,,,,,,,,,,,,,,,,,,,,,,,,down,0,1.718,,0.286956522,-0.056521739,1,0,0,0.617,0,51,51,61,1,groen,images/br_groen.png,images/cb_groen.png,0,,,,,,,,,,,,,,,,,,,,,,
,,,,,,,2023-09-25_16h45.46.632,vbt_B1_day2,2022.2.4,MacIntel,62.5,55879,,,,,,,,,,,,,,,,,,,,,,,,,,,down,0,6.359,,0.286956522,-0.056521739,1,0,0,0.484,0,52,52,4,1,moes,images/br_moes.png,images/cb_moes.png,0,,,,,,,,,,,,,,,,,,,,,,
,,,,,,,2023-09-25_16h45.46.632,vbt_B1_day2,2022.2.4,MacIntel,62.5,55879,,,,,,,,,,,,,,,,,,,,,,,,,,,down,0,2.484,,0.286956522,-0.056521739,1,0,0,0.6,0,53,53,45,1,piste,images/br_piste.png,images/cb_piste.png,0,,,,,,,,,,,,,,,,,,,,,,
,,,,,,,2023-09-25_16h45.46.632,vbt_B1_day2,2022.2.4,MacIntel,62.5,55879,,,,,,,,,,,,,,,,,,,,,,,,,,,down,0,1.566,,0.286956522,-0.056521739,1,0,0,0.567,0,54,54,27,1,dans,images/br_dans.png,images/cb_dans.png,0,,,,,,,,,,,,,,,,,,,,,,
,,,,,,,2023-09-25_16h45.46.632,vbt_B1_day2,2022.2.4,MacIntel,62.5,55879,,,,,,,,,,,,,,,,,,,,,,,,,,,down,0,10.793,,0.286956522,-0.056521739,1,0,0,0.416,0,55,55,30,1,uien,images/br_uien.png,images/cb_uien.png,0,,,,,,,,,,,,,,,,,,,,,,
,,,,,,,2023-09-25_16h45.46.632,vbt_B1_day2,2022.2.4,MacIntel,62.5,55879,,,,,,,,,,,,,,,,,,,,,,,,,,,down,0,4.083,,0.286956522,-0.056521739,1,0,0,0.516,0,56,56,54,1,gebit,images/br_gebit.png,images/cb_gebit.png,0,,,,,,,,,,,,,,,,,,,,,,
,,,,,,,2023-09-25_16h45.46.632,vbt_B1_day2,2022.2.4,MacIntel,62.5,55879,,,,,,,,,,,,,,,,,,,,,,,,,,,down,0,0.951,,0.286956522,-0.056521739,1,0,0,0.517,0,57,57,33,1,vlek,images/br_vlek.png,images/cb_vlek.png,0,,,,,,,,,,,,,,,,,,,,,,
,,,,,,,2023-09-25_16h45.46.632,vbt_B1_day2,2022.2.4,MacIntel,62.5,55879,,,,,,,,,,,,,,,,,,,,,,,,,,,down,0,3.85,,0.286956522,-0.056521739,1,0,0,0.667,0,58,58,87,1,toeval,images/br_toeval.png,images/cb_toeval.png,0,,,,,,,,,,,,,,,,,,,,,,
,,,,,,,2023-09-25_16h45.46.632,vbt_B1_day2,2022.2.4,MacIntel,62.5,55879,,,,,,,,,,,,,,,,,,,,,,,,,,,down,0,4.169,,0.283695652,-0.106521739,1,0,0,0.384,0,59,59,138,1,akkoord,images/br_akkoord.png,images/cb_akkoord.png,1,akkoord,,,,,,,,,,,,,,,,,,,,,
,,,,,,,2023-09-25_16h45.46.632,vbt_B1_day2,2022.2.4,MacIntel,62.5,55879,,,,,,,,,,,,,,,,,,,,,,,,,,,down,0,2.067,,0.283695652,-0.106521739,1,0,0,0.65,0,60,60,48,1,steel,images/br_steel.png,images/cb_steel.png,0,,,,,,,,,,,,,,,,,,,,,,
,,,,,,,2023-09-25_16h45.46.632,vbt_B1_day2,2022.2.4,MacIntel,62.5,55879,,,,,,,,,,,,,,,,,,,,,,,,,,,down,0,4.828,,0.283695652,-0.106521739,1,0,0,0.6,0,61,61,14,1,rijp,images/br_rijp.png,images/cb_rijp.png,0,,,,,,,,,,,,,,,,,,,,,,
,,,,,,,2023-09-25_16h45.46.632,vbt_B1_day2,2022.2.4,MacIntel,62.5,55879,,,,,,,,,,,,,,,,,,,,,,,,,,,down,0,7.633,,0.283695652,-0.106521739,1,0,0,0.883,0,62,62,77,1,woede,images/br_woede.png,images/cb_woede.png,0,,,,,,,,,,,,,,,,,,,,,,
,,,,,,,2023-09-25_16h45.46.632,vbt_B1_day2,2022.2.4,MacIntel,62.5,55879,,,,,,,,,,,,,,,,,,,,,,,,,,,down,0,4.583,,0.283695652,-0.106521739,1,0,0,0.534,0,63,63,162,1,uitdelen,images/br_uitdelen.png,images/cb_uitdelen.png,0,,,,,,,,,,,,,,,,,,,,,,
,,,,,,,2023-09-25_16h45.46.632,vbt_B1_day2,2022.2.4,MacIntel,62.5,55879,,,,,,,,,,,,,,,,,,,,,,,,,,,down,0,2.027,,0.283695652,-0.106521739,1,0,0,0.684,0,64,64,142,1,snuiven,images/br_snuiven.png,images/cb_snuiven.png,0,,,,,,,,,,,,,,,,,,,,,,
,,,,,,,2023-09-25_16h45.46.632,vbt_B1_day2,2022.2.4,MacIntel,62.5,55879,,,,,,,,,,,,,,,,,,,,,,,,,,,down,0,3.436,,0.283695652,-0.106521739,1,0,0,0.3,0,65,65,18,1,blik,images/br_blik.png,images/cb_blik.png,1,blik,,,,,,,,,,,,,,,,,,,,,
,,,,,,,2023-09-25_16h45.46.632,vbt_B1_day2,2022.2.4,MacIntel,62.5,55879,,,,,,,,,,,,,,,,,,,,,,,,,,,down,0,4.8,,0.283695652,-0.106521739,1,0,0,0.901,0,66,66,129,1,verhaal,images/br_verhaal.png,images/cb_verhaal.png,0,,,,,,,,,,,,,,,,,,,,,,
,,,,,,,2023-09-25_16h45.46.632,vbt_B1_day2,2022.2.4,MacIntel,62.5,55879,,,,,,,,,,,,,,,,,,,,,,,,,,,down,0,0.634,,0.283695652,-0.106521739,1,0,0,0.784,0,67,67,46,1,jagen,images/br_jagen.png,images/cb_jagen.png,0,,,,,,,,,,,,,,,,,,,,,,
,,,,,,,2023-09-25_16h45.46.632,vbt_B1_day2,2022.2.4,MacIntel,62.5,55879,,,,,,,,,,,,,,,,,,,,,,,,,,,down,0,4.468,,0.283695652,-0.106521739,1,0,0,0.383,0,68,68,199,1,beseffen,images/br_beseffen.png,images/cb_beseffen.png,0,,,,,,,,,,,,,,,,,,,,,,
,,,,,,,2023-09-25_16h45.46.632,vbt_B1_day2,2022.2.4,MacIntel,62.5,55879,,,,,,,,,,,,,,,,,,,,,,,,,,,down,0,0.75,,0.283695652,-0.106521739,1,0,0,0.45,0,69,69,141,1,knielen,images/br_knielen.png,images/cb_knielen.png,0,,,,,,,,,,,,,,,,,,,,,,
,,,,,,,2023-09-25_16h45.46.632,vbt_B1_day2,2022.2.4,MacIntel,62.5,55879,,,,,,,,,,,,,,,,,,,,,,,,,,,down,0,0.934,,0.283695652,-0.106521739,1,0,0,0.484,0,70,70,17,1,taal,images/br_taal.png,images/cb_taal.png,1,taal,,,,,,,,,,,,,,,,,,,,,
,,,,,,,2023-09-25_16h45.46.632,vbt_B1_day2,2022.2.4,MacIntel,62.5,55879,,,,,,,,,,,,,,,,,,,,,,,,,,,down,0,2.355,,0.283695652,-0.106521739,1,0,0,0.901,0,71,71,75,1,snoep,images/br_snoep.png,images/cb_snoep.png,0,,,,,,,,,,,,,,,,,,,,,,
,,,,,,,2023-09-25_16h45.46.632,vbt_B1_day2,2022.2.4,MacIntel,62.5,55879,,,,,,,,,,,,,,,,,,,,,,,,,,,down,0,0.404,,0.283695652,-0.106521739,1,0,0,0.634,0,72,72,0,1,slak,images/br_slak.png,images/cb_slak.png,0,,,,,,,,,,,,,,,,,,,,,,
,,,,,,,2023-09-25_16h45.46.632,vbt_B1_day2,2022.2.4,MacIntel,62.5,55879,,,,,,,,,,,,,,,,,,,,,,,,,,,down,0,4.909,,0.283695652,-0.106521739,1,0,0,0.65,0,73,73,85,1,heilig,images/br_heilig.png,images/cb_heilig.png,0,,,,,,,,,,,,,,,,,,,,,,
,,,,,,,2023-09-25_16h45.46.632,vbt_B1_day2,2022.2.4,MacIntel,62.5,55879,,,,,,,,,,,,,,,,,,,,,,,,,,,down,0,0.989,,0.283695652,-0.106521739,1,0,0,0.583,0,74,74,55,1,praat,images/br_praat.png,images/cb_praat.png,0,,,,,,,,,,,,,,,,,,,,,,
,,,,,,,2023-09-25_16h45.46.632,vbt_B1_day2,2022.2.4,MacIntel,62.5,55879,,,,,,,,,,,,,,,,,,,,,,,,,,,down,0,9.235,,0.283695652,-0.106521739,1,0,0,0.717,0,75,75,154,1,aflopen,images/br_aflopen.png,images/cb_aflopen.png,0,,,,,,,,,,,,,,,,,,,,,,
,,,,,,,2023-09-25_16h45.46.632,vbt_B1_day2,2022.2.4,MacIntel,62.5,55879,,,,,,,,,,,,,,,,,,,,,,,,,,,down,0,2.59,,0.283695652,-0.106521739,1,0,0,0.483,0,76,76,124,1,bloeien,images/br_bloeien.png,images/cb_bloeien.png,0,,,,,,,,,,,,,,,,,,,,,,
,,,,,,,2023-09-25_16h45.46.632,vbt_B1_day2,2022.2.4,MacIntel,62.5,55879,,,,,,,,,,,,,,,,,,,,,,,,,,,down,0,2.607,,0.283695652,-0.106521739,1,0,0,0.734,0,77,77,23,1,zout,images/br_zout.png,images/cb_zout.png,0,,,,,,,,,,,,,,,,,,,,,,
,,,,,,,2023-09-25_16h45.46.632,vbt_B1_day2,2022.2.4,MacIntel,62.5,55879,,,,,,,,,,,,,,,,,,,,,,,,,,,down,0,1.417,,0.283695652,-0.106521739,1,0,0,0.583,0,78,78,78,1,leren,images/br_leren.png,images/cb_leren.png,0,,,,,,,,,,,,,,,,,,,,,,
,,,,,,,2023-09-25_16h45.46.632,vbt_B1_day2,2022.2.4,MacIntel,62.5,55879,,,,,,,,,,,,,,,,,,,,,,,,,,,down,0,0.901,,0.283695652,-0.106521739,1,0,0,0.535,0,79,79,117,1,kennis,images/br_kennis.png,images/cb_kennis.png,0,,,,,,,,,,,,,,,,,,,,,,
,,,,,,,2023-09-25_16h45.46.632,vbt_B1_day2,2022.2.4,MacIntel,62.5,55879,,,,,,,,,,,,,,,,,,,,,,,,,,,down,0,2.933,,0.283695652,-0.106521739,1,0,0,0.617,0,80,80,193,1,weeshuis,images/br_weeshuis.png,images/cb_weeshuis.png,0,,,,,,,,,,,,,,,,,,,,,,
,,,,,,,2023-09-25_16h45.46.632,vbt_B1_day2,2022.2.4,MacIntel,62.5,55879,,,,,,,,,,,,,,,,,,,,,,,,,,,down,0,2.2,,0.283695652,-0.106521739,1,0,0,0.332,0,81,81,57,1,steek,images/br_steek.png,images/cb_steek.png,1,steek,,,,,,,,,,,,,,,,,,,,,
,,,,,,,2023-09-25_16h45.46.632,vbt_B1_day2,2022.2.4,MacIntel,62.5,55879,,,,,,,,,,,,,,,,,,,,,,,,,,,down,0,9.885,,0.283695652,-0.106521739,1,0,0,0.45,0,82,82,177,1,maaltijd,images/br_maaltijd.png,images/cb_maaltijd.png,1,maaltijd,,,,,,,,,,,,,,,,,,,,,
,,,,,,,2023-09-25_16h45.46.632,vbt_B1_day2,2022.2.4,MacIntel,62.5,55879,,,,,,,,,,,,,,,,,,,,,,,,,,,down,0,1.343,,0.283695652,-0.106521739,1,0,0,0.6,0,83,83,150,1,gegeven,images/br_gegeven.png,images/cb_gegeven.png,0,,,,,,,,,,,,,,,,,,,,,,
,,,,,,,2023-09-25_16h45.46.632,vbt_B1_day2,2022.2.4,MacIntel,62.5,55879,,,,,,,,,,,,,,,,,,,,,,,,,,,down,0,0.889,,0.283695652,-0.106521739,1,0,0,0.517,0,84,84,12,1,kust,images/br_kust.png,images/cb_kust.png,0,,,,,,,,,,,,,,,,,,,,,,
,,,,,,,2023-09-25_16h45.46.632,vbt_B1_day2,2022.2.4,MacIntel,62.5,55879,,,,,,,,,,,,,,,,,,,,,,,,,,,down,0,2.992,,0.283695652,-0.106521739,1,0,0,0.45,0,85,85,197,1,spanning,images/br_spanning.png,images/cb_spanning.png,0,,,,,,,,,,,,,,,,,,,,,,
,,,,,,,2023-09-25_16h45.46.632,vbt_B1_day2,2022.2.4,MacIntel,62.5,55879,,,,,,,,,,,,,,,,,,,,,,,,,,,down,0,1.734,,0.283695652,-0.106521739,1,0,0,0.484,0,86,86,21,1,mist,images/br_mist.png,images/cb_mist.png,0,,,,,,,,,,,,,,,,,,,,,,
,,,,,,,2023-09-25_16h45.46.632,vbt_B1_day2,2022.2.4,MacIntel,62.5,55879,,,,,,,,,,,,,,,,,,,,,,,,,,,down,0,1.384,,0.283695652,-0.106521739,1,0,0,0.584,0,87,87,43,1,klauw,images/br_klauw.png,images/cb_klauw.png,0,,,,,,,,,,,,,,,,,,,,,,
,,,,,,,2023-09-25_16h45.46.632,vbt_B1_day2,2022.2.4,MacIntel,62.5,55879,,,,,,,,,,,,,,,,,,,,,,,,,,,down,0,2.758,,0.283695652,-0.106521739,1,0,0,0.633,0,88,88,47,1,kabel,images/br_kabel.png,images/cb_kabel.png,0,,,,,,,,,,,,,,,,,,,,,,
,,,,,,,2023-09-25_16h45.46.632,vbt_B1_day2,2022.2.4,MacIntel,62.5,55879,,,,,,,,,,,,,,,,,,,,,,,,,,,down,0,2.067,,0.283695652,-0.106521739,1,0,0,0.6,0,89,89,63,1,flirt,images/br_flirt.png,images/cb_flirt.png,0,,,,,,,,,,,,,,,,,,,,,,
,,,,,,,2023-09-25_16h45.46.632,vbt_B1_day2,2022.2.4,MacIntel,62.5,55879,,,,,,,,,,,,,,,,,,,,,,,,,,,down,0,0.371,,0.283695652,-0.106521739,1,0,0,0.633,0,90,90,151,1,aanzoek,images/br_aanzoek.png,images/cb_aanzoek.png,0,,,,,,,,,,,,,,,,,,,,,,
,,,,,,,2023-09-25_16h45.46.632,vbt_B1_day2,2022.2.4,MacIntel,62.5,55879,,,,,,,,,,,,,,,,,,,,,,,,,,,down,0,1.401,,0.283695652,-0.106521739,1,0,0,0.517,0,91,91,119,1,liefje,images/br_liefje.png,images/cb_liefje.png,0,,,,,,,,,,,,,,,,,,,,,,
,,,,,,,2023-09-25_16h45.46.632,vbt_B1_day2,2022.2.4,MacIntel,62.5,55879,,,,,,,,,,,,,,,,,,,,,,,,,,,down,0,0.488,,0.283695652,-0.106521739,1,0,0,0.816,0,92,92,10,1,leek,images/br_leek.png,images/cb_leek.png,0,,,,,,,,,,,,,,,,,,,,,,
,,,,,,,2023-09-25_16h45.46.632,vbt_B1_day2,2022.2.4,MacIntel,62.5,55879,,,,,,,,,,,,,,,,,,,,,,,,,,,down,0,4.127,,0.283695652,-0.106521739,1,0,0,0.634,0,93,93,66,1,lever,images/br_lever.png,images/cb_lever.png,0,,,,,,,,,,,,,,,,,,,,,,
,,,,,,,2023-09-25_16h45.46.632,vbt_B1_day2,2022.2.4,MacIntel,62.5,55879,,,,,,,,,,,,,,,,,,,,,,,,,,,down,0,2.344,,0.283695652,-0.106521739,1,0,0,0.416,0,94,94,19,1,geit,images/br_geit.png,images/cb_geit.png,1,geit,,,,,,,,,,,,,,,,,,,,,
,,,,,,,2023-09-25_16h45.46.632,vbt_B1_day2,2022.2.4,MacIntel,62.5,55879,,,,,,,,,,,,,,,,,,,,,,,,,,,down,0,1.217,,0.283695652,-0.106521739,1,0,0,0.717,0,95,95,123,1,hiervan,images/br_hiervan.png,images/cb_hiervan.png,0,,,,,,,,,,,,,,,,,,,,,,
,,,,,,,2023-09-25_16h45.46.632,vbt_B1_day2,2022.2.4,MacIntel,62.5,55879,,,,,,,,,,,,,,,,,,,,,,,,,,,down,0,1.126,,0.283695652,-0.106521739,1,0,0,0.434,0,96,96,65,1,parel,images/br_parel.png,images/cb_parel.png,0,,,,,,,,,,,,,,,,,,,,,,
,,,,,,,2023-09-25_16h45.46.632,vbt_B1_day2,2022.2.4,MacIntel,62.5,55879,,,,,,,,,,,,,,,,,,,,,,,,,,,down,0,4.601,,0.283695652,-0.106521739,1,0,0,0.449,0,97,97,198,1,bedoelen,images/br_bedoelen.png,images/cb_bedoelen.png,0,,,,,,,,,,,,,,,,,,,,,,
,,,,,,,2023-09-25_16h45.46.632,vbt_B1_day2,2022.2.4,MacIntel,62.5,55879,,,,,,,,,,,,,,,,,,,,,,,,,,,down,0,0.2,,0.283695652,-0.106521739,1,0,0,0.734,0,98,98,70,1,ijdel,images/br_ijdel.png,images/cb_ijdel.png,0,,,,,,,,,,,,,,,,,,,,,,
,,,,,,,2023-09-25_16h45.46.632,vbt_B1_day2,2022.2.4,MacIntel,62.5,55879,,,,,,,,,,,,,,,,,,,,,,,,,,,down,0,1.966,,0.288043478,-0.106521739,1,0,0,0.45,0,99,99,113,1,koppen,images/br_koppen.png,images/cb_koppen.png,0,,,,,,,,,,,,,,,,,,,,,,
,,,,,,,2023-09-25_16h45.46.632,vbt_B1_day2,2022.2.4,MacIntel,62.5,55879,,,,,,,,,,,,,,,,,,,,,,,,,,,down,0,3.723,,0.288043478,-0.106521739,1,0,0,0.634,0,100,100,185,1,mijnheer,images/br_mijnheer.png,images/cb_mijnheer.png,0,,,,,,,,,,,,,,,,,,,,,,
,,,,,,,2023-09-25_16h45.46.632,vbt_B1_day2,2022.2.4,MacIntel,62.5,55879,,,,,,,,,,,,,,,,,,,,,,,,,,,down,0,45.9,,0.288043478,-0.106521739,1,0,0,0.633,0,101,101,140,1,blijven,images/br_blijven.png,images/cb_blijven.png,0,,,,,,,,,,,,,,,,,,,,,,
,,,,,,,2023-09-25_16h45.46.632,vbt_B1_day2,2022.2.4,MacIntel,62.5,55879,,,,,,,,,,,,,,,,,,,,,,,,,,,down,0,0.434,,0.286956522,-0.110869565,1,0,0,0.983,0,102,102,107,1,maling,images/br_maling.png,images/cb_maling.png,0,,,,,,,,,,,,,,,,,,,,,,
,,,,,,,2023-09-25_16h45.46.632,vbt_B1_day2,2022.2.4,MacIntel,62.5,55879,,,,,,,,,,,,,,,,,,,,,,,,,,,down,0,2.34,,0.286956522,-0.110869565,1,0,0,0.933,0,103,103,94,1,oceaan,images/br_oceaan.png,images/cb_oceaan.png,0,,,,,,,,,,,,,,,,,,,,,,
,,,,,,,2023-09-25_16h45.46.632,vbt_B1_day2,2022.2.4,MacIntel,62.5,55879,,,,,,,,,,,,,,,,,,,,,,,,,,,down,0,2.235,,0.286956522,-0.110869565,1,0,0,0.633,0,104,104,9,1,hier,images/br_hier.png,images/cb_hier.png,0,,,,,,,,,,,,,,,,,,,,,,
,,,,,,,2023-09-25_16h45.46.632,vbt_B1_day2,2022.2.4,MacIntel,62.5,55879,,,,,,,,,,,,,,,,,,,,,,,,,,,down,0,0.484,,0.286956522,-0.110869565,1,0,0,0.65,0,105,105,125,1,aanzien,images/br_aanzien.png,images/cb_aanzien.png,0,,,,,,,,,,,,,,,,,,,,,,
,,,,,,,2023-09-25_16h45.46.632,vbt_B1_day2,2022.2.4,MacIntel,62.5,55879,,,,,,,,,,,,,,,,,,,,,,,,,,,down,0,1.07,,0.286956522,-0.110869565,1,0,0,0.768,0,106,106,84,1,lokken,images/br_lokken.png,images/cb_lokken.png,0,,,,,,,,,,,,,,,,,,,,,,
,,,,,,,2023-09-25_16h45.46.632,vbt_B1_day2,2022.2.4,MacIntel,62.5,55879,,,,,,,,,,,,,,,,,,,,,,,,,,,down,0,2.373,,0.286956522,-0.110869565,1,0,0,0.634,0,107,107,156,1,rechten,images/br_rechten.png,images/cb_rechten.png,0,,,,,,,,,,,,,,,,,,,,,,
,,,,,,,2023-09-25_16h45.46.632,vbt_B1_day2,2022.2.4,MacIntel,62.5,55879,,,,,,,,,,,,,,,,,,,,,,,,,,,down,0,2.06,,0.286956522,-0.110869565,1,0,0,0.666,0,108,108,92,1,geheim,images/br_geheim.png,images/cb_geheim.png,0,,,,,,,,,,,,,,,,,,,,,,
,,,,,,,2023-09-25_16h45.46.632,vbt_B1_day2,2022.2.4,MacIntel,62.5,55879,,,,,,,,,,,,,,,,,,,,,,,,,,,down,0,0.233,,0.286956522,-0.110869565,1,0,0,0.433,0,109,109,1,1,zaal,images/br_zaal.png,images/cb_zaal.png,0,,,,,,,,,,,,,,,,,,,,,,
,,,,,,,2023-09-25_16h45.46.632,vbt_B1_day2,2022.2.4,MacIntel,62.5,55879,,,,,,,,,,,,,,,,,,,,,,,,,,,down,0,3.24,,0.286956522,-0.110869565,1,0,0,0.934,0,110,110,32,1,palm,images/br_palm.png,images/cb_palm.png,0,,,,,,,,,,,,,,,,,,,,,,
,,,,,,,2023-09-25_16h45.46.632,vbt_B1_day2,2022.2.4,MacIntel,62.5,55879,,,,,,,,,,,,,,,,,,,,,,,,,,,down,0,1.791,,0.286956522,-0.110869565,1,0,0,0.8,0,111,111,5,1,blad,images/br_blad.png,images/cb_blad.png,0,,,,,,,,,,,,,,,,,,,,,,
,,,,,,,2023-09-25_16h45.46.632,vbt_B1_day2,2022.2.4,MacIntel,62.5,55879,,,,,,,,,,,,,,,,,,,,,,,,,,,down,0,2.101,,0.286956522,-0.110869565,1,0,0,0.617,0,112,112,67,1,zwart,images/br_zwart.png,images/cb_zwart.png,0,,,,,,,,,,,,,,,,,,,,,,
,,,,,,,2023-09-25_16h45.46.632,vbt_B1_day2,2022.2.4,MacIntel,62.5,55879,,,,,,,,,,,,,,,,,,,,,,,,,,,down,0,6.361,,0.286956522,-0.110869565,1,0,0,0.683,0,113,113,188,1,strekken,images/br_strekken.png,images/cb_strekken.png,0,,,,,,,,,,,,,,,,,,,,,,
,,,,,,,2023-09-25_16h45.46.632,vbt_B1_day2,2022.2.4,MacIntel,62.5,55879,,,,,,,,,,,,,,,,,,,,,,,,,,,down,0,3.789,,0.286956522,-0.110869565,1,0,0,0.716,0,114,114,131,1,opzicht,images/br_opzicht.png,images/cb_opzicht.png,0,,,,,,,,,,,,,,,,,,,,,,
,,,,,,,2023-09-25_16h45.46.632,vbt_B1_day2,2022.2.4,MacIntel,62.5,55879,,,,,,,,,,,,,,,,,,,,,,,,,,,down,0,0.367,,0.286956522,-0.110869565,1,0,0,1.334,0,115,115,11,1,mode,images/br_mode.png,images/cb_mode.png,0,,,,,,,,,,,,,,,,,,,,,,
,,,,,,,2023-09-25_16h45.46.632,vbt_B1_day2,2022.2.4,MacIntel,62.5,55879,,,,,,,,,,,,,,,,,,,,,,,,,,,down,0,2.283,,0.286956522,-0.110869565,1,0,0,0.534,0,116,116,172,1,weigeren,images/br_weigeren.png,images/cb_weigeren.png,0,,,,,,,,,,,,,,,,,,,,,,
,,,,,,,2023-09-25_16h45.46.632,vbt_B1_day2,2022.2.4,MacIntel,62.5,55879,,,,,,,,,,,,,,,,,,,,,,,,,,,down,0,5.234,,0.286956522,-0.110869565,1,0,0,1.017,0,117,117,143,1,hechten,images/br_hechten.png,images/cb_hechten.png,0,,,,,,,,,,,,,,,,,,,,,,
,,,,,,,2023-09-25_16h45.46.632,vbt_B1_day2,2022.2.4,MacIntel,62.5,55879,,,,,,,,,,,,,,,,,,,,,,,,,,,down,0,1.016,,0.286956522,-0.110869565,1,0,0,0.667,0,118,118,37,1,mijn,images/br_mijn.png,images/cb_mijn.png,0,,,,,,,,,,,,,,,,,,,,,,
,,,,,,,2023-09-25_16h45.46.632,vbt_B1_day2,2022.2.4,MacIntel,62.5,55879,,,,,,,,,,,,,,,,,,,,,,,,,,,down,0,1.5,,0.286956522,-0.110869565,1,0,0,2.867,0,119,119,60,1,jasje,images/br_jasje.png,images/cb_jasje.png,0,,,,,,,,,,,,,,,,,,,,,,
,,,,,,,2023-09-25_16h45.46.632,vbt_B1_day2,2022.2.4,MacIntel,62.5,55879,,,,,,,,,,,,,,,,,,,,,,,,,,,down,0,5.735,,0.286956522,-0.110869565,1,0,0,1.05,0,120,120,40,1,schep,images/br_schep.png,images/cb_schep.png,0,,,,,,,,,,,,,,,,,,,,,,
,,,,,,,2023-09-25_16h45.46.632,vbt_B1_day2,2022.2.4,MacIntel,62.5,55879,,,,,,,,,,,,,,,,,,,,,,,,,,,down,0,2.666,,0.286956522,-0.110869565,1,0,0,0.733,0,121,121,157,1,uitlaat,images/br_uitlaat.png,images/cb_uitlaat.png,0,,,,,,,,,,,,,,,,,,,,,,
,,,,,,,2023-09-25_16h45.46.632,vbt_B1_day2,2022.2.4,MacIntel,62.5,55879,,,,,,,,,,,,,,,,,,,,,,,,,,,down,0,2.933,,0.286956522,-0.110869565,1,0,0,0.983,0,122,122,159,1,sufferd,images/br_sufferd.png,images/cb_sufferd.png,0,,,,,,,,,,,,,,,,,,,,,,
,,,,,,,2023-09-25_16h45.46.632,vbt_B1_day2,2022.2.4,MacIntel,62.5,55879,,,,,,,,,,,,,,,,,,,,,,,,,,,down,0,0.933,,0.286956522,-0.110869565,1,0,0,0.867,0,123,123,144,1,eetlust,images/br_eetlust.png,images/cb_eetlust.png,0,,,,,,,,,,,,,,,,,,,,,,
,,,,,,,2023-09-25_16h45.46.632,vbt_B1_day2,2022.2.4,MacIntel,62.5,55879,,,,,,,,,,,,,,,,,,,,,,,,,,,down,0,2.167,,0.286956522,-0.110869565,1,0,0,0.816,0,124,124,121,1,twijfel,images/br_twijfel.png,images/cb_twijfel.png,0,,,,,,,,,,,,,,,,,,,,,,
,,,,,,,2023-09-25_16h45.46.632,vbt_B1_day2,2022.2.4,MacIntel,62.5,55879,,,,,,,,,,,,,,,,,,,,,,,,,,,down,0,1.372,,0.286956522,-0.110869565,1,0,0,0.8,0,125,125,36,1,vuur,images/br_vuur.png,images/cb_vuur.png,0,,,,,,,,,,,,,,,,,,,,,,
,,,,,,,2023-09-25_16h45.46.632,vbt_B1_day2,2022.2.4,MacIntel,62.5,55879,,,,,,,,,,,,,,,,,,,,,,,,,,,down,0,4.074,,0.286956522,-0.110869565,1,0,0,0.6,0,126,126,95,1,vreten,images/br_vreten.png,images/cb_vreten.png,0,,,,,,,,,,,,,,,,,,,,,,
,,,,,,,2023-09-25_16h45.46.632,vbt_B1_day2,2022.2.4,MacIntel,62.5,55879,,,,,,,,,,,,,,,,,,,,,,,,,,,down,0,2.018,,0.286956522,-0.110869565,1,0,0,0.783,0,127,127,166,1,strikken,images/br_strikken.png,images/cb_strikken.png,0,,,,,,,,,,,,,,,,,,,,,,
,,,,,,,2023-09-25_16h45.46.632,vbt_B1_day2,2022.2.4,MacIntel,62.5,55879,,,,,,,,,,,,,,,,,,,,,,,,,,,down,0,1.717,,0.286956522,-0.110869565,1,0,0,0.567,0,128,128,79,1,nodig,images/br_nodig.png,images/cb_nodig.png,0,,,,,,,,,,,,,,,,,,,,,,
,,,,,,,2023-09-25_16h45.46.632,vbt_B1_day2,2022.2.4,MacIntel,62.5,55879,,,,,,,,,,,,,,,,,,,,,,,,,,,down,0,2.469,,0.286956522,-0.110869565,1,0,0,0.649,0,129,129,161,1,attentie,images/br_attentie.png,images/cb_attentie.png,0,,,,,,,,,,,,,,,,,,,,,,
,,,,,,,2023-09-25_16h45.46.632,vbt_B1_day2,2022.2.4,MacIntel,62.5,55879,,,,,,,,,,,,,,,,,,,,,,,,,,,down,0,2.634,,0.286956522,-0.110869565,1,0,0,1.083,0,130,130,192,1,schaamte,images/br_schaamte.png,images/cb_schaamte.png,0,,,,,,,,,,,,,,,,,,,,,,
,,,,,,,2023-09-25_16h45.46.632,vbt_B1_day2,2022.2.4,MacIntel,62.5,55879,,,,,,,,,,,,,,,,,,,,,,,,,,,down,0,5.943,,0.286956522,-0.110869565,1,0,0,1.55,0,131,131,168,1,bisschop,images/br_bisschop.png,images/cb_bisschop.png,0,,,,,,,,,,,,,,,,,,,,,,
,,,,,,,2023-09-25_16h45.46.632,vbt_B1_day2,2022.2.4,MacIntel,62.5,55879,,,,,,,,,,,,,,,,,,,,,,,,,,,down,0,3.503,,0.286956522,-0.110869565,1,0,0,1.433,0,132,132,186,1,voorraad,images/br_voorraad.png,images/cb_voorraad.png,0,,,,,,,,,,,,,,,,,,,,,,
,,,,,,,2023-09-25_16h45.46.632,vbt_B1_day2,2022.2.4,MacIntel,62.5,55879,,,,,,,,,,,,,,,,,,,,,,,,,,,down,0,0.617,,0.286956522,-0.110869565,1,0,0,1.05,0,133,133,25,1,plek,images/br_plek.png,images/cb_plek.png,0,,,,,,,,,,,,,,,,,,,,,,
,,,,,,,2023-09-25_16h45.46.632,vbt_B1_day2,2022.2.4,MacIntel,62.5,55879,,,,,,,,,,,,,,,,,,,,,,,,,,,down,0,1.771,,0.286956522,-0.110869565,1,0,0,0.95,0,134,134,50,1,stoom,images/br_stoom.png,images/cb_stoom.png,0,,,,,,,,,,,,,,,,,,,,,,
,,,,,,,2023-09-25_16h45.46.632,vbt_B1_day2,2022.2.4,MacIntel,62.5,55879,,,,,,,,,,,,,,,,,,,,,,,,,,,down,0,1.402,,0.286956522,-0.110869565,1,0,0,0.617,0,135,135,110,1,zuster,images/br_zuster.png,images/cb_zuster.png,0,,,,,,,,,,,,,,,,,,,,,,
,,,,,,,2023-09-25_16h45.46.632,vbt_B1_day2,2022.2.4,MacIntel,62.5,55879,,,,,,,,,,,,,,,,,,,,,,,,,,,down,0,0.05,,0.286956522,-0.110869565,1,0,0,0.601,0,136,136,49,1,laken,images/br_laken.png,images/cb_laken.png,0,,,,,,,,,,,,,,,,,,,,,,
,,,,,,,2023-09-25_16h45.46.632,vbt_B1_day2,2022.2.4,MacIntel,62.5,55879,,,,,,,,,,,,,,,,,,,,,,,,,,,down,0,2.441,,0.286956522,-0.110869565,1,0,0,1.016,0,137,137,183,1,getuigen,images/br_getuigen.png,images/cb_getuigen.png,0,,,,,,,,,,,,,,,,,,,,,,
,,,,,,,2023-09-25_16h45.46.632,vbt_B1_day2,2022.2.4,MacIntel,62.5,55879,,,,,,,,,,,,,,,,,,,,,,,,,,,down,0,4.502,,0.286956522,-0.110869565,1,0,0,0.566,0,138,138,76,1,afval,images/br_afval.png,images/cb_afval.png,0,,,,,,,,,,,,,,,,,,,,,,
,,,,,,,2023-09-25_16h45.46.632,vbt_B1_day2,2022.2.4,MacIntel,62.5,55879,,,,,,,,,,,,,,,,,,,,,,,,,,,down,0,1.65,,0.286956522,-0.110869565,1,0,0,0.901,0,139,139,83,1,mening,images/br_mening.png,images/cb_mening.png,0,,,,,,,,,,,,,,,,,,,,,,
,,,,,,,2023-09-25_16h45.46.632,vbt_B1_day2,2022.2.4,MacIntel,62.5,55879,,,,,,,,,,,,,,,,,,,,,,,,,,,down,0,2.934,,0.286956522,-0.110869565,1,0,0,0.634,0,140,140,101,1,staren,images/br_staren.png,images/cb_staren.png,0,,,,,,,,,,,,,,,,,,,,,,
,,,,,,,2023-09-25_16h45.46.632,vbt_B1_day2,2022.2.4,MacIntel,62.5,55879,,,,,,,,,,,,,,,,,,,,,,,,,,,down,0,2.617,,0.286956522,-0.110869565,1,0,0,0.816,0,141,141,187,1,opkijken,images/br_opkijken.png,images/cb_opkijken.png,0,,,,,,,,,,,,,,,,,,,,,,
,,,,,,,2023-09-25_16h45.46.632,vbt_B1_day2,2022.2.4,MacIntel,62.5,55879,,,,,,,,,,,,,,,,,,,,,,,,,,,down,0,3.221,,0.286956522,-0.110869565,1,0,0,1.416,0,142,142,181,1,toegeven,images/br_toegeven.png,images/cb_toegeven.png,0,,,,,,,,,,,,,,,,,,,,,,
,,,,,,,2023-09-25_16h45.46.632,vbt_B1_day2,2022.2.4,MacIntel,62.5,55879,,,,,,,,,,,,,,,,,,,,,,,,,,,down,0,2.284,,0.286956522,-0.110869565,1,0,0,0.867,0,143,143,71,1,bever,images/br_bever.png,images/cb_bever.png,0,,,,,,,,,,,,,,,,,,,,,,
,,,,,,,2023-09-25_16h45.46.632,vbt_B1_day2,2022.2.4,MacIntel,62.5,55879,,,,,,,,,,,,,,,,,,,,,,,,,,,down,0,5.018,,0.286956522,-0.110869565,1,0,0,0.6,0,144,144,169,1,oprotten,images/br_oprotten.png,images/cb_oprotten.png,0,,,,,,,,,,,,,,,,,,,,,,
,,,,,,,2023-09-25_16h45.46.632,vbt_B1_day2,2022.2.4,MacIntel,62.5,55879,,,,,,,,,,,,,,,,,,,,,,,,,,,down,0,3.692,,0.286956522,-0.110869565,1,0,0,0.582,0,145,145,195,1,middelen,images/br_middelen.png,images/cb_middelen.png,0,,,,,,,,,,,,,,,,,,,,,,
,,,,,,,2023-09-25_16h45.46.632,vbt_B1_day2,2022.2.4,MacIntel,62.5,55879,,,,,,,,,,,,,,,,,,,,,,,,,,,down,0,0.137,,0.286956522,-0.110869565,1,0,0,0.85,0,146,146,135,1,gedicht,images/br_gedicht.png,images/cb_gedicht.png,0,,,,,,,,,,,,,,,,,,,,,,
,,,,,,,2023-09-25_16h45.46.632,vbt_B1_day2,2022.2.4,MacIntel,62.5,55879,,,,,,,,,,,,,,,,,,,,,,,,,,,down,0,3.761,,0.286956522,-0.110869565,1,0,0,0.683,0,147,147,111,1,ticket,images/br_ticket.png,images/cb_ticket.png,0,,,,,,,,,,,,,,,,,,,,,,
,,,,,,,2023-09-25_16h45.46.632,vbt_B1_day2,2022.2.4,MacIntel,62.5,55879,,,,,,,,,,,,,,,,,,,,,,,,,,,down,0,1.191,,0.286956522,-0.110869565,1,0,0,0.5,0,148,148,88,1,boeien,images/br_boeien.png,images/cb_boeien.png,0,,,,,,,,,,,,,,,,,,,,,,
,,,,,,,2023-09-25_16h45.46.632,vbt_B1_day2,2022.2.4,MacIntel,62.5,55879,,,,,,,,,,,,,,,,,,,,,,,,,,,down,0,0.45,,0.286956522,-0.110869565,1,0,0,0.566,0,149,149,28,1,stal,images/br_stal.png,images/cb_stal.png,0,,,,,,,,,,,,,,,,,,,,,,
,,,,,,,2023-09-25_16h45.46.632,vbt_B1_day2,2022.2.4,MacIntel,62.5,55879,,,,,,,,,,,,,,,,,,,,,,,,,,,down,0,3.983,,0.286956522,-0.110869565,1,0,0,0.683,0,150,150,146,1,opkomen,images/br_opkomen.png,images/cb_opkomen.png,0,,,,,,,,,,,,,,,,,,,,,,
,,,,,,,2023-09-25_16h45.46.632,vbt_B1_day2,2022.2.4,MacIntel,62.5,55879,,,,,,,,,,,,,,,,,,,,,,,,,,,down,0,0.34,,0.286956522,-0.110869565,1,0,0,0.65,0,151,151,15,1,soda,images/br_soda.png,images/cb_soda.png,0,,,,,,,,,,,,,,,,,,,,,,
,,,,,,,2023-09-25_16h45.46.632,vbt_B1_day2,2022.2.4,MacIntel,62.5,55879,,,,,,,,,,,,,,,,,,,,,,,,,,,down,0,1.056,,0.286956522,-0.110869565,1,0,0,0.633,0,152,152,103,1,joggen,images/br_joggen.png,images/cb_joggen.png,0,,,,,,,,,,,,,,,,,,,,,,
,,,,,,,2023-09-25_16h45.46.632,vbt_B1_day2,2022.2.4,MacIntel,62.5,55879,,,,,,,,,,,,,,,,,,,,,,,,,,,down,0,2.552,,0.286956522,-0.110869565,1,0,0,0.467,0,153,153,59,1,kring,images/br_kring.png,images/cb_kring.png,1,kring,,,,,,,,,,,,,,,,,,,,,
,,,,,,,2023-09-25_16h45.46.632,vbt_B1_day2,2022.2.4,MacIntel,62.5,55879,,,,,,,,,,,,,,,,,,,,,,,,,,,down,0,6.112,,0.286956522,-0.110869565,1,0,0,2.467,0,154,154,182,1,bijkomen,images/br_bijkomen.png,images/cb_bijkomen.png,0,,,,,,,,,,,,,,,,,,,,,,
,,,,,,,2023-09-25_16h45.46.632,vbt_B1_day2,2022.2.4,MacIntel,62.5,55879,,,,,,,,,,,,,,,,,,,,,,,,,,,down,0,3.1,,0.286956522,-0.110869565,1,0,0,0.984,0,155,155,158,1,innemen,images/br_innemen.png,images/cb_innemen.png,0,,,,,,,,,,,,,,,,,,,,,,
,,,,,,,2023-09-25_16h45.46.632,vbt_B1_day2,2022.2.4,MacIntel,62.5,55879,,,,,,,,,,,,,,,,,,,,,,,,,,,down,0,2.585,,0.286956522,-0.110869565,1,0,0,0.617,0,156,156,82,1,muziek,images/br_muziek.png,images/cb_muziek.png,0,,,,,,,,,,,,,,,,,,,,,,
,,,,,,,2023-09-25_16h45.46.632,vbt_B1_day2,2022.2.4,MacIntel,62.5,55879,,,,,,,,,,,,,,,,,,,,,,,,,,,down,0,0.501,,0.286956522,-0.110869565,1,0,0,0.55,0,157,157,90,1,geluid,images/br_geluid.png,images/cb_geluid.png,0,,,,,,,,,,,,,,,,,,,,,,
,,,,,,,2023-09-25_16h45.46.632,vbt_B1_day2,2022.2.4,MacIntel,62.5,55879,,,,,,,,,,,,,,,,,,,,,,,,,,,down,0,1.683,,0.286956522,-0.109782609,1,0,0,0.633,0,158,158,116,1,besmet,images/br_besmet.png,images/cb_besmet.png,0,,,,,,,,,,,,,,,,,,,,,,
,,,,,,,2023-09-25_16h45.46.632,vbt_B1_day2,2022.2.4,MacIntel,62.5,55879,,,,,,,,,,,,,,,,,,,,,,,,,,,down,0,3.285,,0.286956522,-0.109782609,1,0,0,0.567,0,159,159,196,1,nakijken,images/br_nakijken.png,images/cb_nakijken.png,0,,,,,,,,,,,,,,,,,,,,,,
,,,,,,,2023-09-25_16h45.46.632,vbt_B1_day2,2022.2.4,MacIntel,62.5,55879,,,,,,,,,,,,,,,,,,,,,,,,,,,down,0,2.386,,0.286956522,-0.109782609,1,0,0,0.733,0,160,160,56,1,traag,images/br_traag.png,images/cb_traag.png,1,traag,,,,,,,,,,,,,,,,,,,,,
,,,,,,,2023-09-25_16h45.46.632,vbt_B1_day2,2022.2.4,MacIntel,62.5,55879,,,,,,,,,,,,,,,,,,,,,,,,,,,down,0,2.667,,0.286956522,-0.109782609,1,0,0,0.367,0,161,161,6,1,diep,images/br_diep.png,images/cb_diep.png,0,,,,,,,,,,,,,,,,,,,,,,
,,,,,,,2023-09-25_16h45.46.632,vbt_B1_day2,2022.2.4,MacIntel,62.5,55879,,,,,,,,,,,,,,,,,,,,,,,,,,,down,0,3.003,,0.286956522,-0.109782609,1,0,0,0.584,0,162,162,98,1,kreeft,images/br_kreeft.png,images/cb_kreeft.png,1,kreeft,,,,,,,,,,,,,,,,,,,,,
,,,,,,,2023-09-25_16h45.46.632,vbt_B1_day2,2022.2.4,MacIntel,62.5,55879,,,,,,,,,,,,,,,,,,,,,,,,,,,down,0,3.107,,0.286956522,-0.109782609,1,0,0,0.65,0,163,163,184,1,aandelen,images/br_aandelen.png,images/cb_aandelen.png,0,,,,,,,,,,,,,,,,,,,,,,
,,,,,,,2023-09-25_16h45.46.632,vbt_B1_day2,2022.2.4,MacIntel,62.5,55879,,,,,,,,,,,,,,,,,,,,,,,,,,,down,0,2.1,,0.286956522,-0.109782609,1,0,0,0.467,0,164,164,152,1,afnemen,images/br_afnemen.png,images/cb_afnemen.png,0,,,,,,,,,,,,,,,,,,,,,,
,,,,,,,2023-09-25_16h45.46.632,vbt_B1_day2,2022.2.4,MacIntel,62.5,55879,,,,,,,,,,,,,,,,,,,,,,,,,,,down,0,1.07,,0.286956522,-0.109782609,1,0,0,0.917,0,165,165,100,1,geduld,images/br_geduld.png,images/cb_geduld.png,0,,,,,,,,,,,,,,,,,,,,,,
,,,,,,,2023-09-25_16h45.46.632,vbt_B1_day2,2022.2.4,MacIntel,62.5,55879,,,,,,,,,,,,,,,,,,,,,,,,,,,down,0,3.9,,0.286956522,-0.109782609,1,0,0,0.65,0,166,166,52,1,wagon,images/br_wagon.png,images/cb_wagon.png,0,,,,,,,,,,,,,,,,,,,,,,
,,,,,,,2023-09-25_16h45.46.632,vbt_B1_day2,2022.2.4,MacIntel,62.5,55879,,,,,,,,,,,,,,,,,,,,,,,,,,,down,0,2.041,,0.286956522,-0.109782609,1,0,0,1.383,0,167,167,189,1,aanraden,images/br_aanraden.png,images/cb_aanraden.png,0,,,,,,,,,,,,,,,,,,,,,,
,,,,,,,2023-09-25_16h45.46.632,vbt_B1_day2,2022.2.4,MacIntel,62.5,55879,,,,,,,,,,,,,,,,,,,,,,,,,,,down,0,0.154,,0.286956522,-0.109782609,1,0,0,0.984,0,168,168,42,1,bleek,images/br_bleek.png,images/cb_bleek.png,0,,,,,,,,,,,,,,,,,,,,,,
,,,,,,,2023-09-25_16h45.46.632,vbt_B1_day2,2022.2.4,MacIntel,62.5,55879,,,,,,,,,,,,,,,,,,,,,,,,,,,down,0,0.833,,0.286956522,-0.109782609,1,0,0,0.516,0,169,169,13,1,kaal,images/br_kaal.png,images/cb_kaal.png,0,,,,,,,,,,,,,,,,,,,,,,
,,,,,,,2023-09-25_16h45.46.632,vbt_B1_day2,2022.2.4,MacIntel,62.5,55879,,,,,,,,,,,,,,,,,,,,,,,,,,,down,0,3.1,,0.286956522,-0.109782609,1,0,0,0.6,0,170,170,81,1,dubbel,images/br_dubbel.png,images/cb_dubbel.png,0,,,,,,,,,,,,,,,,,,,,,,
,,,,,,,2023-09-25_16h45.46.632,vbt_B1_day2,2022.2.4,MacIntel,62.5,55879,,,,,,,,,,,,,,,,,,,,,,,,,,,down,0,1.209,,0.286956522,-0.109782609,1,0,0,0.517,0,171,171,51,1,samen,images/br_samen.png,images/cb_samen.png,0,,,,,,,,,,,,,,,,,,,,,,
,,,,,,,2023-09-25_16h45.46.632,vbt_B1_day2,2022.2.4,MacIntel,62.5,55879,,,,,,,,,,,,,,,,,,,,,,,,,,,down,0,2.954,,0.286956522,-0.109782609,1,0,0,0.717,0,172,172,122,1,waarvan,images/br_waarvan.png,images/cb_waarvan.png,0,,,,,,,,,,,,,,,,,,,,,,
,,,,,,,2023-09-25_16h45.46.632,vbt_B1_day2,2022.2.4,MacIntel,62.5,55879,,,,,,,,,,,,,,,,,,,,,,,,,,,down,0,5.052,,0.286956522,-0.109782609,1,0,0,0.584,0,173,173,105,1,wijlen,images/br_wijlen.png,images/cb_wijlen.png,0,,,,,,,,,,,,,,,,,,,,,,
,,,,,,,2023-09-25_16h45.46.632,vbt_B1_day2,2022.2.4,MacIntel,62.5,55879,,,,,,,,,,,,,,,,,,,,,,,,,,,down,0,0.818,,0.286956522,-0.109782609,1,0,0,0.833,0,174,174,34,1,vorm,images/br_vorm.png,images/cb_vorm.png,0,,,,,,,,,,,,,,,,,,,,,,
,,,,,,,2023-09-25_16h45.46.632,vbt_B1_day2,2022.2.4,MacIntel,62.5,55879,,,,,,,,,,,,,,,,,,,,,,,,,,,down,0,1.359,,0.286956522,-0.109782609,1,0,0,0.716,0,175,175,194,1,driemaal,images/br_driemaal.png,images/cb_driemaal.png,0,,,,,,,,,,,,,,,,,,,,,,
,,,,,,,2023-09-25_16h45.46.632,vbt_B1_day2,2022.2.4,MacIntel,62.5,55879,,,,,,,,,,,,,,,,,,,,,,,,,,,down,0,5.038,,0.286956522,-0.109782609,1,0,0,0.417,0,176,176,179,1,woestijn,images/br_woestijn.png,images/cb_woestijn.png,1,woestijn,,,,,,,,,,,,,,,,,,,,,
,,,,,,,2023-09-25_16h45.46.632,vbt_B1_day2,2022.2.4,MacIntel,62.5,55879,,,,,,,,,,,,,,,,,,,,,,,,,,,down,0,2.993,,0.286956522,-0.109782609,1,0,0,0.584,0,177,177,137,1,trekker,images/br_trekker.png,images/cb_trekker.png,1,trekker,,,,,,,,,,,,,,,,,,,,,
,,,,,,,2023-09-25_16h45.46.632,vbt_B1_day2,2022.2.4,MacIntel,62.5,55879,,,,,,,,,,,,,,,,,,,,,,,,,,,down,0,2.476,,0.286956522,-0.110869565,1,0,0,0.784,0,178,178,170,1,schatten,images/br_schatten.png,images/cb_schatten.png,0,,,,,,,,,,,,,,,,,,,,,,
,,,,,,,2023-09-25_16h45.46.632,vbt_B1_day2,2022.2.4,MacIntel,62.5,55879,,,,,,,,,,,,,,,,,,,,,,,,,,,down,0,1.236,,0.286956522,-0.110869565,1,0,0,0.784,0,179,179,160,1,daarheen,images/br_daarheen.png,images/cb_daarheen.png,0,,,,,,,,,,,,,,,,,,,,,,
,,,,,,,2023-09-25_16h45.46.632,vbt_B1_day2,2022.2.4,MacIntel,62.5,55879,,,,,,,,,,,,,,,,,,,,,,,,,,,down,0,1.434,,0.286956522,-0.110869565,1,0,0,0.801,0,180,180,134,1,geliefd,images/br_geliefd.png,images/cb_geliefd.png,0,,,,,,,,,,,,,,,,,,,,,,
,,,,,,,2023-09-25_16h45.46.632,vbt_B1_day2,2022.2.4,MacIntel,62.5,55879,,,,,,,,,,,,,,,,,,,,,,,,,,,down,0,3.026,,0.286956522,-0.110869565,1,0,0,0.599,0,181,181,165,1,feestdag,images/br_feestdag.png,images/cb_feestdag.png,0,,,,,,,,,,,,,,,,,,,,,,
,,,,,,,2023-09-25_16h45.46.632,vbt_B1_day2,2022.2.4,MacIntel,62.5,55879,,,,,,,,,,,,,,,,,,,,,,,,,,,down,0,0.217,,0.286956522,-0.110869565,1,0,0,0.817,0,182,182,22,1,stof,images/br_stof.png,images/cb_stof.png,0,,,,,,,,,,,,,,,,,,,,,,
,,,,,,,2023-09-25_16h45.46.632,vbt_B1_day2,2022.2.4,MacIntel,62.5,55879,,,,,,,,,,,,,,,,,,,,,,,,,,,down,0,1.767,,0.286956522,-0.110869565,1,0,0,0.567,0,183,183,118,1,vinger,images/br_vinger.png,images/cb_vinger.png,0,,,,,,,,,,,,,,,,,,,,,,
,,,,,,,2023-09-25_16h45.46.632,vbt_B1_day2,2022.2.4,MacIntel,62.5,55879,,,,,,,,,,,,,,,,,,,,,,,,,,,down,0,3.738,,0.286956522,-0.110869565,1,0,0,0.517,0,184,184,133,1,seizoen,images/br_seizoen.png,images/cb_seizoen.png,0,,,,,,,,,,,,,,,,,,,,,,
,,,,,,,2023-09-25_16h45.46.632,vbt_B1_day2,2022.2.4,MacIntel,62.5,55879,,,,,,,,,,,,,,,,,,,,,,,,,,,down,0,1.701,,0.286956522,-0.110869565,1,0,0,0.651,0,185,185,93,1,waarop,images/br_waarop.png,images/cb_waarop.png,0,,,,,,,,,,,,,,,,,,,,,,
,,,,,,,2023-09-25_16h45.46.632,vbt_B1_day2,2022.2.4,MacIntel,62.5,55879,,,,,,,,,,,,,,,,,,,,,,,,,,,down,0,4.537,,0.286956522,-0.110869565,1,0,0,0.583,0,186,186,24,1,jurk,images/br_jurk.png,images/cb_jurk.png,0,,,,,,,,,,,,,,,,,,,,,,
,,,,,,,2023-09-25_16h45.46.632,vbt_B1_day2,2022.2.4,MacIntel,62.5,55879,,,,,,,,,,,,,,,,,,,,,,,,,,,down,0,0.119,,0.286956522,-0.110869565,1,0,0,0.667,0,187,187,74,1,graaf,images/br_graaf.png,images/cb_graaf.png,0,,,,,,,,,,,,,,,,,,,,,,
,,,,,,,2023-09-25_16h45.46.632,vbt_B1_day2,2022.2.4,MacIntel,62.5,55879,,,,,,,,,,,,,,,,,,,,,,,,,,,down,0,1.917,,0.286956522,-0.110869565,1,0,0,0.35,0,188,188,190,1,goedkoop,images/br_goedkoop.png,images/cb_goedkoop.png,0,,,,,,,,,,,,,,,,,,,,,,
,,,,,,,2023-09-25_16h45.46.632,vbt_B1_day2,2022.2.4,MacIntel,62.5,55879,,,,,,,,,,,,,,,,,,,,,,,,,,,down,0,7.51,,0.286956522,-0.110869565,1,0,0,0.883,0,189,189,26,1,leuk,images/br_leuk.png,images/cb_leuk.png,0,,,,,,,,,,,,,,,,,,,,,,
,,,,,,,2023-09-25_16h45.46.632,vbt_B1_day2,2022.2.4,MacIntel,62.5,55879,,,,,,,,,,,,,,,,,,,,,,,,,,,down,0,0.817,,0.286956522,-0.110869565,1,0,0,0.633,0,190,190,91,1,gezond,images/br_gezond.png,images/cb_gezond.png,0,,,,,,,,,,,,,,,,,,,,,,
,,,,,,,2023-09-25_16h45.46.632,vbt_B1_day2,2022.2.4,MacIntel,62.5,55879,,,,,,,,,,,,,,,,,,,,,,,,,,,down,0,1.4,,0.286956522,-0.110869565,1,0,0,0.783,0,191,191,38,1,baai,images/br_baai.png,images/cb_baai.png,0,,,,,,,,,,,,,,,,,,,,,,
,,,,,,,2023-09-25_16h45.46.632,vbt_B1_day2,2022.2.4,MacIntel,62.5,55879,,,,,,,,,,,,,,,,,,,,,,,,,,,down,0,1.067,,0.286956522,-0.110869565,1,0,0,0.583,0,192,192,120,1,klimmen,images/br_klimmen.png,images/cb_klimmen.png,0,,,,,,,,,,,,,,,,,,,,,,
,,,,,,,2023-09-25_16h45.46.632,vbt_B1_day2,2022.2.4,MacIntel,62.5,55879,,,,,,,,,,,,,,,,,,,,,,,,,,,down,0,1.408,,0.286956522,-0.110869565,1,0,0,0.45,0,193,193,73,1,volop,images/br_volop.png,images/cb_volop.png,0,,,,,,,,,,,,,,,,,,,,,,
,,,,,,,2023-09-25_16h45.46.632,vbt_B1_day2,2022.2.4,MacIntel,62.5,55879,,,,,,,,,,,,,,,,,,,,,,,,,,,down,0,4.284,,0.286956522,-0.110869565,1,0,0,0.467,0,194,194,130,1,keihard,images/br_keihard.png,images/cb_keihard.png,0,,,,,,,,,,,,,,,,,,,,,,
,,,,,,,2023-09-25_16h45.46.632,vbt_B1_day2,2022.2.4,MacIntel,62.5,55879,,,,,,,,,,,,,,,,,,,,,,,,,,,down,0,2.299,,0.286956522,-0.110869565,1,0,0,0.45,0,195,195,104,1,zweven,images/br_zweven.png,images/cb_zweven.png,0,,,,,,,,,,,,,,,,,,,,,,
,,,,,,,2023-09-25_16h45.46.632,vbt_B1_day2,2022.2.4,MacIntel,62.5,55879,,,,,,,,,,,,,,,,,,,,,,,,,,,down,0,2.291,,0.286956522,-0.110869565,1,0,0,0.983,0,196,196,191,1,opheffen,images/br_opheffen.png,images/cb_opheffen.png,0,,,,,,,,,,,,,,,,,,,,,,
,,,,,,,2023-09-25_16h45.46.632,vbt_B1_day2,2022.2.4,MacIntel,62.5,55879,,,,,,,,,,,,,,,,,,,,,,,,,,,down,0,0.41,,0.286956522,-0.110869565,1,0,0,0.766,0,197,197,112,1,lukken,images/br_lukken.png,images/cb_lukken.png,0,,,,,,,,,,,,,,,,,,,,,,
,,,,,,,2023-09-25_16h45.46.632,vbt_B1_day2,2022.2.4,MacIntel,62.5,55879,,,,,,,,,,,,,,,,,,,,,,,,,,,down,0,0.055,,0.286956522,-0.110869565,1,0,0,0.849,0,198,198,31,1,poes,images/br_poes.png,images/cb_poes.png,0,,,,,,,,,,,,,,,,,,,,,,
,,,,,,,2023-09-25_16h45.46.632,vbt_B1_day2,2022.2.4,MacIntel,62.5,55879,,,,,,,,,,,,,,,,,,,,,,,,,,,down,0,3.368,,0.286956522,-0.110869565,1,0,0,0.817,0,199,199,58,1,tekst,images/br_tekst.png,images/cb_tekst.png,1,tekst,,,,,,,,,,,,,,,,,,,,,
,,,,,,,2023-09-25_16h45.46.632,vbt_B1_day2,2022.2.4,MacIntel,62.5,55879,,,,,,,,,,,,,,,,,,,,,,,,,,,,,,,,,,,,,,,,,,,,,,,-0.161956522,-0.023913043,1,0,0,,,,,,,,,,,,,,,,
,,,,,,,2023-09-25_16h45.46.632,vbt_B1_day2,2022.2.4,MacIntel,62.5,55879,,,,,,,,,,,,,,,,,,,,,,,,,,,,,,,,,,,,,,,,,,,,,,,,,,,,0.477173913,-0.079347826,1,0,0,,,,,,,,,,,
,,,,,,,2023-09-25_16h45.46.632,vbt_B1_day2,2022.2.4,MacIntel,62.5,55879,,,,,,,,,,,,,,,,,,,,,,,,,,,,,,,,,,,,,,,,,,woning,images/br_woning.png,images/cb_woning.png,,woning,,,,,,,,,,,0.341304348,-0.05,1,0,0,woning,0,0,0,10,1
,,,,,,,2023-09-25_16h45.46.632,vbt_B1_day2,2022.2.4,MacIntel,62.5,55879,,,,,,,,,,,,,,,,,,,,,,,,,,,,,,,,,,,,,,,,,,piste,images/br_piste.png,images/cb_piste.png,,piste,,,,,,,,,,,0.315217391,-0.067391304,1,0,0,piste,0,1,1,5,1
,,,,,,,2023-09-25_16h45.46.632,vbt_B1_day2,2022.2.4,MacIntel,62.5,55879,,,,,,,,,,,,,,,,,,,,,,,,,,,,,,,,,,,,,,,,,,heilig,images/br_heilig.png,images/cb_heilig.png,,heilig,,,,,,,,,,,0.314130435,-0.052173913,1,0,0,heilig,0,2,2,9,1
,,,,,,,2023-09-25_16h45.46.632,vbt_B1_day2,2022.2.4,MacIntel,62.5,55879,,,,,,,,,,,,,,,,,,,,,,,,,,,,,,,,,,,,,,,,,,plannen,images/br_plannen.png,images/cb_plannen.png,,plannen,,,,,,,,,,,0.305434783,-0.070652174,1,0,0,plannen,0,3,3,55,1
,,,,,,,2023-09-25_16h45.46.632,vbt_B1_day2,2022.2.4,MacIntel,62.5,55879,,,,,,,,,,,,,,,,,,,,,,,,,,,,,,,,,,,,,,,,,,bloeien,images/br_bloeien.png,images/cb_bloeien.png,,bloeien,,,,,,,,,,,0.352173913,-0.035869565,1,0,0,bloeien,0,4,4,12,1
,,,,,,,2023-09-25_16h45.46.632,vbt_B1_day2,2022.2.4,MacIntel,62.5,55879,,,,,,,,,,,,,,,,,,,,,,,,,,,,,,,,,,,,,,,,,,thema,images/br_thema.png,images/cb_thema.png,,th..a,,,,,,,,,,,0.359782609,0.010869565,1,0,0,th..a,0,5,5,47,1
,,,,,,,2023-09-25_16h45.46.632,vbt_B1_day2,2022.2.4,MacIntel,62.5,55879,,,,,,,,,,,,,,,,,,,,,,,,,,,,,,,,,,,,,,,,,,feestdag,images/br_feestdag.png,images/cb_feestdag.png,,feest..g,,,,,,,,,,,0.326086957,-0.022826087,1,0,0,feest..g,0,6,6,17,1
,,,,,,,2023-09-25_16h45.46.632,vbt_B1_day2,2022.2.4,MacIntel,62.5,55879,,,,,,,,,,,,,,,,,,,,,,,,,,,,,,,,,,,,,,,,,,ophuimen,images/br_ophuimen.png,images/cb_ophuimen.png,,ophu....,,,,,,,,,,,0.365217391,-0.008695652,1,0,0,ophu....,0,7,7,36,1
,,,,,,,2023-09-25_16h45.46.632,vbt_B1_day2,2022.2.4,MacIntel,62.5,55879,,,,,,,,,,,,,,,,,,,,,,,,,,,,,,,,,,,,,,,,,,eenhoorn,images/br_eenhoorn.png,images/cb_eenhoorn.png,,eenhoorn,,,,,,,,,,,0.340217391,-0.039130435,1,0,0,eenhoorn,0,8,8,19,1
,,,,,,,2023-09-25_16h45.46.632,vbt_B1_day2,2022.2.4,MacIntel,62.5,55879,,,,,,,,,,,,,,,,,,,,,,,,,,,,,,,,,,,,,,,,,,blad,images/br_blad.png,images/cb_blad.png,,blad,,,,,,,,,,,0.339130435,-0.048913043,1,0,0,blad,0,9,9,1,1
,,,,,,,2023-09-25_16h45.46.632,vbt_B1_day2,2022.2.4,MacIntel,62.5,55879,,,,,,,,,,,,,,,,,,,,,,,,,,,,,,,,,,,,,,,,,,jong,images/br_jong.png,images/cb_jong.png,,jong,,,,,,,,,,,0.343478261,-0.039130435,1,0,0,jong,0,10,10,43,1
,,,,,,,2023-09-25_16h45.46.632,vbt_B1_day2,2022.2.4,MacIntel,62.5,55879,,,,,,,,,,,,,,,,,,,,,,,,,,,,,,,,,,,,,,,,,,agressie,images/br_agressie.png,images/cb_agressie.png,,agressie,,,,,,,,,,,0.352173913,-0.026086957,1,0,0,agressie,0,11,11,59,1
,,,,,,,2023-09-25_16h45.46.632,vbt_B1_day2,2022.2.4,MacIntel,62.5,55879,,,,,,,,,,,,,,,,,,,,,,,,,,,,,,,,,,,,,,,,,,tand,images/br_tand.png,images/cb_tand.png,,tand,,,,,,,,,,,0.352173913,-0.026086957,1,0,0,tand,0,12,12,42,1
,,,,,,,2023-09-25_16h45.46.632,vbt_B1_day2,2022.2.4,MacIntel,62.5,55879,,,,,,,,,,,,,,,,,,,,,,,,,,,,,,,,,,,,,,,,,,geld,images/br_geld.png,images/cb_geld.png,,geld,,,,,,,,,,,0.352173913,-0.026086957,1,0,0,geld,0,13,13,3,1
,,,,,,,2023-09-25_16h45.46.632,vbt_B1_day2,2022.2.4,MacIntel,62.5,55879,,,,,,,,,,,,,,,,,,,,,,,,,,,,,,,,,,,,,,,,,,lurgen,images/br_lurgen.png,images/cb_lurgen.png,,lurgen,,,,,,,,,,,0.352173913,-0.026086957,1,0,0,lurgen,0,14,14,29,1
,,,,,,,2023-09-25_16h45.46.632,vbt_B1_day2,2022.2.4,MacIntel,62.5,55879,,,,,,,,,,,,,,,,,,,,,,,,,,,,,,,,,,,,,,,,,,sora,images/br_sora.png,images/cb_sora.png,,sora,,,,,,,,,,,0.352173913,-0.026086957,1,0,0,sora,0,15,15,22,1
,,,,,,,2023-09-25_16h45.46.632,vbt_B1_day2,2022.2.4,MacIntel,62.5,55879,,,,,,,,,,,,,,,,,,,,,,,,,,,,,,,,,,,,,,,,,,opdatten,images/br_opdatten.png,images/cb_opdatten.png,,opdatt,,,,,,,,,,,0.365217391,0.013043478,1,0,0,opdatt,0,16,16,37,1
,,,,,,,2023-09-25_16h45.46.632,vbt_B1_day2,2022.2.4,MacIntel,62.5,55879,,,,,,,,,,,,,,,,,,,,,,,,,,,,,,,,,,,,,,,,,,kijlen,images/br_kijlen.png,images/cb_kijlen.png,,kijlen,,,,,,,,,,,0.365217391,0.013043478,1,0,0,kijlen,0,17,17,31,1
,,,,,,,2023-09-25_16h45.46.632,vbt_B1_day2,2022.2.4,MacIntel,62.5,55879,,,,,,,,,,,,,,,,,,,,,,,,,,,,,,,,,,,,,,,,,,systeem,images/br_systeem.png,images/cb_systeem.png,,systeem,,,,,,,,,,,0.365217391,0.013043478,1,0,0,systeem,0,18,18,54,1
,,,,,,,2023-09-25_16h45.46.632,vbt_B1_day2,2022.2.4,MacIntel,62.5,55879,,,,,,,,,,,,,,,,,,,,,,,,,,,,,,,,,,,,,,,,,,aanzien,images/br_aanzien.png,images/cb_aanzien.png,,aanzien,,,,,,,,,,,0.365217391,0.013043478,1,0,0,aanzien,0,19,19,13,1
,,,,,,,2023-09-25_16h45.46.632,vbt_B1_day2,2022.2.4,MacIntel,62.5,55879,,,,,,,,,,,,,,,,,,,,,,,,,,,,,,,,,,,,,,,,,,tweeling,images/br_tweeling.png,images/cb_tweeling.png,,tweeling,,,,,,,,,,,0.365217391,0.013043478,1,0,0,tweeling,0,20,20,58,1
,,,,,,,2023-09-25_16h45.46.632,vbt_B1_day2,2022.2.4,MacIntel,62.5,55879,,,,,,,,,,,,,,,,,,,,,,,,,,,,,,,,,,,,,,,,,,flits,images/br_flits.png,images/cb_flits.png,,flits,,,,,,,,,,,0.365217391,0.013043478,1,0,0,flits,0,21,21,4,1
,,,,,,,2023-09-25_16h45.46.632,vbt_B1_day2,2022.2.4,MacIntel,62.5,55879,,,,,,,,,,,,,,,,,,,,,,,,,,,,,,,,,,,,,,,,,,joes,images/br_joes.png,images/cb_joes.png,,joes,,,,,,,,,,,0.365217391,0.013043478,1,0,0,joes,0,22,22,20,1
,,,,,,,2023-09-25_16h45.46.632,vbt_B1_day2,2022.2.4,MacIntel,62.5,55879,,,,,,,,,,,,,,,,,,,,,,,,,,,,,,,,,,,,,,,,,,diep,images/br_diep.png,images/cb_diep.png,,diep,,,,,,,,,,,0.365217391,0.013043478,1,0,0,diep,0,23,23,2,1
,,,,,,,2023-09-25_16h45.46.632,vbt_B1_day2,2022.2.4,MacIntel,62.5,55879,,,,,,,,,,,,,,,,,,,,,,,,,,,,,,,,,,,,,,,,,,toeval,images/br_toeval.png,images/cb_toeval.png,,toeval,,,,,,,,,,,0.365217391,0.013043478,1,0,0,toeval,0,24,24,11,1
,,,,,,,2023-09-25_16h45.46.632,vbt_B1_day2,2022.2.4,MacIntel,62.5,55879,,,,,,,,,,,,,,,,,,,,,,,,,,,,,,,,,,,,,,,,,,remel,images/br_remel.png,images/cb_remel.png,,remel,,,,,,,,,,,0.365217391,0.013043478,1,0,0,remel,0,25,25,25,1
,,,,,,,2023-09-25_16h45.46.632,vbt_B1_day2,2022.2.4,MacIntel,62.5,55879,,,,,,,,,,,,,,,,,,,,,,,,,,,,,,,,,,,,,,,,,,breuk,images/br_breuk.png,images/cb_breuk.png,,breuk,,,,,,,,,,,0.365217391,0.013043478,1,0,0,breuk,0,26,26,45,1
,,,,,,,2023-09-25_16h45.46.632,vbt_B1_day2,2022.2.4,MacIntel,62.5,55879,,,,,,,,,,,,,,,,,,,,,,,,,,,,,,,,,,,,,,,,,,inzicht,images/br_inzicht.png,images/cb_inzicht.png,,inzicht,,,,,,,,,,,0.365217391,0.013043478,1,0,0,inzicht,0,27,27,53,1
,,,,,,,2023-09-25_16h45.46.632,vbt_B1_day2,2022.2.4,MacIntel,62.5,55879,,,,,,,,,,,,,,,,,,,,,,,,,,,,,,,,,,,,,,,,,,prekken,images/br_prekken.png,images/cb_prekken.png,,prekken,,,,,,,,,,,0.365217391,0.013043478,1,0,0,prekken,0,28,28,34,1
,,,,,,,2023-09-25_16h45.46.632,vbt_B1_day2,2022.2.4,MacIntel,62.5,55879,,,,,,,,,,,,,,,,,,,,,,,,,,,,,,,,,,,,,,,,,,lijnen,images/br_lijnen.png,images/cb_lijnen.png,,lijnen,,,,,,,,,,,0.365217391,0.013043478,1,0,0,lijnen,0,29,29,51,1
,,,,,,,2023-09-25_16h45.46.632,vbt_B1_day2,2022.2.4,MacIntel,62.5,55879,,,,,,,,,,,,,,,,,,,,,,,,,,,,,,,,,,,,,,,,,,moes,images/br_moes.png,images/cb_moes.png,,moes,,,,,,,,,,,0.365217391,0.013043478,1,0,0,moes,0,30,30,0,1
,,,,,,,2023-09-25_16h45.46.632,vbt_B1_day2,2022.2.4,MacIntel,62.5,55879,,,,,,,,,,,,,,,,,,,,,,,,,,,,,,,,,,,,,,,,,,clan,images/br_clan.png,images/cb_clan.png,,clan,,,,,,,,,,,0.365217391,0.013043478,1,0,0,clan,0,31,31,40,1
,,,,,,,2023-09-25_16h45.46.632,vbt_B1_day2,2022.2.4,MacIntel,62.5,55879,,,,,,,,,,,,,,,,,,,,,,,,,,,,,,,,,,,,,,,,,,dode,images/br_dode.png,images/cb_dode.png,,dode,,,,,,,,,,,0.333695652,-0.010869565,1,0,0,dode,0,32,32,41,1
,,,,,,,2023-09-25_16h45.46.632,vbt_B1_day2,2022.2.4,MacIntel,62.5,55879,,,,,,,,,,,,,,,,,,,,,,,,,,,,,,,,,,,,,,,,,,lokken,images/br_lokken.png,images/cb_lokken.png,,lakken,,,,,,,,,,,0.333695652,-0.010869565,1,0,0,lakken,0,33,33,8,1
,,,,,,,2023-09-25_16h45.46.632,vbt_B1_day2,2022.2.4,MacIntel,62.5,55879,,,,,,,,,,,,,,,,,,,,,,,,,,,,,,,,,,,,,,,,,,badon,images/br_badon.png,images/cb_badon.png,,badon,,,,,,,,,,,0.333695652,-0.010869565,1,0,0,badon,0,34,34,26,1
,,,,,,,2023-09-25_16h45.46.632,vbt_B1_day2,2022.2.4,MacIntel,62.5,55879,,,,,,,,,,,,,,,,,,,,,,,,,,,,,,,,,,,,,,,,,,zegel,images/br_zegel.png,images/cb_zegel.png,,zegel,,,,,,,,,,,0.333695652,-0.010869565,1,0,0,zegel,0,35,35,46,1
,,,,,,,2023-09-25_16h45.46.632,vbt_B1_day2,2022.2.4,MacIntel,62.5,55879,,,,,,,,,,,,,,,,,,,,,,,,,,,,,,,,,,,,,,,,,,wijve,images/br_wijve.png,images/cb_wijve.png,,wijve,,,,,,,,,,,0.333695652,-0.010869565,1,0,0,wijve,0,36,36,27,1
,,,,,,,2023-09-25_16h45.46.632,vbt_B1_day2,2022.2.4,MacIntel,62.5,55879,,,,,,,,,,,,,,,,,,,,,,,,,,,,,,,,,,,,,,,,,,welzijn,images/br_welzijn.png,images/cb_welzijn.png,,welzijn,,,,,,,,,,,0.333695652,-0.010869565,1,0,0,welzijn,0,37,37,52,1
,,,,,,,2023-09-25_16h45.46.632,vbt_B1_day2,2022.2.4,MacIntel,62.5,55879,,,,,,,,,,,,,,,,,,,,,,,,,,,,,,,,,,,,,,,,,,kenzis,images/br_kenzis.png,images/cb_kenzis.png,,kenzis,,,,,,,,,,,0.333695652,-0.010869565,1,0,0,kenzis,0,38,38,30,1
,,,,,,,2023-09-25_16h45.46.632,vbt_B1_day2,2022.2.4,MacIntel,62.5,55879,,,,,,,,,,,,,,,,,,,,,,,,,,,,,,,,,,,,,,,,,,goon,images/br_goon.png,images/cb_goon.png,,goon,,,,,,,,,,,0.333695652,-0.010869565,1,0,0,goon,0,39,39,23,1
,,,,,,,2023-09-25_16h45.46.632,vbt_B1_day2,2022.2.4,MacIntel,62.5,55879,,,,,,,,,,,,,,,,,,,,,,,,,,,,,,,,,,,,,,,,,,zomers,images/br_zomers.png,images/cb_zomers.png,,zomers,,,,,,,,,,,0.333695652,-0.010869565,1,0,0,zomers,0,40,40,48,1
,,,,,,,2023-09-25_16h45.46.632,vbt_B1_day2,2022.2.4,MacIntel,62.5,55879,,,,,,,,,,,,,,,,,,,,,,,,,,,,,,,,,,,,,,,,,,strikken,images/br_strikken.png,images/cb_strikken.png,,strikken,,,,,,,,,,,0.333695652,-0.010869565,1,0,0,strikken,0,41,41,18,1
,,,,,,,2023-09-25_16h45.46.632,vbt_B1_day2,2022.2.4,MacIntel,62.5,55879,,,,,,,,,,,,,,,,,,,,,,,,,,,,,,,,,,,,,,,,,,ningen,images/br_ningen.png,images/cb_ningen.png,,,,,,,,,,,,,0.333695652,-0.010869565,1,0,0,,0,42,42,28,1
,,,,,,,2023-09-25_16h45.46.632,vbt_B1_day2,2022.2.4,MacIntel,62.5,55879,,,,,,,,,,,,,,,,,,,,,,,,,,,,,,,,,,,,,,,,,,aanvraag,images/br_aanvraag.png,images/cb_aanvraag.png,,aanvraag,,,,,,,,,,,0.333695652,-0.010869565,1,0,0,aanvraag,0,43,43,57,1
,,,,,,,2023-09-25_16h45.46.632,vbt_B1_day2,2022.2.4,MacIntel,62.5,55879,,,,,,,,,,,,,,,,,,,,,,,,,,,,,,,,,,,,,,,,,,kasteel,images/br_kasteel.png,images/cb_kasteel.png,,kasteel,,,,,,,,,,,0.333695652,-0.010869565,1,0,0,kasteel,0,44,44,14,1
,,,,,,,2023-09-25_16h45.46.632,vbt_B1_day2,2022.2.4,MacIntel,62.5,55879,,,,,,,,,,,,,,,,,,,,,,,,,,,,,,,,,,,,,,,,,,manieren,images/br_manieren.png,images/cb_manieren.png,,,,,,,,,,,,,0.333695652,-0.010869565,1,0,0,,0,45,45,56,1
,,,,,,,2023-09-25_16h45.46.632,vbt_B1_day2,2022.2.4,MacIntel,62.5,55879,,,,,,,,,,,,,,,,,,,,,,,,,,,,,,,,,,,,,,,,,,jagen,images/br_jagen.png,images/cb_jagen.png,,jagen,,,,,,,,,,,0.334782609,-0.084782609,1,0,0,jagen,0,46,46,6,1
,,,,,,,2023-09-25_16h45.46.632,vbt_B1_day2,2022.2.4,MacIntel,62.5,55879,,,,,,,,,,,,,,,,,,,,,,,,,,,,,,,,,,,,,,,,,,sjijfel,images/br_sjijfel.png,images/cb_sjijfel.png,,sji...,,,,,,,,,,,0.334782609,-0.084782609,1,0,0,sji...,0,47,47,33,1
,,,,,,,2023-09-25_16h45.46.632,vbt_B1_day2,2022.2.4,MacIntel,62.5,55879,,,,,,,,,,,,,,,,,,,,,,,,,,,,,,,,,,,,,,,,,,krimmen,images/br_krimmen.png,images/cb_krimmen.png,,krimmen,,,,,,,,,,,0.334782609,-0.084782609,1,0,0,krimmen,0,48,48,35,1
,,,,,,,2023-09-25_16h45.46.632,vbt_B1_day2,2022.2.4,MacIntel,62.5,55879,,,,,,,,,,,,,,,,,,,,,,,,,,,,,,,,,,,,,,,,,,sifferd,images/br_sifferd.png,images/cb_sifferd.png,,sufferd,,,,,,,,,,,0.334782609,-0.084782609,1,0,0,sufferd,0,49,49,32,1
,,,,,,,2023-09-25_16h45.46.632,vbt_B1_day2,2022.2.4,MacIntel,62.5,55879,,,,,,,,,,,,,,,,,,,,,,,,,,,,,,,,,,,,,,,,,,heengeen,images/br_heengeen.png,images/cb_heengeen.png,,heengaan,,,,,,,,,,,0.334782609,-0.084782609,1,0,0,heengaan,0,50,50,38,1
,,,,,,,2023-09-25_16h45.46.632,vbt_B1_day2,2022.2.4,MacIntel,62.5,55879,,,,,,,,,,,,,,,,,,,,,,,,,,,,,,,,,,,,,,,,,,koorts,images/br_koorts.png,images/cb_koorts.png,,koorts,,,,,,,,,,,0.334782609,-0.084782609,1,0,0,koorts,0,51,51,50,1
,,,,,,,2023-09-25_16h45.46.632,vbt_B1_day2,2022.2.4,MacIntel,62.5,55879,,,,,,,,,,,,,,,,,,,,,,,,,,,,,,,,,,,,,,,,,,anarchie,images/br_anarchie.png,images/cb_anarchie.png,,anarchie,,,,,,,,,,,0.334782609,-0.084782609,1,0,0,anarchie,0,52,52,16,1
,,,,,,,2023-09-25_16h45.46.632,vbt_B1_day2,2022.2.4,MacIntel,62.5,55879,,,,,,,,,,,,,,,,,,,,,,,,,,,,,,,,,,,,,,,,,,negel,images/br_negel.png,images/cb_negel.png,,negel,,,,,,,,,,,0.334782609,-0.084782609,1,0,0,negel,0,53,53,24,1
,,,,,,,2023-09-25_16h45.46.632,vbt_B1_day2,2022.2.4,MacIntel,62.5,55879,,,,,,,,,,,,,,,,,,,,,,,,,,,,,,,,,,,,,,,,,,kabel,images/br_kabel.png,images/cb_kabel.png,,kabel,,,,,,,,,,,0.334782609,-0.084782609,1,0,0,kabel,0,54,54,7,1
,,,,,,,2023-09-25_16h45.46.632,vbt_B1_day2,2022.2.4,MacIntel,62.5,55879,,,,,,,,,,,,,,,,,,,,,,,,,,,,,,,,,,,,,,,,,,stes,images/br_stes.png,images/cb_stes.png,,stef,,,,,,,,,,,0.334782609,-0.084782609,1,0,0,stef,0,55,55,21,1
,,,,,,,2023-09-25_16h45.46.632,vbt_B1_day2,2022.2.4,MacIntel,62.5,55879,,,,,,,,,,,,,,,,,,,,,,,,,,,,,,,,,,,,,,,,,,zwager,images/br_zwager.png,images/cb_zwager.png,,zwager,,,,,,,,,,,0.334782609,-0.084782609,1,0,0,zwager,0,56,56,49,1
,,,,,,,2023-09-25_16h45.46.632,vbt_B1_day2,2022.2.4,MacIntel,62.5,55879,,,,,,,,,,,,,,,,,,,,,,,,,,,,,,,,,,,,,,,,,,doodmoe,images/br_doodmoe.png,images/cb_doodmoe.png,,doodmoe,,,,,,,,,,,0.334782609,-0.084782609,1,0,0,doodmoe,0,57,57,15,1
,,,,,,,2023-09-25_16h45.46.632,vbt_B1_day2,2022.2.4,MacIntel,62.5,55879,,,,,,,,,,,,,,,,,,,,,,,,,,,,,,,,,,,,,,,,,,trots,images/br_trots.png,images/cb_trots.png,,trots,,,,,,,,,,,0.334782609,-0.084782609,1,0,0,trots,0,58,58,44,1
,,,,,,,2023-09-25_16h45.46.632,vbt_B1_day2,2022.2.4,MacIntel,62.5,55879,,,,,,,,,,,,,,,,,,,,,,,,,,,,,,,,,,,,,,,,,,bereuwen,images/br_bereuwen.png,images/cb_bereuwen.png,,,,,,,,,,,,,0.334782609,-0.084782609,1,0,0,,0,59,59,39,1
,,,,,,,2023-09-25_16h45.46.632,vbt_B1_day2,2022.2.4,MacIntel,62.5,55879,,,,,,,,,,,,,,,,,,,,,,,,,,,,,,,,,,,,,,,,,,,,,,,,,,,,,,,,,,,,,,,,,,,
