welcome_mouse.x,welcome_mouse.y,welcome_mouse.leftButton,welcome_mouse.midButton,welcome_mouse.rightButton,"ID",date,expName,psychopyVersion,OS,frameRate,trainInstr_mouse.x,trainInstr_mouse.y,trainInstr_mouse.leftButton,trainInstr_mouse.midButton,trainInstr_mouse.rightButton,translation_key.keys,translation_key.corr,translation_key.rt,word_rsp.text,trWrd_mouse.x,trWrd_mouse.y,trWrd_mouse.leftButton,trWrd_mouse.midButton,trWrd_mouse.rightButton,train_loop.thisRepN,train_loop.thisTrialN,train_loop.thisN,train_loop.thisIndex,train_loop.ran,nlWrd,brWrd,cbWrd,test,testResp,mouse.x,mouse.y,mouse.leftButton,mouse.midButton,mouse.rightButton,testInstr_mouse.x,testInstr_mouse.y,testInstr_mouse.leftButton,testInstr_mouse.midButton,testInstr_mouse.rightButton,test_mouse.x,test_mouse.y,test_mouse.leftButton,test_mouse.midButton,test_mouse.rightButton,test_response.text,test_loop.thisRepN,test_loop.thisTrialN,test_loop.thisN,test_loop.thisIndex,test_loop.ran
0.03405816,-0.248872342,1,0,0,00014,2023-09-01_15h55.27.476,vbt_B2_day3,2022.2.4,MacIntel,60.0024001,,,,,,,,,,,,,,,,,,,,,,,,,,,,,,,,,,,,,,,,,,,,,
,,,,,00014,2023-09-01_15h55.27.476,vbt_B2_day3,2022.2.4,MacIntel,60.0024001,0.037594944,-0.242708605,1,0,0,,,,,,,,,,,,,,,,,,,,,,,,,,,,,,,,,,,,,,,,
,,,,,00014,2023-09-01_15h55.27.476,vbt_B2_day3,2022.2.4,MacIntel,60.0024001,,,,,,down,0,9.402,,0.037594944,-0.242708605,1,0,0,0,0,0,192,1,schaamte,images/br_schaamte.png,images/cb_schaamte.png,0,,,,,,,,,,,,,,,,,,,,,,
,,,,,00014,2023-09-01_15h55.27.476,vbt_B2_day3,2022.2.4,MacIntel,60.0024001,,,,,,down,0,2.7722,,-0.022428453,-0.260202501,1,0,0,0,1,1,87,1,toeval,images/br_toeval.png,images/cb_toeval.png,0,,,,,,,,,,,,,,,,,,,,,,
,,,,,00014,2023-09-01_15h55.27.476,vbt_B2_day3,2022.2.4,MacIntel,60.0024001,,,,,,down,0,1.091,,-0.022428453,-0.260202501,1,0,0,0,2,2,8,1,knie,images/br_knie.png,images/cb_knie.png,0,,,,,,,,,,,,,,,,,,,,,,
,,,,,00014,2023-09-01_15h55.27.476,vbt_B2_day3,2022.2.4,MacIntel,60.0024001,,,,,,down,0,5.1186,,-0.022428453,-0.260202501,1,0,0,0,3,3,20,1,site,images/br_site.png,images/cb_site.png,1,site,,,,,,,,,,,,,,,,,,,,,
,,,,,00014,2023-09-01_15h55.27.476,vbt_B2_day3,2022.2.4,MacIntel,60.0024001,,,,,,down,0,5.2686,,-0.022428453,-0.260202501,1,0,0,0,4,4,53,1,baron,images/br_baron.png,images/cb_baron.png,0,,,,,,,,,,,,,,,,,,,,,,
,,,,,00014,2023-09-01_15h55.27.476,vbt_B2_day3,2022.2.4,MacIntel,60.0024001,,,,,,down,0,5.0375,,-0.022428453,-0.260202501,1,0,0,0,5,5,154,1,aflopen,images/br_aflopen.png,images/cb_aflopen.png,0,,,,,,,,,,,,,,,,,,,,,,
,,,,,00014,2023-09-01_15h55.27.476,vbt_B2_day3,2022.2.4,MacIntel,60.0024001,,,,,,down,0,4.5546,,-0.022428453,-0.260202501,1,0,0,0,6,6,7,1,geld,images/br_geld.png,images/cb_geld.png,0,,,,,,,,,,,,,,,,,,,,,,
,,,,,00014,2023-09-01_15h55.27.476,vbt_B2_day3,2022.2.4,MacIntel,60.0024001,,,,,,down,0,0.8694,,-0.022428453,-0.260202501,1,0,0,0,7,7,139,1,stiekem,images/br_stiekem.png,images/cb_stiekem.png,0,,,,,,,,,,,,,,,,,,,,,,
,,,,,00014,2023-09-01_15h55.27.476,vbt_B2_day3,2022.2.4,MacIntel,60.0024001,,,,,,down,0,8.0835,,-0.022428453,-0.260202501,1,0,0,0,8,8,176,1,techniek,images/br_techniek.png,images/cb_techniek.png,0,,,,,,,,,,,,,,,,,,,,,,
,,,,,00014,2023-09-01_15h55.27.476,vbt_B2_day3,2022.2.4,MacIntel,60.0024001,,,,,,down,0,1.9375,,-0.022428453,-0.260202501,1,0,0,0,9,9,109,1,totaal,images/br_totaal.png,images/cb_totaal.png,0,,,,,,,,,,,,,,,,,,,,,,
,,,,,00014,2023-09-01_15h55.27.476,vbt_B2_day3,2022.2.4,MacIntel,60.0024001,,,,,,down,0,5.7004,,-0.022428453,-0.260202501,1,0,0,0,10,10,122,1,waarvan,images/br_waarvan.png,images/cb_waarvan.png,0,,,,,,,,,,,,,,,,,,,,,,
,,,,,00014,2023-09-01_15h55.27.476,vbt_B2_day3,2022.2.4,MacIntel,60.0024001,,,,,,down,0,16.1006,,-0.022428453,-0.260202501,1,0,0,0,11,11,160,1,daarheen,images/br_daarheen.png,images/cb_daarheen.png,0,,,,,,,,,,,,,,,,,,,,,,
,,,,,00014,2023-09-01_15h55.27.476,vbt_B2_day3,2022.2.4,MacIntel,60.0024001,,,,,,down,0,3.8823,,-0.022428453,-0.260202501,1,0,0,0,12,12,28,1,stal,images/br_stal.png,images/cb_stal.png,0,,,,,,,,,,,,,,,,,,,,,,
,,,,,00014,2023-09-01_15h55.27.476,vbt_B2_day3,2022.2.4,MacIntel,60.0024001,,,,,,down,0,6.3719,,-0.022428453,-0.260202501,1,0,0,0,13,13,44,1,flits,images/br_flits.png,images/cb_flits.png,0,,,,,,,,,,,,,,,,,,,,,,
,,,,,00014,2023-09-01_15h55.27.476,vbt_B2_day3,2022.2.4,MacIntel,60.0024001,,,,,,down,0,3.7187,,-0.037115818,-0.261649509,1,0,0,0,14,14,12,1,kust,images/br_kust.png,images/cb_kust.png,0,,,,,,,,,,,,,,,,,,,,,,
,,,,,00014,2023-09-01_15h55.27.476,vbt_B2_day3,2022.2.4,MacIntel,60.0024001,,,,,,down,0,7.8848,,-0.038226929,-0.261649509,1,0,0,0,15,15,130,1,keihard,images/br_keihard.png,images/cb_keihard.png,0,,,,,,,,,,,,,,,,,,,,,,
,,,,,00014,2023-09-01_15h55.27.476,vbt_B2_day3,2022.2.4,MacIntel,60.0024001,,,,,,down,0,4.1838,,-0.038226929,-0.261649509,1,0,0,0,16,16,172,1,weigeren,images/br_weigeren.png,images/cb_weigeren.png,0,,,,,,,,,,,,,,,,,,,,,,
,,,,,00014,2023-09-01_15h55.27.476,vbt_B2_day3,2022.2.4,MacIntel,60.0024001,,,,,,down,0,4.1191,,-0.038226929,-0.261649509,1,0,0,0,17,17,11,1,mode,images/br_mode.png,images/cb_mode.png,0,,,,,,,,,,,,,,,,,,,,,,
,,,,,00014,2023-09-01_15h55.27.476,vbt_B2_day3,2022.2.4,MacIntel,60.0024001,,,,,,down,0,3.7329,,-0.038226929,-0.261649509,1,0,0,0,18,18,73,1,volop,images/br_volop.png,images/cb_volop.png,0,,,,,,,,,,,,,,,,,,,,,,
,,,,,00014,2023-09-01_15h55.27.476,vbt_B2_day3,2022.2.4,MacIntel,60.0024001,,,,,,down,0,5.9678,,-0.038226929,-0.261649509,1,0,0,0,19,19,110,1,zuster,images/br_zuster.png,images/cb_zuster.png,0,,,,,,,,,,,,,,,,,,,,,,
,,,,,00014,2023-09-01_15h55.27.476,vbt_B2_day3,2022.2.4,MacIntel,60.0024001,,,,,,down,0,1.2663,,-0.066725532,-0.25865431,1,0,0,0,20,20,114,1,vullen,images/br_vullen.png,images/cb_vullen.png,0,,,,,,,,,,,,,,,,,,,,,,
,,,,,00014,2023-09-01_15h55.27.476,vbt_B2_day3,2022.2.4,MacIntel,60.0024001,,,,,,down,0,1.8498,,-0.067836643,-0.25865431,1,0,0,0,21,21,31,1,poes,images/br_poes.png,images/cb_poes.png,0,,,,,,,,,,,,,,,,,,,,,,
,,,,,00014,2023-09-01_15h55.27.476,vbt_B2_day3,2022.2.4,MacIntel,60.0024001,,,,,,down,0,5.7499,,-0.067836643,-0.25865431,1,0,0,0,22,22,68,1,schat,images/br_schat.png,images/cb_schat.png,0,,,,,,,,,,,,,,,,,,,,,,
,,,,,00014,2023-09-01_15h55.27.476,vbt_B2_day3,2022.2.4,MacIntel,60.0024001,,,,,,down,0,0.6522,,-0.077017415,-0.260396593,1,0,0,0,23,23,34,1,vorm,images/br_vorm.png,images/cb_vorm.png,0,,,,,,,,,,,,,,,,,,,,,,
,,,,,00014,2023-09-01_15h55.27.476,vbt_B2_day3,2022.2.4,MacIntel,60.0024001,,,,,,down,0,9.2843,,-0.077572971,-0.260396593,1,0,0,0,24,24,81,1,dubbel,images/br_dubbel.png,images/cb_dubbel.png,0,,,,,,,,,,,,,,,,,,,,,,
,,,,,00014,2023-09-01_15h55.27.476,vbt_B2_day3,2022.2.4,MacIntel,60.0024001,,,,,,down,0,5.9014,,-0.090942858,-0.25530226,1,0,0,0,25,25,191,1,opheffen,images/br_opheffen.png,images/cb_opheffen.png,0,,,,,,,,,,,,,,,,,,,,,,
,,,,,00014,2023-09-01_15h55.27.476,vbt_B2_day3,2022.2.4,MacIntel,60.0024001,,,,,,down,0,3.6837,,-0.091498413,-0.254746704,1,0,0,0,26,26,151,1,aanzoek,images/br_aanzoek.png,images/cb_aanzoek.png,0,,,,,,,,,,,,,,,,,,,,,,
,,,,,00014,2023-09-01_15h55.27.476,vbt_B2_day3,2022.2.4,MacIntel,60.0024001,,,,,,down,0,0.1501,,-0.091498413,-0.254746704,1,0,0,0,27,27,150,1,gegeven,images/br_gegeven.png,images/cb_gegeven.png,0,,,,,,,,,,,,,,,,,,,,,,
,,,,,00014,2023-09-01_15h55.27.476,vbt_B2_day3,2022.2.4,MacIntel,60.0024001,,,,,,down,0,5.7011,,-0.108498467,-0.254305623,1,0,0,0,28,28,61,1,groen,images/br_groen.png,images/cb_groen.png,1,groen,,,,,,,,,,,,,,,,,,,,,
,,,,,00014,2023-09-01_15h55.27.476,vbt_B2_day3,2022.2.4,MacIntel,60.0024001,,,,,,down,0,9.2507,,-0.109054023,-0.254305623,1,0,0,0,29,29,196,1,nakijken,images/br_nakijken.png,images/cb_nakijken.png,0,,,,,,,,,,,,,,,,,,,,,,
,,,,,00014,2023-09-01_15h55.27.476,vbt_B2_day3,2022.2.4,MacIntel,60.0024001,,,,,,down,0,3.1029,,-0.113023207,-0.254305623,1,0,0,0,30,30,174,1,stemming,images/br_stemming.png,images/cb_stemming.png,0,,,,,,,,,,,,,,,,,,,,,,
,,,,,00014,2023-09-01_15h55.27.476,vbt_B2_day3,2022.2.4,MacIntel,60.0024001,,,,,,down,0,0.3177,,-0.113023207,-0.254305623,1,0,0,0,31,31,48,1,steel,images/br_steel.png,images/cb_steel.png,0,,,,,,,,,,,,,,,,,,,,,,
,,,,,00014,2023-09-01_15h55.27.476,vbt_B2_day3,2022.2.4,MacIntel,60.0024001,,,,,,down,0,5.7842,,-0.132978448,-0.252241279,1,0,0,0,32,32,103,1,joggen,images/br_joggen.png,images/cb_joggen.png,1,joggen,,,,,,,,,,,,,,,,,,,,,
,,,,,00014,2023-09-01_15h55.27.476,vbt_B2_day3,2022.2.4,MacIntel,60.0024001,,,,,,down,0,4.2673,,-0.143328586,-0.251693319,1,0,0,0,33,33,18,1,blik,images/br_blik.png,images/cb_blik.png,0,,,,,,,,,,,,,,,,,,,,,,
,,,,,00014,2023-09-01_15h55.27.476,vbt_B2_day3,2022.2.4,MacIntel,60.0024001,,,,,,down,0,1.8334,,-0.143328586,-0.251693319,1,0,0,0,34,34,47,1,kabel,images/br_kabel.png,images/cb_kabel.png,0,,,,,,,,,,,,,,,,,,,,,,
,,,,,00014,2023-09-01_15h55.27.476,vbt_B2_day3,2022.2.4,MacIntel,60.0024001,,,,,,down,0,0.8862,,-0.145241089,-0.251693319,1,0,0,0,35,35,171,1,aarzelen,images/br_aarzelen.png,images/cb_aarzelen.png,0,,,,,,,,,,,,,,,,,,,,,,
,,,,,00014,2023-09-01_15h55.27.476,vbt_B2_day3,2022.2.4,MacIntel,60.0024001,,,,,,down,0,8.3018,,-0.154582452,-0.247616577,1,0,0,0,36,36,182,1,bijkomen,images/br_bijkomen.png,images/cb_bijkomen.png,1,bijkomen,,,,,,,,,,,,,,,,,,,,,
,,,,,00014,2023-09-01_15h55.27.476,vbt_B2_day3,2022.2.4,MacIntel,60.0024001,,,,,,down,0,7.6669,,-0.155693563,-0.247616577,1,0,0,0,37,37,162,1,uitdelen,images/br_uitdelen.png,images/cb_uitdelen.png,0,,,,,,,,,,,,,,,,,,,,,,
,,,,,00014,2023-09-01_15h55.27.476,vbt_B2_day3,2022.2.4,MacIntel,60.0024001,,,,,,down,0,11.667,,-0.155693563,-0.247616577,1,0,0,0,38,38,168,1,bisschop,images/br_bisschop.png,images/cb_bisschop.png,0,,,,,,,,,,,,,,,,,,,,,,
,,,,,00014,2023-09-01_15h55.27.476,vbt_B2_day3,2022.2.4,MacIntel,60.0024001,,,,,,down,0,1.6673,,-0.155693563,-0.247616577,1,0,0,0,39,39,15,1,soda,images/br_soda.png,images/cb_soda.png,0,,,,,,,,,,,,,,,,,,,,,,
,,,,,00014,2023-09-01_15h55.27.476,vbt_B2_day3,2022.2.4,MacIntel,60.0024001,,,,,,down,0,5.6174,,-0.155693563,-0.247616577,1,0,0,0,40,40,184,1,aandelen,images/br_aandelen.png,images/cb_aandelen.png,0,,,,,,,,,,,,,,,,,,,,,,
,,,,,00014,2023-09-01_15h55.27.476,vbt_B2_day3,2022.2.4,MacIntel,60.0024001,,,,,,down,0,2.7014,,-0.155693563,-0.247616577,1,0,0,0,41,41,66,1,lever,images/br_lever.png,images/cb_lever.png,0,,,,,,,,,,,,,,,,,,,,,,
,,,,,00014,2023-09-01_15h55.27.476,vbt_B2_day3,2022.2.4,MacIntel,60.0024001,,,,,,down,0,2.2687,,-0.155693563,-0.247616577,1,0,0,0,42,42,166,1,strikken,images/br_strikken.png,images/cb_strikken.png,0,,,,,,,,,,,,,,,,,,,,,,
,,,,,00014,2023-09-01_15h55.27.476,vbt_B2_day3,2022.2.4,MacIntel,60.0024001,,,,,,down,0,2.3859,,-0.155693563,-0.247616577,1,0,0,0,43,43,40,1,schep,images/br_schep.png,images/cb_schep.png,0,,,,,,,,,,,,,,,,,,,,,,
,,,,,00014,2023-09-01_15h55.27.476,vbt_B2_day3,2022.2.4,MacIntel,60.0024001,,,,,,down,0,5.4984,,-0.155181546,-0.247360501,1,0,0,0,44,44,149,1,redding,images/br_redding.png,images/cb_redding.png,0,,,,,,,,,,,,,,,,,,,,,,
,,,,,00014,2023-09-01_15h55.27.476,vbt_B2_day3,2022.2.4,MacIntel,60.0024001,,,,,,down,0,3.6671,,-0.155181546,-0.247360501,1,0,0,0,45,45,4,1,moes,images/br_moes.png,images/cb_moes.png,0,,,,,,,,,,,,,,,,,,,,,,
,,,,,00014,2023-09-01_15h55.27.476,vbt_B2_day3,2022.2.4,MacIntel,60.0024001,,,,,,down,0,4.6826,,-0.155181546,-0.247360501,1,0,0,0,46,46,102,1,legaal,images/br_legaal.png,images/cb_legaal.png,1,legaal,,,,,,,,,,,,,,,,,,,,,
,,,,,00014,2023-09-01_15h55.27.476,vbt_B2_day3,2022.2.4,MacIntel,60.0024001,,,,,,down,0,3.7355,,-0.155181546,-0.247360501,1,0,0,0,47,47,187,1,opkijken,images/br_opkijken.png,images/cb_opkijken.png,0,,,,,,,,,,,,,,,,,,,,,,
,,,,,00014,2023-09-01_15h55.27.476,vbt_B2_day3,2022.2.4,MacIntel,60.0024001,,,,,,down,0,4.8512,,-0.160355564,-0.246235487,1,0,0,0,48,48,21,1,mist,images/br_mist.png,images/cb_mist.png,1,mist,,,,,,,,,,,,,,,,,,,,,
,,,,,00014,2023-09-01_15h55.27.476,vbt_B2_day3,2022.2.4,MacIntel,60.0024001,,,,,,down,0,7.3677,,-0.160911119,-0.245679932,1,0,0,0,49,49,107,1,maling,images/br_maling.png,images/cb_maling.png,0,,,,,,,,,,,,,,,,,,,,,,
,,,,,00014,2023-09-01_15h55.27.476,vbt_B2_day3,2022.2.4,MacIntel,60.0024001,,,,,,down,0,3.4014,,-0.165087891,-0.245393134,1,0,0,0,50,50,158,1,innemen,images/br_innemen.png,images/cb_innemen.png,0,,,,,,,,,,,,,,,,,,,,,,
,,,,,00014,2023-09-01_15h55.27.476,vbt_B2_day3,2022.2.4,MacIntel,60.0024001,,,,,,down,0,1.9518,,-0.165087891,-0.245393134,1,0,0,0,51,51,49,1,laken,images/br_laken.png,images/cb_laken.png,0,,,,,,,,,,,,,,,,,,,,,,
,,,,,00014,2023-09-01_15h55.27.476,vbt_B2_day3,2022.2.4,MacIntel,60.0024001,,,,,,down,0,7.2327,,-0.165087891,-0.245393134,1,0,0,0,52,52,106,1,zingen,images/br_zingen.png,images/cb_zingen.png,0,,,,,,,,,,,,,,,,,,,,,,
,,,,,00014,2023-09-01_15h55.27.476,vbt_B2_day3,2022.2.4,MacIntel,60.0024001,,,,,,down,0,0.3193,,-0.165087891,-0.245393134,1,0,0,0,53,53,1,1,zaal,images/br_zaal.png,images/cb_zaal.png,0,,,,,,,,,,,,,,,,,,,,,,
,,,,,00014,2023-09-01_15h55.27.476,vbt_B2_day3,2022.2.4,MacIntel,60.0024001,,,,,,down,0,4.4376,,-0.165087891,-0.245393134,1,0,0,0,54,54,46,1,jagen,images/br_jagen.png,images/cb_jagen.png,0,,,,,,,,,,,,,,,,,,,,,,
,,,,,00014,2023-09-01_15h55.27.476,vbt_B2_day3,2022.2.4,MacIntel,60.0024001,,,,,,down,0,8.4038,,-0.165087891,-0.245393134,1,0,0,0,55,55,195,1,middelen,images/br_middelen.png,images/cb_middelen.png,0,,,,,,,,,,,,,,,,,,,,,,
,,,,,00014,2023-09-01_15h55.27.476,vbt_B2_day3,2022.2.4,MacIntel,60.0024001,,,,,,down,0,3.7182,,-0.165087891,-0.245393134,1,0,0,0,56,56,164,1,anarchie,images/br_anarchie.png,images/cb_anarchie.png,0,,,,,,,,,,,,,,,,,,,,,,
,,,,,00014,2023-09-01_15h55.27.476,vbt_B2_day3,2022.2.4,MacIntel,60.0024001,,,,,,down,0,11.1224,,-0.165087891,-0.245393134,1,0,0,0,57,57,59,1,kring,images/br_kring.png,images/cb_kring.png,0,,,,,,,,,,,,,,,,,,,,,,
,,,,,00014,2023-09-01_15h55.27.476,vbt_B2_day3,2022.2.4,MacIntel,60.0024001,,,,,,down,0,1.4877,,-0.171440158,-0.244440308,1,0,0,0,58,58,38,1,baai,images/br_baai.png,images/cb_baai.png,0,,,,,,,,,,,,,,,,,,,,,,
,,,,,00014,2023-09-01_15h55.27.476,vbt_B2_day3,2022.2.4,MacIntel,60.0024001,,,,,,down,0,5.3193,,-0.171088053,-0.244440308,1,0,0,0,59,59,167,1,eenhoorn,images/br_eenhoorn.png,images/cb_eenhoorn.png,0,,,,,,,,,,,,,,,,,,,,,,
,,,,,00014,2023-09-01_15h55.27.476,vbt_B2_day3,2022.2.4,MacIntel,60.0024001,,,,,,down,0,8.6019,,-0.169371677,-0.244440308,1,0,0,0,60,60,54,1,gebit,images/br_gebit.png,images/cb_gebit.png,0,,,,,,,,,,,,,,,,,,,,,,
,,,,,00014,2023-09-01_15h55.27.476,vbt_B2_day3,2022.2.4,MacIntel,60.0024001,,,,,,down,0,2.7496,,-0.169371677,-0.244440308,1,0,0,0,61,61,69,1,waken,images/br_waken.png,images/cb_waken.png,0,,,,,,,,,,,,,,,,,,,,,,
,,,,,00014,2023-09-01_15h55.27.476,vbt_B2_day3,2022.2.4,MacIntel,60.0024001,,,,,,down,0,10.5197,,-0.169371677,-0.244440308,1,0,0,0,62,62,193,1,weeshuis,images/br_weeshuis.png,images/cb_weeshuis.png,0,,,,,,,,,,,,,,,,,,,,,,
,,,,,00014,2023-09-01_15h55.27.476,vbt_B2_day3,2022.2.4,MacIntel,60.0024001,,,,,,down,0,2.8509,,-0.170676541,-0.244440308,1,0,0,0,63,63,52,1,wagon,images/br_wagon.png,images/cb_wagon.png,0,,,,,,,,,,,,,,,,,,,,,,
,,,,,00014,2023-09-01_15h55.27.476,vbt_B2_day3,2022.2.4,MacIntel,60.0024001,,,,,,down,0,7.2005,,-0.141948242,-0.215627035,1,0,0,0,64,64,24,1,jurk,images/br_jurk.png,images/cb_jurk.png,0,,,,,,,,,,,,,,,,,,,,,,
,,,,,00014,2023-09-01_15h55.27.476,vbt_B2_day3,2022.2.4,MacIntel,60.0024001,,,,,,down,0,7.2536,,-0.141948242,-0.215627035,1,0,0,0,65,65,121,1,twijfel,images/br_twijfel.png,images/cb_twijfel.png,0,,,,,,,,,,,,,,,,,,,,,,
,,,,,00014,2023-09-01_15h55.27.476,vbt_B2_day3,2022.2.4,MacIntel,60.0024001,,,,,,down,0,7.7994,,-0.141948242,-0.215627035,1,0,0,0,66,66,60,1,jasje,images/br_jasje.png,images/cb_jasje.png,1,jasje,,,,,,,,,,,,,,,,,,,,,
,,,,,00014,2023-09-01_15h55.27.476,vbt_B2_day3,2022.2.4,MacIntel,60.0024001,,,,,,down,0,5.8508,,-0.177186754,-0.213773668,1,0,0,0,67,67,70,1,ijdel,images/br_ijdel.png,images/cb_ijdel.png,0,,,,,,,,,,,,,,,,,,,,,,
,,,,,00014,2023-09-01_15h55.27.476,vbt_B2_day3,2022.2.4,MacIntel,60.0024001,,,,,,down,0,3.5534,,-0.184658,-0.21135654,1,0,0,0,68,68,67,1,zwart,images/br_zwart.png,images/cb_zwart.png,0,,,,,,,,,,,,,,,,,,,,,,
,,,,,00014,2023-09-01_15h55.27.476,vbt_B2_day3,2022.2.4,MacIntel,60.0024001,,,,,,down,0,0.4558,,-0.20139228,-0.20786377,1,0,0,0,69,69,84,1,lokken,images/br_lokken.png,images/cb_lokken.png,0,,,,,,,,,,,,,,,,,,,,,,
,,,,,00014,2023-09-01_15h55.27.476,vbt_B2_day3,2022.2.4,MacIntel,60.0024001,,,,,,down,0,1.7391,,-0.198463813,-0.207308214,1,0,0,0,70,70,119,1,liefje,images/br_liefje.png,images/cb_liefje.png,0,,,,,,,,,,,,,,,,,,,,,,
,,,,,00014,2023-09-01_15h55.27.476,vbt_B2_day3,2022.2.4,MacIntel,60.0024001,,,,,,down,0,1.0064,,-0.198463813,-0.207308214,1,0,0,0,71,71,6,1,diep,images/br_diep.png,images/cb_diep.png,0,,,,,,,,,,,,,,,,,,,,,,
,,,,,00014,2023-09-01_15h55.27.476,vbt_B2_day3,2022.2.4,MacIntel,60.0024001,,,,,,down,0,0.6701,,-0.198463813,-0.207308214,1,0,0,0,72,72,13,1,kaal,images/br_kaal.png,images/cb_kaal.png,0,,,,,,,,,,,,,,,,,,,,,,
,,,,,00014,2023-09-01_15h55.27.476,vbt_B2_day3,2022.2.4,MacIntel,60.0024001,,,,,,down,0,10.1012,,-0.198463813,-0.207308214,1,0,0,0,73,73,180,1,openbaar,images/br_openbaar.png,images/cb_openbaar.png,1,openbaar,,,,,,,,,,,,,,,,,,,,,
,,,,,00014,2023-09-01_15h55.27.476,vbt_B2_day3,2022.2.4,MacIntel,60.0024001,,,,,,down,0,2.1168,,-0.198463813,-0.207308214,1,0,0,0,74,74,144,1,eetlust,images/br_eetlust.png,images/cb_eetlust.png,0,,,,,,,,,,,,,,,,,,,,,,
,,,,,00014,2023-09-01_15h55.27.476,vbt_B2_day3,2022.2.4,MacIntel,60.0024001,,,,,,down,0,9.5875,,-0.200440606,-0.206345147,1,0,0,0,75,75,136,1,waarbij,images/br_waarbij.png,images/cb_waarbij.png,0,,,,,,,,,,,,,,,,,,,,,,
,,,,,00014,2023-09-01_15h55.27.476,vbt_B2_day3,2022.2.4,MacIntel,60.0024001,,,,,,down,0,4.8675,,-0.200440606,-0.205789591,1,0,0,0,76,76,76,1,afval,images/br_afval.png,images/cb_afval.png,0,,,,,,,,,,,,,,,,,,,,,,
,,,,,00014,2023-09-01_15h55.27.476,vbt_B2_day3,2022.2.4,MacIntel,60.0024001,,,,,,down,0,4.0162,,-0.200440606,-0.205789591,1,0,0,0,77,77,105,1,wijlen,images/br_wijlen.png,images/cb_wijlen.png,0,,,,,,,,,,,,,,,,,,,,,,
,,,,,00014,2023-09-01_15h55.27.476,vbt_B2_day3,2022.2.4,MacIntel,60.0024001,,,,,,down,0,5.856,,-0.208028361,-0.20504442,1,0,0,0,78,78,140,1,blijven,images/br_blijven.png,images/cb_blijven.png,1,blijven,,,,,,,,,,,,,,,,,,,,,
,,,,,00014,2023-09-01_15h55.27.476,vbt_B2_day3,2022.2.4,MacIntel,60.0024001,,,,,,down,0,3.8565,,-0.243523051,-0.199752943,1,0,0,0,79,79,77,1,woede,images/br_woede.png,images/cb_woede.png,0,,,,,,,,,,,,,,,,,,,,,,
,,,,,00014,2023-09-01_15h55.27.476,vbt_B2_day3,2022.2.4,MacIntel,60.0024001,,,,,,down,0,2.6005,,-0.239767388,-0.198641832,1,0,0,0,80,80,127,1,doodmoe,images/br_doodmoe.png,images/cb_doodmoe.png,0,,,,,,,,,,,,,,,,,,,,,,
,,,,,00014,2023-09-01_15h55.27.476,vbt_B2_day3,2022.2.4,MacIntel,60.0024001,,,,,,down,0,14.4216,,-0.228509996,-0.198641832,1,0,0,0,81,81,143,1,hechten,images/br_hechten.png,images/cb_hechten.png,1,hechten,,,,,,,,,,,,,,,,,,,,,
,,,,,00014,2023-09-01_15h55.27.476,vbt_B2_day3,2022.2.4,MacIntel,60.0024001,,,,,,down,0,7.6884,,-0.228509996,-0.198641832,1,0,0,0,82,82,157,1,uitlaat,images/br_uitlaat.png,images/cb_uitlaat.png,0,,,,,,,,,,,,,,,,,,,,,,
,,,,,00014,2023-09-01_15h55.27.476,vbt_B2_day3,2022.2.4,MacIntel,60.0024001,,,,,,down,0,10.402,,-0.228509996,-0.198641832,1,0,0,0,83,83,92,1,geheim,images/br_geheim.png,images/cb_geheim.png,0,,,,,,,,,,,,,,,,,,,,,,
,,,,,00014,2023-09-01_15h55.27.476,vbt_B2_day3,2022.2.4,MacIntel,60.0024001,,,,,,down,0,1.4358,,-0.228509996,-0.198641832,1,0,0,0,84,84,17,1,taal,images/br_taal.png,images/cb_taal.png,0,,,,,,,,,,,,,,,,,,,,,,
,,,,,00014,2023-09-01_15h55.27.476,vbt_B2_day3,2022.2.4,MacIntel,60.0024001,,,,,,down,0,0.3168,,-0.236784295,-0.188254395,1,0,0,0,85,85,25,1,plek,images/br_plek.png,images/cb_plek.png,0,,,,,,,,,,,,,,,,,,,,,,
,,,,,00014,2023-09-01_15h55.27.476,vbt_B2_day3,2022.2.4,MacIntel,60.0024001,,,,,,down,0,0.9559,,-0.232037116,-0.186006944,1,0,0,0,86,86,78,1,leren,images/br_leren.png,images/cb_leren.png,0,,,,,,,,,,,,,,,,,,,,,,
,,,,,00014,2023-09-01_15h55.27.476,vbt_B2_day3,2022.2.4,MacIntel,60.0024001,,,,,,down,0,0.7193,,-0.236821459,-0.184943305,1,0,0,0,87,87,126,1,kasteel,images/br_kasteel.png,images/cb_kasteel.png,0,,,,,,,,,,,,,,,,,,,,,,
,,,,,00014,2023-09-01_15h55.27.476,vbt_B2_day3,2022.2.4,MacIntel,60.0024001,,,,,,down,0,3.3345,,-0.236821459,-0.18438775,1,0,0,0,88,88,41,1,maken,images/br_maken.png,images/cb_maken.png,0,,,,,,,,,,,,,,,,,,,,,,
,,,,,00014,2023-09-01_15h55.27.476,vbt_B2_day3,2022.2.4,MacIntel,60.0024001,,,,,,down,0,2.3594,,-0.24143514,-0.187960748,1,0,0,0,89,89,82,1,muziek,images/br_muziek.png,images/cb_muziek.png,0,,,,,,,,,,,,,,,,,,,,,,
,,,,,00014,2023-09-01_15h55.27.476,vbt_B2_day3,2022.2.4,MacIntel,60.0024001,,,,,,down,0,2.8027,,-0.243827888,-0.193103909,1,0,0,0,90,90,32,1,palm,images/br_palm.png,images/cb_palm.png,0,,,,,,,,,,,,,,,,,,,,,,
,,,,,00014,2023-09-01_15h55.27.476,vbt_B2_day3,2022.2.4,MacIntel,60.0024001,,,,,,down,0,5.0431,,-0.244228889,-0.196713867,1,0,0,0,91,91,108,1,excuus,images/br_excuus.png,images/cb_excuus.png,0,,,,,,,,,,,,,,,,,,,,,,
,,,,,00014,2023-09-01_15h55.27.476,vbt_B2_day3,2022.2.4,MacIntel,60.0024001,,,,,,down,0,3.6008,,-0.244902954,-0.202792426,1,0,0,0,92,92,27,1,dans,images/br_dans.png,images/cb_dans.png,0,,,,,,,,,,,,,,,,,,,,,,
,,,,,00014,2023-09-01_15h55.27.476,vbt_B2_day3,2022.2.4,MacIntel,60.0024001,,,,,,down,0,0.7751,,-0.244660678,-0.206951497,1,0,0,0,93,93,5,1,blad,images/br_blad.png,images/cb_blad.png,0,,,,,,,,,,,,,,,,,,,,,,
,,,,,00014,2023-09-01_15h55.27.476,vbt_B2_day3,2022.2.4,MacIntel,60.0024001,,,,,,down,0,2.1169,,-0.250385708,-0.216469523,1,0,0,0,94,94,51,1,samen,images/br_samen.png,images/cb_samen.png,0,,,,,,,,,,,,,,,,,,,,,,
,,,,,00014,2023-09-01_15h55.27.476,vbt_B2_day3,2022.2.4,MacIntel,60.0024001,,,,,,down,0,4.5503,,-0.255074531,-0.22860494,1,0,0,0,95,95,83,1,mening,images/br_mening.png,images/cb_mening.png,0,,,,,,,,,,,,,,,,,,,,,,
,,,,,00014,2023-09-01_15h55.27.476,vbt_B2_day3,2022.2.4,MacIntel,60.0024001,,,,,,down,0,0.9519,,-0.256667107,-0.233596463,1,0,0,0,96,96,64,1,wegen,images/br_wegen.png,images/cb_wegen.png,0,,,,,,,,,,,,,,,,,,,,,,
,,,,,00014,2023-09-01_15h55.27.476,vbt_B2_day3,2022.2.4,MacIntel,60.0024001,,,,,,down,0,2.4687,,-0.25624922,-0.235443997,1,0,0,0,97,97,117,1,kennis,images/br_kennis.png,images/cb_kennis.png,0,,,,,,,,,,,,,,,,,,,,,,
,,,,,00014,2023-09-01_15h55.27.476,vbt_B2_day3,2022.2.4,MacIntel,60.0024001,,,,,,down,0,0.7692,,-0.257627224,-0.244263441,1,0,0,0,98,98,36,1,vuur,images/br_vuur.png,images/cb_vuur.png,0,,,,,,,,,,,,,,,,,,,,,,
,,,,,00014,2023-09-01_15h55.27.476,vbt_B2_day3,2022.2.4,MacIntel,60.0024001,,,,,,down,0,0.7369,,-0.261803352,-0.251790907,1,0,0,0,99,99,9,1,hier,images/br_hier.png,images/cb_hier.png,0,,,,,,,,,,,,,,,,,,,,,,
,,,,,00014,2023-09-01_15h55.27.476,vbt_B2_day3,2022.2.4,MacIntel,60.0024001,,,,,,down,0,4.8837,,-0.261803352,-0.251742893,1,0,0,0,100,100,146,1,opkomen,images/br_opkomen.png,images/cb_opkomen.png,0,,,,,,,,,,,,,,,,,,,,,,
,,,,,00014,2023-09-01_15h55.27.476,vbt_B2_day3,2022.2.4,MacIntel,60.0024001,,,,,,down,0,7.8985,,-0.261803352,-0.251742893,1,0,0,0,101,101,142,1,snuiven,images/br_snuiven.png,images/cb_snuiven.png,1,snuiven,,,,,,,,,,,,,,,,,,,,,
,,,,,00014,2023-09-01_15h55.27.476,vbt_B2_day3,2022.2.4,MacIntel,60.0024001,,,,,,down,0,1.0499,,-0.261803352,-0.251742893,1,0,0,0,102,102,113,1,koppen,images/br_koppen.png,images/cb_koppen.png,0,,,,,,,,,,,,,,,,,,,,,,
,,,,,00014,2023-09-01_15h55.27.476,vbt_B2_day3,2022.2.4,MacIntel,60.0024001,,,,,,down,0,6.0503,,-0.265464613,-0.268402981,1,0,0,0,103,103,190,1,goedkoop,images/br_goedkoop.png,images/cb_goedkoop.png,0,,,,,,,,,,,,,,,,,,,,,,
,,,,,00014,2023-09-01_15h55.27.476,vbt_B2_day3,2022.2.4,MacIntel,60.0024001,,,,,,down,0,0.0005,,-0.266447177,-0.276832208,1,0,0,0,104,104,29,1,baas,images/br_baas.png,images/cb_baas.png,0,,,,,,,,,,,,,,,,,,,,,,
,,,,,00014,2023-09-01_15h55.27.476,vbt_B2_day3,2022.2.4,MacIntel,60.0024001,,,,,,down,0,6.0545,,-0.267162747,-0.269069078,1,0,0,0,105,105,165,1,feestdag,images/br_feestdag.png,images/cb_feestdag.png,0,,,,,,,,,,,,,,,,,,,,,,
,,,,,00014,2023-09-01_15h55.27.476,vbt_B2_day3,2022.2.4,MacIntel,60.0024001,,,,,,down,0,2.4008,,-0.268697747,-0.283299696,1,0,0,0,106,106,188,1,strekken,images/br_strekken.png,images/cb_strekken.png,0,,,,,,,,,,,,,,,,,,,,,,
,,,,,00014,2023-09-01_15h55.27.476,vbt_B2_day3,2022.2.4,MacIntel,60.0024001,,,,,,down,0,0.8507,,-0.269304572,-0.297494303,1,0,0,0,107,107,197,1,spanning,images/br_spanning.png,images/cb_spanning.png,0,,,,,,,,,,,,,,,,,,,,,,
,,,,,00014,2023-09-01_15h55.27.476,vbt_B2_day3,2022.2.4,MacIntel,60.0024001,,,,,,down,0,5.1844,,-0.269304572,-0.285468547,1,0,0,0,108,108,98,1,kreeft,images/br_kreeft.png,images/cb_kreeft.png,0,,,,,,,,,,,,,,,,,,,,,,
,,,,,00014,2023-09-01_15h55.27.476,vbt_B2_day3,2022.2.4,MacIntel,60.0024001,,,,,,down,0,4.0382,,-0.269304572,-0.285468547,1,0,0,0,109,109,23,1,zout,images/br_zout.png,images/cb_zout.png,1,zout,,,,,,,,,,,,,,,,,,,,,
,,,,,00014,2023-09-01_15h55.27.476,vbt_B2_day3,2022.2.4,MacIntel,60.0024001,,,,,,down,0,9.3001,,-0.2695912,-0.284147949,1,0,0,0,110,110,145,1,invloed,images/br_invloed.png,images/cb_invloed.png,0,,,,,,,,,,,,,,,,,,,,,,
,,,,,00014,2023-09-01_15h55.27.476,vbt_B2_day3,2022.2.4,MacIntel,60.0024001,,,,,,down,0,8.0004,,-0.258405694,-0.251656426,1,0,0,0,111,111,161,1,attentie,images/br_attentie.png,images/cb_attentie.png,0,,,,,,,,,,,,,,,,,,,,,,
,,,,,00014,2023-09-01_15h55.27.476,vbt_B2_day3,2022.2.4,MacIntel,60.0024001,,,,,,down,0,2.866,,-0.259215495,-0.241348945,1,0,0,0,112,112,80,1,kanjer,images/br_kanjer.png,images/cb_kanjer.png,0,,,,,,,,,,,,,,,,,,,,,,
,,,,,00014,2023-09-01_15h55.27.476,vbt_B2_day3,2022.2.4,MacIntel,60.0024001,,,,,,down,0,4.9197,,-0.259215495,-0.241348945,1,0,0,0,113,113,124,1,bloeien,images/br_bloeien.png,images/cb_bloeien.png,0,,,,,,,,,,,,,,,,,,,,,,
,,,,,00014,2023-09-01_15h55.27.476,vbt_B2_day3,2022.2.4,MacIntel,60.0024001,,,,,,down,0,4.4337,,-0.260311313,-0.224823269,1,0,0,0,114,114,129,1,verhaal,images/br_verhaal.png,images/cb_verhaal.png,0,,,,,,,,,,,,,,,,,,,,,,
,,,,,00014,2023-09-01_15h55.27.476,vbt_B2_day3,2022.2.4,MacIntel,60.0024001,,,,,,down,0,1.3191,,-0.260311313,-0.224823269,1,0,0,0,115,115,3,1,mand,images/br_mand.png,images/cb_mand.png,0,,,,,,,,,,,,,,,,,,,,,,
,,,,,00014,2023-09-01_15h55.27.476,vbt_B2_day3,2022.2.4,MacIntel,60.0024001,,,,,,down,0,8.8336,,-0.246408556,-0.213942261,1,0,0,0,116,116,118,1,vinger,images/br_vinger.png,images/cb_vinger.png,0,,,,,,,,,,,,,,,,,,,,,,
,,,,,00014,2023-09-01_15h55.27.476,vbt_B2_day3,2022.2.4,MacIntel,60.0024001,,,,,,down,0,5.5839,,-0.26051334,-0.252199504,1,0,0,0,117,117,101,1,staren,images/br_staren.png,images/cb_staren.png,1,staren,,,,,,,,,,,,,,,,,,,,,
,,,,,00014,2023-09-01_15h55.27.476,vbt_B2_day3,2022.2.4,MacIntel,60.0024001,,,,,,down,0,2.4178,,-0.297147827,-0.292148166,1,0,0,0,118,118,159,1,sufferd,images/br_sufferd.png,images/cb_sufferd.png,0,,,,,,,,,,,,,,,,,,,,,,
,,,,,00014,2023-09-01_15h55.27.476,vbt_B2_day3,2022.2.4,MacIntel,60.0024001,,,,,,down,0,2.8675,,-0.289183282,-0.295103217,1,0,0,0,119,119,169,1,oprotten,images/br_oprotten.png,images/cb_oprotten.png,0,,,,,,,,,,,,,,,,,,,,,,
,,,,,00014,2023-09-01_15h55.27.476,vbt_B2_day3,2022.2.4,MacIntel,60.0024001,,,,,,down,0,6.8508,,-0.285978427,-0.29183336,1,0,0,0,120,120,37,1,mijn,images/br_mijn.png,images/cb_mijn.png,0,,,,,,,,,,,,,,,,,,,,,,
,,,,,00014,2023-09-01_15h55.27.476,vbt_B2_day3,2022.2.4,MacIntel,60.0024001,,,,,,down,0,2.4584,,-0.283985324,-0.294841715,1,0,0,0,121,121,90,1,geluid,images/br_geluid.png,images/cb_geluid.png,0,,,,,,,,,,,,,,,,,,,,,,
,,,,,00014,2023-09-01_15h55.27.476,vbt_B2_day3,2022.2.4,MacIntel,60.0024001,,,,,,down,0,0.0351,,-0.284763896,-0.298557197,1,0,0,0,122,122,33,1,vlek,images/br_vlek.png,images/cb_vlek.png,0,,,,,,,,,,,,,,,,,,,,,,
,,,,,00014,2023-09-01_15h55.27.476,vbt_B2_day3,2022.2.4,MacIntel,60.0024001,,,,,,down,0,4.8039,,-0.281126946,-0.299650879,1,0,0,0,123,123,134,1,geliefd,images/br_geliefd.png,images/cb_geliefd.png,0,,,,,,,,,,,,,,,,,,,,,,
,,,,,00014,2023-09-01_15h55.27.476,vbt_B2_day3,2022.2.4,MacIntel,60.0024001,,,,,,down,0,3.3175,,-0.280571391,-0.299394531,1,0,0,0,124,124,141,1,knielen,images/br_knielen.png,images/cb_knielen.png,1,knielen,,,,,,,,,,,,,,,,,,,,,
,,,,,00014,2023-09-01_15h55.27.476,vbt_B2_day3,2022.2.4,MacIntel,60.0024001,,,,,,down,0,9.032,,-0.280571391,-0.299394531,1,0,0,0,125,125,147,1,komisch,images/br_komisch.png,images/cb_komisch.png,0,,,,,,,,,,,,,,,,,,,,,,
,,,,,00014,2023-09-01_15h55.27.476,vbt_B2_day3,2022.2.4,MacIntel,60.0024001,,,,,,down,0,0.9344,,-0.280571391,-0.299394531,1,0,0,0,126,126,189,1,aanraden,images/br_aanraden.png,images/cb_aanraden.png,0,,,,,,,,,,,,,,,,,,,,,,
,,,,,00014,2023-09-01_15h55.27.476,vbt_B2_day3,2022.2.4,MacIntel,60.0024001,,,,,,down,0,3.2498,,-0.280571391,-0.299394531,1,0,0,0,127,127,133,1,seizoen,images/br_seizoen.png,images/cb_seizoen.png,0,,,,,,,,,,,,,,,,,,,,,,
,,,,,00014,2023-09-01_15h55.27.476,vbt_B2_day3,2022.2.4,MacIntel,60.0024001,,,,,,down,0,10.956,,-0.279275106,-0.297543674,1,0,0,0,128,128,116,1,besmet,images/br_besmet.png,images/cb_besmet.png,0,,,,,,,,,,,,,,,,,,,,,,
,,,,,00014,2023-09-01_15h55.27.476,vbt_B2_day3,2022.2.4,MacIntel,60.0024001,,,,,,down,0,2.0543,,-0.279724664,-0.302501492,1,0,0,0,129,129,96,1,slagen,images/br_slagen.png,images/cb_slagen.png,0,,,,,,,,,,,,,,,,,,,,,,
,,,,,00014,2023-09-01_15h55.27.476,vbt_B2_day3,2022.2.4,MacIntel,60.0024001,,,,,,down,0,4.1367,,-0.265645379,-0.30252733,1,0,0,0,130,130,43,1,klauw,images/br_klauw.png,images/cb_klauw.png,0,,,,,,,,,,,,,,,,,,,,,,
,,,,,00014,2023-09-01_15h55.27.476,vbt_B2_day3,2022.2.4,MacIntel,60.0024001,,,,,,down,0,4.1851,,-0.252288479,-0.296091173,1,0,0,0,131,131,65,1,parel,images/br_parel.png,images/cb_parel.png,0,,,,,,,,,,,,,,,,,,,,,,
,,,,,00014,2023-09-01_15h55.27.476,vbt_B2_day3,2022.2.4,MacIntel,60.0024001,,,,,,down,0,1.3044,,-0.239772847,-0.296966824,1,0,0,0,132,132,175,1,heengaan,images/br_heengaan.png,images/cb_heengaan.png,0,,,,,,,,,,,,,,,,,,,,,,
,,,,,00014,2023-09-01_15h55.27.476,vbt_B2_day3,2022.2.4,MacIntel,60.0024001,,,,,,down,0,4.4897,,-0.244656372,-0.296827799,1,0,0,0,133,133,177,1,maaltijd,images/br_maaltijd.png,images/cb_maaltijd.png,0,,,,,,,,,,,,,,,,,,,,,,
,,,,,00014,2023-09-01_15h55.27.476,vbt_B2_day3,2022.2.4,MacIntel,60.0024001,,,,,,down,0,2.3696,,-0.247294312,-0.298715413,1,0,0,0,134,134,198,1,bedoelen,images/br_bedoelen.png,images/cb_bedoelen.png,0,,,,,,,,,,,,,,,,,,,,,,
,,,,,00014,2023-09-01_15h55.27.476,vbt_B2_day3,2022.2.4,MacIntel,60.0024001,,,,,,down,0,6.0863,,-0.236354574,-0.294104953,1,0,0,0,135,135,123,1,hiervan,images/br_hiervan.png,images/cb_hiervan.png,0,,,,,,,,,,,,,,,,,,,,,,
,,,,,00014,2023-09-01_15h55.27.476,vbt_B2_day3,2022.2.4,MacIntel,60.0024001,,,,,,down,0,2.3354,,-0.221925863,-0.290998535,1,0,0,0,136,136,99,1,koffie,images/br_koffie.png,images/cb_koffie.png,0,,,,,,,,,,,,,,,,,,,,,,
,,,,,00014,2023-09-01_15h55.27.476,vbt_B2_day3,2022.2.4,MacIntel,60.0024001,,,,,,down,0,7.7342,,-0.21665195,-0.283521457,1,0,0,0,137,137,88,1,boeien,images/br_boeien.png,images/cb_boeien.png,0,,,,,,,,,,,,,,,,,,,,,,
,,,,,00014,2023-09-01_15h55.27.476,vbt_B2_day3,2022.2.4,MacIntel,60.0024001,,,,,,down,0,1.8343,,-0.231633674,-0.293077189,1,0,0,0,138,138,57,1,steek,images/br_steek.png,images/cb_steek.png,0,,,,,,,,,,,,,,,,,,,,,,
,,,,,00014,2023-09-01_15h55.27.476,vbt_B2_day3,2022.2.4,MacIntel,60.0024001,,,,,,down,0,1.9375,,-0.226867065,-0.289700656,1,0,0,0,139,139,132,1,grappen,images/br_grappen.png,images/cb_grappen.png,0,,,,,,,,,,,,,,,,,,,,,,
,,,,,00014,2023-09-01_15h55.27.476,vbt_B2_day3,2022.2.4,MacIntel,60.0024001,,,,,,down,0,2.4359,,-0.227422621,-0.290256212,1,0,0,0,140,140,62,1,knaap,images/br_knaap.png,images/cb_knaap.png,1,knaap,,,,,,,,,,,,,,,,,,,,,
,,,,,00014,2023-09-01_15h55.27.476,vbt_B2_day3,2022.2.4,MacIntel,60.0024001,,,,,,down,0,0.77,,-0.242420824,-0.303528646,1,0,0,0,141,141,0,1,slak,images/br_slak.png,images/cb_slak.png,0,,,,,,,,,,,,,,,,,,,,,,
,,,,,00014,2023-09-01_15h55.27.476,vbt_B2_day3,2022.2.4,MacIntel,60.0024001,,,,,,down,0,3.4212,,-0.244401889,-0.3061773,1,0,0,0,142,142,120,1,klimmen,images/br_klimmen.png,images/cb_klimmen.png,0,,,,,,,,,,,,,,,,,,,,,,
,,,,,00014,2023-09-01_15h55.27.476,vbt_B2_day3,2022.2.4,MacIntel,60.0024001,,,,,,down,0,1.4172,,-0.245099996,-0.313703952,1,0,0,0,143,143,93,1,waarop,images/br_waarop.png,images/cb_waarop.png,0,,,,,,,,,,,,,,,,,,,,,,
,,,,,00014,2023-09-01_15h55.27.476,vbt_B2_day3,2022.2.4,MacIntel,60.0024001,,,,,,down,0,1.2335,,-0.242142537,-0.310770603,1,0,0,0,144,144,112,1,lukken,images/br_lukken.png,images/cb_lukken.png,0,,,,,,,,,,,,,,,,,,,,,,
,,,,,00014,2023-09-01_15h55.27.476,vbt_B2_day3,2022.2.4,MacIntel,60.0024001,,,,,,down,0,1.2346,,-0.234545898,-0.308066135,1,0,0,0,145,145,56,1,traag,images/br_traag.png,images/cb_traag.png,0,,,,,,,,,,,,,,,,,,,,,,
,,,,,00014,2023-09-01_15h55.27.476,vbt_B2_day3,2022.2.4,MacIntel,60.0024001,,,,,,down,0,0.8832,,-0.232357449,-0.307203098,1,0,0,0,146,146,148,1,smullen,images/br_smullen.png,images/cb_smullen.png,0,,,,,,,,,,,,,,,,,,,,,,
,,,,,00014,2023-09-01_15h55.27.476,vbt_B2_day3,2022.2.4,MacIntel,60.0024001,,,,,,down,0,0.5667,,-0.232357449,-0.307203098,1,0,0,0,147,147,39,1,laag,images/br_laag.png,images/cb_laag.png,0,,,,,,,,,,,,,,,,,,,,,,
,,,,,00014,2023-09-01_15h55.27.476,vbt_B2_day3,2022.2.4,MacIntel,60.0024001,,,,,,down,0,1.4188,,-0.223880208,-0.300840183,1,0,0,0,148,148,50,1,stoom,images/br_stoom.png,images/cb_stoom.png,0,,,,,,,,,,,,,,,,,,,,,,
,,,,,00014,2023-09-01_15h55.27.476,vbt_B2_day3,2022.2.4,MacIntel,60.0024001,,,,,,down,0,17.4071,,-0.20853753,-0.296415473,1,0,0,0,149,149,185,1,mijnheer,images/br_mijnheer.png,images/cb_mijnheer.png,0,,,,,,,,,,,,,,,,,,,,,,
,,,,,00014,2023-09-01_15h55.27.476,vbt_B2_day3,2022.2.4,MacIntel,60.0024001,,,,,,down,0,1.0061,,-0.207981974,-0.295859918,1,0,0,0,150,150,35,1,lust,images/br_lust.png,images/cb_lust.png,0,,,,,,,,,,,,,,,,,,,,,,
,,,,,00014,2023-09-01_15h55.27.476,vbt_B2_day3,2022.2.4,MacIntel,60.0024001,,,,,,down,0,21.3184,,-0.193593479,-0.283431396,1,0,0,0,151,151,111,1,ticket,images/br_ticket.png,images/cb_ticket.png,0,,,,,,,,,,,,,,,,,,,,,,
,,,,,00014,2023-09-01_15h55.27.476,vbt_B2_day3,2022.2.4,MacIntel,60.0024001,,,,,,down,0,2.2659,,-0.193593479,-0.283431396,1,0,0,0,152,152,2,1,jaar,images/br_jaar.png,images/cb_jaar.png,0,,,,,,,,,,,,,,,,,,,,,,
,,,,,00014,2023-09-01_15h55.27.476,vbt_B2_day3,2022.2.4,MacIntel,60.0024001,,,,,,down,0,1.257,,-0.193593479,-0.283431396,1,0,0,0,153,153,125,1,aanzien,images/br_aanzien.png,images/cb_aanzien.png,0,,,,,,,,,,,,,,,,,,,,,,
,,,,,00014,2023-09-01_15h55.27.476,vbt_B2_day3,2022.2.4,MacIntel,60.0024001,,,,,,down,0,3.519,,-0.183861287,-0.282916056,1,0,0,0,154,154,30,1,uien,images/br_uien.png,images/cb_uien.png,0,,,,,,,,,,,,,,,,,,,,,,
,,,,,00014,2023-09-01_15h55.27.476,vbt_B2_day3,2022.2.4,MacIntel,60.0024001,,,,,,down,0,7.5175,,-0.179604967,-0.276272244,1,0,0,0,155,155,183,1,getuigen,images/br_getuigen.png,images/cb_getuigen.png,1,getuigen,,,,,,,,,,,,,,,,,,,,,
,,,,,00014,2023-09-01_15h55.27.476,vbt_B2_day3,2022.2.4,MacIntel,60.0024001,,,,,,down,0,1.7884,,-0.180716078,-0.275716688,1,0,0,0,156,156,104,1,zweven,images/br_zweven.png,images/cb_zweven.png,0,,,,,,,,,,,,,,,,,,,,,,
,,,,,00014,2023-09-01_15h55.27.476,vbt_B2_day3,2022.2.4,MacIntel,60.0024001,,,,,,down,0,5.4499,,-0.180716078,-0.275716688,1,0,0,0,157,157,131,1,opzicht,images/br_opzicht.png,images/cb_opzicht.png,0,,,,,,,,,,,,,,,,,,,,,,
,,,,,00014,2023-09-01_15h55.27.476,vbt_B2_day3,2022.2.4,MacIntel,60.0024001,,,,,,down,0,5.4194,,-0.180716078,-0.275716688,1,0,0,0,158,158,63,1,flirt,images/br_flirt.png,images/cb_flirt.png,1,flirt,,,,,,,,,,,,,,,,,,,,,
,,,,,00014,2023-09-01_15h55.27.476,vbt_B2_day3,2022.2.4,MacIntel,60.0024001,,,,,,down,0,1.9562,,-0.180716078,-0.275716688,1,0,0,0,159,159,186,1,voorraad,images/br_voorraad.png,images/cb_voorraad.png,0,,,,,,,,,,,,,,,,,,,,,,
,,,,,00014,2023-09-01_15h55.27.476,vbt_B2_day3,2022.2.4,MacIntel,60.0024001,,,,,,down,0,6.8229,,-0.180716078,-0.273006999,1,0,0,0,160,160,178,1,huisdier,images/br_huisdier.png,images/cb_huisdier.png,0,,,,,,,,,,,,,,,,,,,,,,
,,,,,00014,2023-09-01_15h55.27.476,vbt_B2_day3,2022.2.4,MacIntel,60.0024001,,,,,,down,0,2.5219,,-0.180716078,-0.273006999,1,0,0,0,161,161,152,1,afnemen,images/br_afnemen.png,images/cb_afnemen.png,0,,,,,,,,,,,,,,,,,,,,,,
,,,,,00014,2023-09-01_15h55.27.476,vbt_B2_day3,2022.2.4,MacIntel,60.0024001,,,,,,down,0,2.6495,,-0.180716078,-0.273006999,1,0,0,0,162,162,22,1,stof,images/br_stof.png,images/cb_stof.png,1,stof,,,,,,,,,,,,,,,,,,,,,
,,,,,00014,2023-09-01_15h55.27.476,vbt_B2_day3,2022.2.4,MacIntel,60.0024001,,,,,,down,0,1.6845,,-0.180716078,-0.273006999,1,0,0,0,163,163,97,1,loyaal,images/br_loyaal.png,images/cb_loyaal.png,0,,,,,,,,,,,,,,,,,,,,,,
,,,,,00014,2023-09-01_15h55.27.476,vbt_B2_day3,2022.2.4,MacIntel,60.0024001,,,,,,down,0,8.7652,,-0.180716078,-0.27275099,1,0,0,0,164,164,173,1,apparaat,images/br_apparaat.png,images/cb_apparaat.png,0,,,,,,,,,,,,,,,,,,,,,,
,,,,,00014,2023-09-01_15h55.27.476,vbt_B2_day3,2022.2.4,MacIntel,60.0024001,,,,,,down,0,2.5665,,-0.183014594,-0.288548041,1,0,0,0,165,165,55,1,praat,images/br_praat.png,images/cb_praat.png,0,,,,,,,,,,,,,,,,,,,,,,
,,,,,00014,2023-09-01_15h55.27.476,vbt_B2_day3,2022.2.4,MacIntel,60.0024001,,,,,,down,0,7.4378,,-0.183270738,-0.288548041,1,0,0,0,166,166,75,1,snoep,images/br_snoep.png,images/cb_snoep.png,0,,,,,,,,,,,,,,,,,,,,,,
,,,,,00014,2023-09-01_15h55.27.476,vbt_B2_day3,2022.2.4,MacIntel,60.0024001,,,,,,down,0,0.55,,-0.231542189,-0.290774333,1,0,0,0,167,167,86,1,woning,images/br_woning.png,images/cb_woning.png,0,,,,,,,,,,,,,,,,,,,,,,
,,,,,00014,2023-09-01_15h55.27.476,vbt_B2_day3,2022.2.4,MacIntel,60.0024001,,,,,,down,0,4.3849,,-0.230986599,-0.290774333,1,0,0,0,168,168,170,1,schatten,images/br_schatten.png,images/cb_schatten.png,0,,,,,,,,,,,,,,,,,,,,,,
,,,,,00014,2023-09-01_15h55.27.476,vbt_B2_day3,2022.2.4,MacIntel,60.0024001,,,,,,down,0,7.7701,,-0.230986599,-0.2900059,1,0,0,0,169,169,79,1,nodig,images/br_nodig.png,images/cb_nodig.png,0,,,,,,,,,,,,,,,,,,,,,,
,,,,,00014,2023-09-01_15h55.27.476,vbt_B2_day3,2022.2.4,MacIntel,60.0024001,,,,,,down,0,2.4414,,-0.230986599,-0.2900059,1,0,0,0,170,170,137,1,trekker,images/br_trekker.png,images/cb_trekker.png,0,,,,,,,,,,,,,,,,,,,,,,
,,,,,00014,2023-09-01_15h55.27.476,vbt_B2_day3,2022.2.4,MacIntel,60.0024001,,,,,,down,0,3.4413,,-0.231896396,-0.280215386,1,0,0,0,171,171,58,1,tekst,images/br_tekst.png,images/cb_tekst.png,0,,,,,,,,,,,,,,,,,,,,,,
,,,,,00014,2023-09-01_15h55.27.476,vbt_B2_day3,2022.2.4,MacIntel,60.0024001,,,,,,down,0,5.2836,,-0.22885593,-0.281629571,1,0,0,0,172,172,14,1,rijp,images/br_rijp.png,images/cb_rijp.png,0,,,,,,,,,,,,,,,,,,,,,,
,,,,,00014,2023-09-01_15h55.27.476,vbt_B2_day3,2022.2.4,MacIntel,60.0024001,,,,,,down,0,0.1503,,-0.22885593,-0.281629571,1,0,0,0,173,173,16,1,ziek,images/br_ziek.png,images/cb_ziek.png,0,,,,,,,,,,,,,,,,,,,,,,
,,,,,00014,2023-09-01_15h55.27.476,vbt_B2_day3,2022.2.4,MacIntel,60.0024001,,,,,,down,0,0.1497,,-0.22885593,-0.281629571,1,0,0,0,174,174,10,1,leek,images/br_leek.png,images/cb_leek.png,0,,,,,,,,,,,,,,,,,,,,,,
,,,,,00014,2023-09-01_15h55.27.476,vbt_B2_day3,2022.2.4,MacIntel,60.0024001,,,,,,down,0,1.7342,,-0.22885593,-0.281629571,1,0,0,0,175,175,95,1,vreten,images/br_vreten.png,images/cb_vreten.png,0,,,,,,,,,,,,,,,,,,,,,,
,,,,,00014,2023-09-01_15h55.27.476,vbt_B2_day3,2022.2.4,MacIntel,60.0024001,,,,,,down,0,8.7826,,-0.22885593,-0.281629571,1,0,0,0,176,176,155,1,gerucht,images/br_gerucht.png,images/cb_gerucht.png,0,,,,,,,,,,,,,,,,,,,,,,
,,,,,00014,2023-09-01_15h55.27.476,vbt_B2_day3,2022.2.4,MacIntel,60.0024001,,,,,,down,0,7.3509,,-0.22885593,-0.281629571,1,0,0,0,177,177,100,1,geduld,images/br_geduld.png,images/cb_geduld.png,1,geduld,,,,,,,,,,,,,,,,,,,,,
,,,,,00014,2023-09-01_15h55.27.476,vbt_B2_day3,2022.2.4,MacIntel,60.0024001,,,,,,down,0,9.4221,,-0.274859178,-0.472287869,1,0,0,0,178,178,199,1,beseffen,images/br_beseffen.png,images/cb_beseffen.png,0,,,,,,,,,,,,,,,,,,,,,,
,,,,,00014,2023-09-01_15h55.27.476,vbt_B2_day3,2022.2.4,MacIntel,60.0024001,,,,,,down,0,0.0346,,-0.27537913,-0.471735229,1,0,0,0,179,179,115,1,kleren,images/br_kleren.png,images/cb_kleren.png,0,,,,,,,,,,,,,,,,,,,,,,
,,,,,00014,2023-09-01_15h55.27.476,vbt_B2_day3,2022.2.4,MacIntel,60.0024001,,,,,,down,0,1.8686,,-0.27537913,-0.471735229,1,0,0,0,180,180,91,1,gezond,images/br_gezond.png,images/cb_gezond.png,0,,,,,,,,,,,,,,,,,,,,,,
,,,,,00014,2023-09-01_15h55.27.476,vbt_B2_day3,2022.2.4,MacIntel,60.0024001,,,,,,down,0,0.2666,,-0.275226983,-0.473354628,1,0,0,0,181,181,71,1,bever,images/br_bever.png,images/cb_bever.png,0,,,,,,,,,,,,,,,,,,,,,,
,,,,,00014,2023-09-01_15h55.27.476,vbt_B2_day3,2022.2.4,MacIntel,60.0024001,,,,,,down,0,8.1512,,-0.273418986,-0.477444051,1,0,0,0,182,182,153,1,vervoer,images/br_vervoer.png,images/cb_vervoer.png,0,,,,,,,,,,,,,,,,,,,,,,
,,,,,00014,2023-09-01_15h55.27.476,vbt_B2_day3,2022.2.4,MacIntel,60.0024001,,,,,,down,0,10.4662,,-0.27286343,-0.474573432,1,0,0,0,183,183,156,1,rechten,images/br_rechten.png,images/cb_rechten.png,0,,,,,,,,,,,,,,,,,,,,,,
,,,,,00014,2023-09-01_15h55.27.476,vbt_B2_day3,2022.2.4,MacIntel,60.0024001,,,,,,down,0,5.5841,,-0.271746318,-0.477063395,1,0,0,0,184,184,135,1,gedicht,images/br_gedicht.png,images/cb_gedicht.png,0,,,,,,,,,,,,,,,,,,,,,,
,,,,,00014,2023-09-01_15h55.27.476,vbt_B2_day3,2022.2.4,MacIntel,60.0024001,,,,,,down,0,6.833,,-0.267383491,-0.435953776,1,0,0,0,185,185,181,1,toegeven,images/br_toegeven.png,images/cb_toegeven.png,1,toegeven,,,,,,,,,,,,,,,,,,,,,
,,,,,00014,2023-09-01_15h55.27.476,vbt_B2_day3,2022.2.4,MacIntel,60.0024001,,,,,,down,0,2.7338,,-0.267383491,-0.435953776,1,0,0,0,186,186,138,1,akkoord,images/br_akkoord.png,images/cb_akkoord.png,0,,,,,,,,,,,,,,,,,,,,,,
,,,,,00014,2023-09-01_15h55.27.476,vbt_B2_day3,2022.2.4,MacIntel,60.0024001,,,,,,down,0,1.7173,,-0.264567295,-0.434283244,1,0,0,0,187,187,72,1,strak,images/br_strak.png,images/cb_strak.png,0,,,,,,,,,,,,,,,,,,,,,,
,,,,,00014,2023-09-01_15h55.27.476,vbt_B2_day3,2022.2.4,MacIntel,60.0024001,,,,,,down,0,4.0174,,-0.26343672,-0.43651652,1,0,0,0,188,188,179,1,woestijn,images/br_woestijn.png,images/cb_woestijn.png,0,,,,,,,,,,,,,,,,,,,,,,
,,,,,00014,2023-09-01_15h55.27.476,vbt_B2_day3,2022.2.4,MacIntel,60.0024001,,,,,,down,0,8.3059,,-0.261015828,-0.4394831,1,0,0,0,189,189,94,1,oceaan,images/br_oceaan.png,images/cb_oceaan.png,0,,,,,,,,,,,,,,,,,,,,,,
,,,,,00014,2023-09-01_15h55.27.476,vbt_B2_day3,2022.2.4,MacIntel,60.0024001,,,,,,down,0,1.8671,,-0.257192179,-0.445963745,1,0,0,0,190,190,45,1,piste,images/br_piste.png,images/cb_piste.png,0,,,,,,,,,,,,,,,,,,,,,,
,,,,,00014,2023-09-01_15h55.27.476,vbt_B2_day3,2022.2.4,MacIntel,60.0024001,,,,,,down,0,7.0511,,-0.256636624,-0.44573249,1,0,0,0,191,191,85,1,heilig,images/br_heilig.png,images/cb_heilig.png,0,,,,,,,,,,,,,,,,,,,,,,
,,,,,00014,2023-09-01_15h55.27.476,vbt_B2_day3,2022.2.4,MacIntel,60.0024001,,,,,,down,0,12.3006,,-0.249521179,-0.45447564,1,0,0,0,192,192,194,1,driemaal,images/br_driemaal.png,images/cb_driemaal.png,0,,,,,,,,,,,,,,,,,,,,,,
,,,,,00014,2023-09-01_15h55.27.476,vbt_B2_day3,2022.2.4,MacIntel,60.0024001,,,,,,down,0,1.0668,,-0.250139431,-0.461631741,1,0,0,0,193,193,74,1,graaf,images/br_graaf.png,images/cb_graaf.png,0,,,,,,,,,,,,,,,,,,,,,,
,,,,,00014,2023-09-01_15h55.27.476,vbt_B2_day3,2022.2.4,MacIntel,60.0024001,,,,,,down,0,1.6196,,-0.246860758,-0.46545322,1,0,0,0,194,194,26,1,leuk,images/br_leuk.png,images/cb_leuk.png,0,,,,,,,,,,,,,,,,,,,,,,
,,,,,00014,2023-09-01_15h55.27.476,vbt_B2_day3,2022.2.4,MacIntel,60.0024001,,,,,,down,0,2.4669,,-0.245061612,-0.468686659,1,0,0,0,195,195,89,1,slapen,images/br_slapen.png,images/cb_slapen.png,0,,,,,,,,,,,,,,,,,,,,,,
,,,,,00014,2023-09-01_15h55.27.476,vbt_B2_day3,2022.2.4,MacIntel,60.0024001,,,,,,down,0,2.935,,-0.242211812,-0.471648017,1,0,0,0,196,196,163,1,schuilen,images/br_schuilen.png,images/cb_schuilen.png,0,,,,,,,,,,,,,,,,,,,,,,
,,,,,00014,2023-09-01_15h55.27.476,vbt_B2_day3,2022.2.4,MacIntel,60.0024001,,,,,,down,0,2.5169,,-0.242689141,-0.474549357,1,0,0,0,197,197,42,1,bleek,images/br_bleek.png,images/cb_bleek.png,0,,,,,,,,,,,,,,,,,,,,,,
,,,,,00014,2023-09-01_15h55.27.476,vbt_B2_day3,2022.2.4,MacIntel,60.0024001,,,,,,down,0,4.4835,,-0.258486226,-0.491683892,1,0,0,0,198,198,128,1,prikken,images/br_prikken.png,images/cb_prikken.png,0,,,,,,,,,,,,,,,,,,,,,,
,,,,,00014,2023-09-01_15h55.27.476,vbt_B2_day3,2022.2.4,MacIntel,60.0024001,,,,,,down,0,0.2326,,-0.256810676,-0.493214789,1,0,0,0,199,199,19,1,geit,images/br_geit.png,images/cb_geit.png,0,,,,,,,,,,,,,,,,,,,,,,
,,,,,00014,2023-09-01_15h55.27.476,vbt_B2_day3,2022.2.4,MacIntel,60.0024001,,,,,,,,,,,,,,,,,,,,,,,,,-0.256810676,-0.493770345,1,0,0,,,,,,,,,,,,,,,,
,,,,,00014,2023-09-01_15h55.27.476,vbt_B2_day3,2022.2.4,MacIntel,60.0024001,,,,,,,,,,,,,,,,,,,,,,,,,,,,,,-0.256810676,-0.493770345,1,0,0,,,,,,,,,,,
,,,,,00014,2023-09-01_15h55.27.476,vbt_B2_day3,2022.2.4,MacIntel,60.0024001,,,,,,,,,,,,,,,,,,,,hier,images/br_hier.png,images/cb_hier.png,,hier,,,,,,,,,,,-0.109700521,-0.125015327,1,0,0,hier,0,0,0,1,1
,,,,,00014,2023-09-01_15h55.27.476,vbt_B2_day3,2022.2.4,MacIntel,60.0024001,,,,,,,,,,,,,,,,,,,,opzetten,images/br_opzetten.png,images/cb_opzetten.png,,opzetten,,,,,,,,,,,0.120318671,-0.066311849,1,0,0,opzetten,0,1,1,56,1
,,,,,00014,2023-09-01_15h55.27.476,vbt_B2_day3,2022.2.4,MacIntel,60.0024001,,,,,,,,,,,,,,,,,,,,hint,images/br_hint.png,images/cb_hint.png,,hint,,,,,,,,,,,0.118641086,0.188797777,1,0,0,hint,0,2,2,43,1
,,,,,00014,2023-09-01_15h55.27.476,vbt_B2_day3,2022.2.4,MacIntel,60.0024001,,,,,,,,,,,,,,,,,,,,verwoor,images/br_verwoor.png,images/cb_verwoor.png,,verwoor,,,,,,,,,,,0.003958808,-0.209335259,1,0,0,verwoor,0,3,3,32,1
,,,,,00014,2023-09-01_15h55.27.476,vbt_B2_day3,2022.2.4,MacIntel,60.0024001,,,,,,,,,,,,,,,,,,,,theeting,images/br_theeting.png,images/cb_theeting.png,,thee....,,,,,,,,,,,-0.000953912,-0.130704888,1,0,0,thee....,0,4,4,38,1
,,,,,00014,2023-09-01_15h55.27.476,vbt_B2_day3,2022.2.4,MacIntel,60.0024001,,,,,,,,,,,,,,,,,,,,boeien,images/br_boeien.png,images/cb_boeien.png,,boeien,,,,,,,,,,,0.143307359,-0.035546366,1,0,0,boeien,0,5,5,8,1
,,,,,00014,2023-09-01_15h55.27.476,vbt_B2_day3,2022.2.4,MacIntel,60.0024001,,,,,,,,,,,,,,,,,,,,sultan,images/br_sultan.png,images/cb_sultan.png,,sultan,,,,,,,,,,,0.081600206,-0.04252204,1,0,0,sultan,0,6,6,49,1
,,,,,00014,2023-09-01_15h55.27.476,vbt_B2_day3,2022.2.4,MacIntel,60.0024001,,,,,,,,,,,,,,,,,,,,uviek,images/br_uviek.png,images/cb_uviek.png,,uviek,,,,,,,,,,,0.083338352,-0.058587613,1,0,0,uviek,0,7,7,25,1
,,,,,00014,2023-09-01_15h55.27.476,vbt_B2_day3,2022.2.4,MacIntel,60.0024001,,,,,,,,,,,,,,,,,,,,makieren,images/br_makieren.png,images/cb_makieren.png,,makiraal,,,,,,,,,,,0.086520928,-0.059464247,1,0,0,makiraal,0,8,8,36,1
,,,,,00014,2023-09-01_15h55.27.476,vbt_B2_day3,2022.2.4,MacIntel,60.0024001,,,,,,,,,,,,,,,,,,,,stoom,images/br_stoom.png,images/cb_stoom.png,,stoom,,,,,,,,,,,0.094015299,-0.071765883,1,0,0,stoom,0,9,9,6,1
,,,,,00014,2023-09-01_15h55.27.476,vbt_B2_day3,2022.2.4,MacIntel,60.0024001,,,,,,,,,,,,,,,,,,,,onrecht,images/br_onrecht.png,images/cb_onrecht.png,,ontech.,,,,,,,,,,,0.070631917,0.010230984,1,0,0,ontech.,0,10,10,55,1
,,,,,00014,2023-09-01_15h55.27.476,vbt_B2_day3,2022.2.4,MacIntel,60.0024001,,,,,,,,,,,,,,,,,,,,paken,images/br_paken.png,images/cb_paken.png,,paken,,,,,,,,,,,-0.025712891,-0.047238091,1,0,0,paken,0,11,11,27,1
,,,,,00014,2023-09-01_15h55.27.476,vbt_B2_day3,2022.2.4,MacIntel,60.0024001,,,,,,,,,,,,,,,,,,,,mode,images/br_mode.png,images/cb_mode.png,,mode,,,,,,,,,,,0.022354872,-0.018764547,1,0,0,mode,0,12,12,3,1
,,,,,00014,2023-09-01_15h55.27.476,vbt_B2_day3,2022.2.4,MacIntel,60.0024001,,,,,,,,,,,,,,,,,,,,zone,images/br_zone.png,images/cb_zone.png,,zone,,,,,,,,,,,0.073767836,-0.05923957,1,0,0,zone,0,13,13,41,1
,,,,,00014,2023-09-01_15h55.27.476,vbt_B2_day3,2022.2.4,MacIntel,60.0024001,,,,,,,,,,,,,,,,,,,,kwaas,images/br_kwaas.png,images/cb_kwaas.png,,kwaas,,,,,,,,,,,0.073767836,-0.05923957,1,0,0,kwaas,0,14,14,26,1
,,,,,00014,2023-09-01_15h55.27.476,vbt_B2_day3,2022.2.4,MacIntel,60.0024001,,,,,,,,,,,,,,,,,,,,leek,images/br_leek.png,images/cb_leek.png,,leek,,,,,,,,,,,0.073767836,-0.05923957,1,0,0,leek,0,15,15,2,1
,,,,,00014,2023-09-01_15h55.27.476,vbt_B2_day3,2022.2.4,MacIntel,60.0024001,,,,,,,,,,,,,,,,,,,,uniek,images/br_uniek.png,images/cb_uniek.png,,uniek,,,,,,,,,,,0.040336032,-0.102883165,1,0,0,uniek,0,16,16,46,1
,,,,,00014,2023-09-01_15h55.27.476,vbt_B2_day3,2022.2.4,MacIntel,60.0024001,,,,,,,,,,,,,,,,,,,,leugeren,images/br_leugeren.png,images/cb_leugeren.png,,leug....,,,,,,,,,,,-0.091443142,-0.055562778,1,0,0,leug....,0,17,17,37,1
,,,,,00014,2023-09-01_15h55.27.476,vbt_B2_day3,2022.2.4,MacIntel,60.0024001,,,,,,,,,,,,,,,,,,,,steel,images/br_steel.png,images/cb_steel.png,,steel,,,,,,,,,,,-0.091443142,-0.055562778,1,0,0,steel,0,18,18,4,1
,,,,,00014,2023-09-01_15h55.27.476,vbt_B2_day3,2022.2.4,MacIntel,60.0024001,,,,,,,,,,,,,,,,,,,,knie,images/br_knie.png,images/cb_knie.png,,knie,,,,,,,,,,,-0.091443142,-0.055562778,1,0,0,knie,0,19,19,0,1
,,,,,00014,2023-09-01_15h55.27.476,vbt_B2_day3,2022.2.4,MacIntel,60.0024001,,,,,,,,,,,,,,,,,,,,eens,images/br_eens.png,images/cb_eens.png,,eens,,,,,,,,,,,-0.091443142,-0.055562778,1,0,0,eens,0,20,20,40,1
,,,,,00014,2023-09-01_15h55.27.476,vbt_B2_day3,2022.2.4,MacIntel,60.0024001,,,,,,,,,,,,,,,,,,,,croo,images/br_croo.png,images/cb_croo.png,,sroo,,,,,,,,,,,-0.079813843,-0.033979085,1,0,0,sroo,0,21,21,22,1
,,,,,00014,2023-09-01_15h55.27.476,vbt_B2_day3,2022.2.4,MacIntel,60.0024001,,,,,,,,,,,,,,,,,,,,aarzelen,images/br_aarzelen.png,images/cb_aarzelen.png,,aarzelen,,,,,,,,,,,-0.05130188,-0.035490316,1,0,0,aarzelen,0,22,22,19,1
,,,,,00014,2023-09-01_15h55.27.476,vbt_B2_day3,2022.2.4,MacIntel,60.0024001,,,,,,,,,,,,,,,,,,,,gout,images/br_gout.png,images/cb_gout.png,,gout,,,,,,,,,,,0.026424221,-0.048416273,1,0,0,gout,0,23,23,20,1
,,,,,00014,2023-09-01_15h55.27.476,vbt_B2_day3,2022.2.4,MacIntel,60.0024001,,,,,,,,,,,,,,,,,,,,oprotten,images/br_oprotten.png,images/cb_oprotten.png,,oprotten,,,,,,,,,,,0.026424221,-0.048416273,1,0,0,oprotten,0,24,24,17,1
,,,,,00014,2023-09-01_15h55.27.476,vbt_B2_day3,2022.2.4,MacIntel,60.0024001,,,,,,,,,,,,,,,,,,,,prikken,images/br_prikken.png,images/cb_prikken.png,,prikken,,,,,,,,,,,0.040437419,-0.056386515,1,0,0,prikken,0,25,25,12,1
,,,,,00014,2023-09-01_15h55.27.476,vbt_B2_day3,2022.2.4,MacIntel,60.0024001,,,,,,,,,,,,,,,,,,,,twaaf,images/br_twaaf.png,images/cb_twaaf.png,,twaaf,,,,,,,,,,,0.046068793,-0.047385525,1,0,0,twaaf,0,26,26,24,1
,,,,,00014,2023-09-01_15h55.27.476,vbt_B2_day3,2022.2.4,MacIntel,60.0024001,,,,,,,,,,,,,,,,,,,,keihard,images/br_keihard.png,images/cb_keihard.png,,keijaar.,,,,,,,,,,,2.0006E-05,-0.031234606,1,0,0,keijaar.,0,27,27,14,1
,,,,,00014,2023-09-01_15h55.27.476,vbt_B2_day3,2022.2.4,MacIntel,60.0024001,,,,,,,,,,,,,,,,,,,,sluier,images/br_sluier.png,images/cb_sluier.png,,sluier,,,,,,,,,,,0.081744724,-0.041123725,1,0,0,sluier,0,28,28,50,1
,,,,,00014,2023-09-01_15h55.27.476,vbt_B2_day3,2022.2.4,MacIntel,60.0024001,,,,,,,,,,,,,,,,,,,,schatten,images/br_schatten.png,images/cb_schatten.png,,schatter..,,,,,,,,,,,0.110757921,-0.04592787,1,0,0,schatter..,0,29,29,18,1
,,,,,00014,2023-09-01_15h55.27.476,vbt_B2_day3,2022.2.4,MacIntel,60.0024001,,,,,,,,,,,,,,,,,,,,leemaken,images/br_leemaken.png,images/cb_leemaken.png,,leema..,,,,,,,,,,,-0.181211209,-0.035807902,1,0,0,leema..,0,30,30,39,1
,,,,,00014,2023-09-01_15h55.27.476,vbt_B2_day3,2022.2.4,MacIntel,60.0024001,,,,,,,,,,,,,,,,,,,,gezond,images/br_gezond.png,images/cb_gezond.png,,genond,,,,,,,,,,,-0.181211209,-0.035807902,1,0,0,genond,0,31,31,11,1
,,,,,00014,2023-09-01_15h55.27.476,vbt_B2_day3,2022.2.4,MacIntel,60.0024001,,,,,,,,,,,,,,,,,,,,stallen,images/br_stallen.png,images/cb_stallen.png,,stallen,,,,,,,,,,,-0.119352417,-0.041707865,1,0,0,stallen,0,32,32,52,1
,,,,,00014,2023-09-01_15h55.27.476,vbt_B2_day3,2022.2.4,MacIntel,60.0024001,,,,,,,,,,,,,,,,,,,,verhaal,images/br_verhaal.png,images/cb_verhaal.png,,verhaal,,,,,,,,,,,-0.119616225,-0.040878296,1,0,0,verhaal,0,33,33,13,1
,,,,,00014,2023-09-01_15h55.27.476,vbt_B2_day3,2022.2.4,MacIntel,60.0024001,,,,,,,,,,,,,,,,,,,,bevret,images/br_bevret.png,images/cb_bevret.png,,bevret,,,,,,,,,,,-0.03234904,-0.021690538,1,0,0,bevret,0,34,34,30,1
,,,,,00014,2023-09-01_15h55.27.476,vbt_B2_day3,2022.2.4,MacIntel,60.0024001,,,,,,,,,,,,,,,,,,,,mugeek,images/br_mugeek.png,images/cb_mugeek.png,,mugeek,,,,,,,,,,,-0.09952162,-0.037946777,1,0,0,mugeek,0,35,35,29,1
,,,,,00014,2023-09-01_15h55.27.476,vbt_B2_day3,2022.2.4,MacIntel,60.0024001,,,,,,,,,,,,,,,,,,,,alsof,images/br_alsof.png,images/cb_alsof.png,,alsof,,,,,,,,,,,0.038954468,-0.041586405,1,0,0,alsof,0,36,36,44,1
,,,,,00014,2023-09-01_15h55.27.476,vbt_B2_day3,2022.2.4,MacIntel,60.0024001,,,,,,,,,,,,,,,,,,,,laken,images/br_laken.png,images/cb_laken.png,,laken,,,,,,,,,,,0.007002903,-0.041451213,1,0,0,laken,0,37,37,5,1
,,,,,00014,2023-09-01_15h55.27.476,vbt_B2_day3,2022.2.4,MacIntel,60.0024001,,,,,,,,,,,,,,,,,,,,beslag,images/br_beslag.png,images/cb_beslag.png,,beslag,,,,,,,,,,,0.084488729,-0.091995782,1,0,0,beslag,0,38,38,51,1
,,,,,00014,2023-09-01_15h55.27.476,vbt_B2_day3,2022.2.4,MacIntel,60.0024001,,,,,,,,,,,,,,,,,,,,stikken,images/br_stikken.png,images/cb_stikken.png,,stikken,,,,,,,,,,,0.084488729,-0.091995782,1,0,0,stikken,0,39,39,54,1
,,,,,00014,2023-09-01_15h55.27.476,vbt_B2_day3,2022.2.4,MacIntel,60.0024001,,,,,,,,,,,,,,,,,,,,kest,images/br_kest.png,images/cb_kest.png,,kest,,,,,,,,,,,0.084488729,-0.091995782,1,0,0,kest,0,40,40,21,1
,,,,,00014,2023-09-01_15h55.27.476,vbt_B2_day3,2022.2.4,MacIntel,60.0024001,,,,,,,,,,,,,,,,,,,,vlager,images/br_vlager.png,images/cb_vlager.png,,vlager,,,,,,,,,,,0.084488729,-0.091995782,1,0,0,vlager,0,41,41,28,1
,,,,,00014,2023-09-01_15h55.27.476,vbt_B2_day3,2022.2.4,MacIntel,60.0024001,,,,,,,,,,,,,,,,,,,,brappen,images/br_brappen.png,images/cb_brappen.png,,brappen,,,,,,,,,,,0.084488729,-0.091995782,1,0,0,brappen,0,42,42,35,1
,,,,,00014,2023-09-01_15h55.27.476,vbt_B2_day3,2022.2.4,MacIntel,60.0024001,,,,,,,,,,,,,,,,,,,,verraden,images/br_verraden.png,images/cb_verraden.png,,verraden,,,,,,,,,,,0.095321113,-0.036723056,1,0,0,verraden,0,43,43,58,1
,,,,,00014,2023-09-01_15h55.27.476,vbt_B2_day3,2022.2.4,MacIntel,60.0024001,,,,,,,,,,,,,,,,,,,,kaas,images/br_kaas.png,images/cb_kaas.png,,kaas,,,,,,,,,,,0.041887614,-0.046434055,1,0,0,kaas,0,44,44,42,1
,,,,,00014,2023-09-01_15h55.27.476,vbt_B2_day3,2022.2.4,MacIntel,60.0024001,,,,,,,,,,,,,,,,,,,,afbopen,images/br_afbopen.png,images/cb_afbopen.png,,afboren,,,,,,,,,,,0.052013482,-0.057818129,1,0,0,afboren,0,45,45,34,1
,,,,,00014,2023-09-01_15h55.27.476,vbt_B2_day3,2022.2.4,MacIntel,60.0024001,,,,,,,,,,,,,,,,,,,,invallen,images/br_invallen.png,images/cb_invallen.png,,invallen,,,,,,,,,,,0.113092177,-0.139070435,1,0,0,invallen,0,46,46,57,1
,,,,,00014,2023-09-01_15h55.27.476,vbt_B2_day3,2022.2.4,MacIntel,60.0024001,,,,,,,,,,,,,,,,,,,,slapen,images/br_slapen.png,images/cb_slapen.png,,slapen,,,,,,,,,,,0.160187174,-0.111217448,1,0,0,slapen,0,47,47,9,1
,,,,,00014,2023-09-01_15h55.27.476,vbt_B2_day3,2022.2.4,MacIntel,60.0024001,,,,,,,,,,,,,,,,,,,,schodel,images/br_schodel.png,images/cb_schodel.png,,schode.,,,,,,,,,,,0.193397013,-0.190439724,1,0,0,schode.,0,48,48,33,1
,,,,,00014,2023-09-01_15h55.27.476,vbt_B2_day3,2022.2.4,MacIntel,60.0024001,,,,,,,,,,,,,,,,,,,,booien,images/br_booien.png,images/cb_booien.png,,booien,,,,,,,,,,,0.14216173,-0.056587321,1,0,0,booien,0,49,49,31,1
,,,,,00014,2023-09-01_15h55.27.476,vbt_B2_day3,2022.2.4,MacIntel,60.0024001,,,,,,,,,,,,,,,,,,,,begrip,images/br_begrip.png,images/cb_begrip.png,,begrip,,,,,,,,,,,-0.004412774,-0.047178989,1,0,0,begrip,0,50,50,48,1
,,,,,00014,2023-09-01_15h55.27.476,vbt_B2_day3,2022.2.4,MacIntel,60.0024001,,,,,,,,,,,,,,,,,,,,samen,images/br_samen.png,images/cb_samen.png,,samen,,,,,,,,,,,0.169063992,-0.286273872,1,0,0,samen,0,51,51,7,1
,,,,,00014,2023-09-01_15h55.27.476,vbt_B2_day3,2022.2.4,MacIntel,60.0024001,,,,,,,,,,,,,,,,,,,,dwang,images/br_dwang.png,images/cb_dwang.png,,dwang,,,,,,,,,,,0.169063992,-0.286273872,1,0,0,dwang,0,52,52,47,1
,,,,,00014,2023-09-01_15h55.27.476,vbt_B2_day3,2022.2.4,MacIntel,60.0024001,,,,,,,,,,,,,,,,,,,,bisschop,images/br_bisschop.png,images/cb_bisschop.png,,besch..,,,,,,,,,,,0.169063992,-0.286273872,1,0,0,besch..,0,53,53,16,1
,,,,,00014,2023-09-01_15h55.27.476,vbt_B2_day3,2022.2.4,MacIntel,60.0024001,,,,,,,,,,,,,,,,,,,,hust,images/br_hust.png,images/cb_hust.png,,hust,,,,,,,,,,,0.054896783,-0.030815701,1,0,0,hust,0,54,54,23,1
,,,,,00014,2023-09-01_15h55.27.476,vbt_B2_day3,2022.2.4,MacIntel,60.0024001,,,,,,,,,,,,,,,,,,,,jongelui,images/br_jongelui.png,images/cb_jongelui.png,,jongelui,,,,,,,,,,,0.054896783,-0.030815701,1,0,0,jongelui,0,55,55,59,1
,,,,,00014,2023-09-01_15h55.27.476,vbt_B2_day3,2022.2.4,MacIntel,60.0024001,,,,,,,,,,,,,,,,,,,,glijden,images/br_glijden.png,images/cb_glijden.png,,glijden,,,,,,,,,,,0.054896783,-0.030815701,1,0,0,glijden,0,56,56,53,1
,,,,,00014,2023-09-01_15h55.27.476,vbt_B2_day3,2022.2.4,MacIntel,60.0024001,,,,,,,,,,,,,,,,,,,,geluid,images/br_geluid.png,images/cb_geluid.png,,geluid,,,,,,,,,,,0.108924493,-0.074021674,1,0,0,geluid,0,57,57,10,1
,,,,,00014,2023-09-01_15h55.27.476,vbt_B2_day3,2022.2.4,MacIntel,60.0024001,,,,,,,,,,,,,,,,,,,,gebod,images/br_gebod.png,images/cb_gebod.png,,gebod,,,,,,,,,,,-0.012765164,-0.021822917,1,0,0,gebod,0,58,58,45,1
,,,,,00014,2023-09-01_15h55.27.476,vbt_B2_day3,2022.2.4,MacIntel,60.0024001,,,,,,,,,,,,,,,,,,,,opzicht,images/br_opzicht.png,images/cb_opzicht.png,,opzicht,,,,,,,,,,,-0.082397054,-0.043495382,1,0,0,opzicht,0,59,59,15,1
,,,,,00014,2023-09-01_15h55.27.476,vbt_B2_day3,2022.2.4,MacIntel,60.0024001,,,,,,,,,,,,,,,,,,,,,,,,,,,,,,,,,,,,,,,,,,,,,
