welcome_mouse.x,welcome_mouse.y,welcome_mouse.leftButton,welcome_mouse.midButton,welcome_mouse.rightButton,"ID",date,expName,psychopyVersion,OS,frameRate,trainInstr_mouse.x,trainInstr_mouse.y,trainInstr_mouse.leftButton,trainInstr_mouse.midButton,trainInstr_mouse.rightButton,translation_key.keys,translation_key.corr,translation_key.rt,word_rsp.text,trWrd_mouse.x,trWrd_mouse.y,trWrd_mouse.leftButton,trWrd_mouse.midButton,trWrd_mouse.rightButton,train_loop.thisRepN,train_loop.thisTrialN,train_loop.thisN,train_loop.thisIndex,train_loop.ran,nlWrd,brWrd,cbWrd,test,testResp,mouse.x,mouse.y,mouse.leftButton,mouse.midButton,mouse.rightButton,testInstr_mouse.x,testInstr_mouse.y,testInstr_mouse.leftButton,testInstr_mouse.midButton,testInstr_mouse.rightButton,test_mouse.x,test_mouse.y,test_mouse.leftButton,test_mouse.midButton,test_mouse.rightButton,test_response.text,test_loop.thisRepN,test_loop.thisTrialN,test_loop.thisN,test_loop.thisIndex,test_loop.ran
-0.167777778,-0.257777778,1,0,0,00051,2023-10-15_16h50.38.331,vbt_B2_day3,2022.2.4,MacIntel,55.55555556,,,,,,,,,,,,,,,,,,,,,,,,,,,,,,,,,,,,,,,,,,,,,
,,,,,00051,2023-10-15_16h50.38.331,vbt_B2_day3,2022.2.4,MacIntel,55.55555556,-0.167777778,-0.257777778,1,0,0,,,,,,,,,,,,,,,,,,,,,,,,,,,,,,,,,,,,,,,,
,,,,,00051,2023-10-15_16h50.38.331,vbt_B2_day3,2022.2.4,MacIntel,55.55555556,,,,,,down,0,1.856,,-0.167777778,-0.257777778,1,0,0,0,0,0,58,1,tekst,images/br_tekst.png,images/cb_tekst.png,0,,,,,,,,,,,,,,,,,,,,,,
,,,,,00051,2023-10-15_16h50.38.331,vbt_B2_day3,2022.2.4,MacIntel,55.55555556,,,,,,down,0,3.04,,-0.167777778,-0.257777778,1,0,0,0,1,1,193,1,weeshuis,images/br_weeshuis.png,images/cb_weeshuis.png,0,,,,,,,,,,,,,,,,,,,,,,
,,,,,00051,2023-10-15_16h50.38.331,vbt_B2_day3,2022.2.4,MacIntel,55.55555556,,,,,,down,0,3.536,,-0.167777778,-0.257777778,1,0,0,0,2,2,154,1,aflopen,images/br_aflopen.png,images/cb_aflopen.png,0,,,,,,,,,,,,,,,,,,,,,,
,,,,,00051,2023-10-15_16h50.38.331,vbt_B2_day3,2022.2.4,MacIntel,55.55555556,,,,,,down,0,0.97,,-0.167777778,-0.257777778,1,0,0,0,3,3,30,1,uien,images/br_uien.png,images/cb_uien.png,0,,,,,,,,,,,,,,,,,,,,,,
,,,,,00051,2023-10-15_16h50.38.331,vbt_B2_day3,2022.2.4,MacIntel,55.55555556,,,,,,down,0,3.488,,-0.165555556,-0.258888889,1,0,0,0,4,4,40,1,schep,images/br_schep.png,images/cb_schep.png,0,,,,,,,,,,,,,,,,,,,,,,
,,,,,00051,2023-10-15_16h50.38.331,vbt_B2_day3,2022.2.4,MacIntel,55.55555556,,,,,,down,0,0.386,,-0.165555556,-0.258888889,1,0,0,0,5,5,18,1,blik,images/br_blik.png,images/cb_blik.png,0,,,,,,,,,,,,,,,,,,,,,,
,,,,,00051,2023-10-15_16h50.38.331,vbt_B2_day3,2022.2.4,MacIntel,55.55555556,,,,,,down,0,0.387,,-0.165555556,-0.257777778,1,0,0,0,6,6,0,1,slak,images/br_slak.png,images/cb_slak.png,0,,,,,,,,,,,,,,,,,,,,,,
,,,,,00051,2023-10-15_16h50.38.331,vbt_B2_day3,2022.2.4,MacIntel,55.55555556,,,,,,down,0,0.82,,-0.165555556,-0.256666667,1,0,0,0,7,7,171,1,aarzelen,images/br_aarzelen.png,images/cb_aarzelen.png,0,,,,,,,,,,,,,,,,,,,,,,
,,,,,00051,2023-10-15_16h50.38.331,vbt_B2_day3,2022.2.4,MacIntel,55.55555556,,,,,,down,0,1.374,,-0.165555556,-0.256666667,1,0,0,0,8,8,174,1,stemming,images/br_stemming.png,images/cb_stemming.png,0,,,,,,,,,,,,,,,,,,,,,,
,,,,,00051,2023-10-15_16h50.38.331,vbt_B2_day3,2022.2.4,MacIntel,55.55555556,,,,,,down,0,1.253,,-0.165555556,-0.256666667,1,0,0,0,9,9,99,1,koffie,images/br_koffie.png,images/cb_koffie.png,0,,,,,,,,,,,,,,,,,,,,,,
,,,,,00051,2023-10-15_16h50.38.331,vbt_B2_day3,2022.2.4,MacIntel,55.55555556,,,,,,down,0,1.805,,-0.165555556,-0.256666667,1,0,0,0,10,10,137,1,trekker,images/br_trekker.png,images/cb_trekker.png,0,,,,,,,,,,,,,,,,,,,,,,
,,,,,00051,2023-10-15_16h50.38.331,vbt_B2_day3,2022.2.4,MacIntel,55.55555556,,,,,,down,0,0.387,,-0.165555556,-0.256666667,1,0,0,0,11,11,96,1,slagen,images/br_slagen.png,images/cb_slagen.png,0,,,,,,,,,,,,,,,,,,,,,,
,,,,,00051,2023-10-15_16h50.38.331,vbt_B2_day3,2022.2.4,MacIntel,55.55555556,,,,,,down,0,5.124,,0.305555556,-0.145555556,1,0,0,0,12,12,180,1,openbaar,images/br_openbaar.png,images/cb_openbaar.png,1,openbaar,,,,,,,,,,,,,,,,,,,,,
,,,,,00051,2023-10-15_16h50.38.331,vbt_B2_day3,2022.2.4,MacIntel,55.55555556,,,,,,down,0,3.289,,0.253333333,-0.234444444,1,0,0,0,13,13,60,1,jasje,images/br_jasje.png,images/cb_jasje.png,1,jasje,,,,,,,,,,,,,,,,,,,,,
,,,,,00051,2023-10-15_16h50.38.331,vbt_B2_day3,2022.2.4,MacIntel,55.55555556,,,,,,down,0,0.387,,0.253333333,-0.234444444,1,0,0,0,14,14,89,1,slapen,images/br_slapen.png,images/cb_slapen.png,0,,,,,,,,,,,,,,,,,,,,,,
,,,,,00051,2023-10-15_16h50.38.331,vbt_B2_day3,2022.2.4,MacIntel,55.55555556,,,,,,down,0,0.211,,0.253333333,-0.234444444,1,0,0,0,15,15,42,1,bleek,images/br_bleek.png,images/cb_bleek.png,0,,,,,,,,,,,,,,,,,,,,,,
,,,,,00051,2023-10-15_16h50.38.331,vbt_B2_day3,2022.2.4,MacIntel,55.55555556,,,,,,down,0,1.621,,0.255555556,-0.235555556,1,0,0,0,16,16,44,1,flits,images/br_flits.png,images/cb_flits.png,0,,,,,,,,,,,,,,,,,,,,,,
,,,,,00051,2023-10-15_16h50.38.331,vbt_B2_day3,2022.2.4,MacIntel,55.55555556,,,,,,down,0,0.034,,0.257777778,-0.236666667,1,0,0,0,17,17,126,1,kasteel,images/br_kasteel.png,images/cb_kasteel.png,0,,,,,,,,,,,,,,,,,,,,,,
,,,,,00051,2023-10-15_16h50.38.331,vbt_B2_day3,2022.2.4,MacIntel,55.55555556,,,,,,down,0,4.422,,0.257777778,-0.236666667,1,0,0,0,18,18,79,1,nodig,images/br_nodig.png,images/cb_nodig.png,0,,,,,,,,,,,,,,,,,,,,,,
,,,,,00051,2023-10-15_16h50.38.331,vbt_B2_day3,2022.2.4,MacIntel,55.55555556,,,,,,down,0,3.156,,0.241111111,-0.25,1,0,0,0,19,19,194,1,driemaal,images/br_driemaal.png,images/cb_driemaal.png,0,,,,,,,,,,,,,,,,,,,,,,
,,,,,00051,2023-10-15_16h50.38.331,vbt_B2_day3,2022.2.4,MacIntel,55.55555556,,,,,,down,0,4.272,,0.288888889,-0.252222222,1,0,0,0,20,20,181,1,toegeven,images/br_toegeven.png,images/cb_toegeven.png,1,toegeven,,,,,,,,,,,,,,,,,,,,,
,,,,,00051,2023-10-15_16h50.38.331,vbt_B2_day3,2022.2.4,MacIntel,55.55555556,,,,,,down,0,0.022,,0.29,-0.253333333,1,0,0,0,21,21,39,1,laag,images/br_laag.png,images/cb_laag.png,0,,,,,,,,,,,,,,,,,,,,,,
,,,,,00051,2023-10-15_16h50.38.331,vbt_B2_day3,2022.2.4,MacIntel,55.55555556,,,,,,down,0,1.884,,0.29,-0.253333333,1,0,0,0,22,22,158,1,innemen,images/br_innemen.png,images/cb_innemen.png,0,,,,,,,,,,,,,,,,,,,,,,
,,,,,00051,2023-10-15_16h50.38.331,vbt_B2_day3,2022.2.4,MacIntel,55.55555556,,,,,,down,0,6.639,,0.29,-0.253333333,1,0,0,0,23,23,198,1,bedoelen,images/br_bedoelen.png,images/cb_bedoelen.png,0,,,,,,,,,,,,,,,,,,,,,,
,,,,,00051,2023-10-15_16h50.38.331,vbt_B2_day3,2022.2.4,MacIntel,55.55555556,,,,,,down,0,2.57,,0.29,-0.253333333,1,0,0,0,24,24,94,1,oceaan,images/br_oceaan.png,images/cb_oceaan.png,0,,,,,,,,,,,,,,,,,,,,,,
,,,,,00051,2023-10-15_16h50.38.331,vbt_B2_day3,2022.2.4,MacIntel,55.55555556,,,,,,down,0,0.928,,0.446666667,-0.251111111,1,0,0,0,25,25,141,1,knielen,images/br_knielen.png,images/cb_knielen.png,1,knielen,,,,,,,,,,,,,,,,,,,,,
,,,,,00051,2023-10-15_16h50.38.331,vbt_B2_day3,2022.2.4,MacIntel,55.55555556,,,,,,down,0,7.207,,0.446666667,-0.251111111,1,0,0,0,26,26,157,1,uitlaat,images/br_uitlaat.png,images/cb_uitlaat.png,0,,,,,,,,,,,,,,,,,,,,,,
,,,,,00051,2023-10-15_16h50.38.331,vbt_B2_day3,2022.2.4,MacIntel,55.55555556,,,,,,down,0,0.905,,0.446666667,-0.251111111,1,0,0,0,27,27,68,1,schat,images/br_schat.png,images/cb_schat.png,0,,,,,,,,,,,,,,,,,,,,,,
,,,,,00051,2023-10-15_16h50.38.331,vbt_B2_day3,2022.2.4,MacIntel,55.55555556,,,,,,down,0,2.011,,0.446666667,-0.251111111,1,0,0,0,28,28,184,1,aandelen,images/br_aandelen.png,images/cb_aandelen.png,0,,,,,,,,,,,,,,,,,,,,,,
,,,,,00051,2023-10-15_16h50.38.331,vbt_B2_day3,2022.2.4,MacIntel,55.55555556,,,,,,down,0,0.488,,0.446666667,-0.251111111,1,0,0,0,29,29,166,1,strikken,images/br_strikken.png,images/cb_strikken.png,0,,,,,,,,,,,,,,,,,,,,,,
,,,,,00051,2023-10-15_16h50.38.331,vbt_B2_day3,2022.2.4,MacIntel,55.55555556,,,,,,down,0,0.919,,0.446666667,-0.251111111,1,0,0,0,30,30,56,1,traag,images/br_traag.png,images/cb_traag.png,0,,,,,,,,,,,,,,,,,,,,,,
,,,,,00051,2023-10-15_16h50.38.331,vbt_B2_day3,2022.2.4,MacIntel,55.55555556,,,,,,down,0,0.454,,0.446666667,-0.243333333,1,0,0,0,31,31,46,1,jagen,images/br_jagen.png,images/cb_jagen.png,0,,,,,,,,,,,,,,,,,,,,,,
,,,,,00051,2023-10-15_16h50.38.331,vbt_B2_day3,2022.2.4,MacIntel,55.55555556,,,,,,down,0,5.605,,0.505555556,-0.247777778,1,0,0,0,32,32,143,1,hechten,images/br_hechten.png,images/cb_hechten.png,1,hechten,,,,,,,,,,,,,,,,,,,,,
,,,,,00051,2023-10-15_16h50.38.331,vbt_B2_day3,2022.2.4,MacIntel,55.55555556,,,,,,down,0,1.772,,0.505555556,-0.247777778,1,0,0,0,33,33,24,1,jurk,images/br_jurk.png,images/cb_jurk.png,0,,,,,,,,,,,,,,,,,,,,,,
,,,,,00051,2023-10-15_16h50.38.331,vbt_B2_day3,2022.2.4,MacIntel,55.55555556,,,,,,down,0,1.152,,0.505555556,-0.247777778,1,0,0,0,34,34,53,1,baron,images/br_baron.png,images/cb_baron.png,0,,,,,,,,,,,,,,,,,,,,,,
,,,,,00051,2023-10-15_16h50.38.331,vbt_B2_day3,2022.2.4,MacIntel,55.55555556,,,,,,down,0,1.694,,0.505555556,-0.247777778,1,0,0,0,35,35,34,1,vorm,images/br_vorm.png,images/cb_vorm.png,0,,,,,,,,,,,,,,,,,,,,,,
,,,,,00051,2023-10-15_16h50.38.331,vbt_B2_day3,2022.2.4,MacIntel,55.55555556,,,,,,down,0,8.939,,0.485555556,0.153333333,1,0,0,0,36,36,147,1,komisch,images/br_komisch.png,images/cb_komisch.png,0,,,,,,,,,,,,,,,,,,,,,,
,,,,,00051,2023-10-15_16h50.38.331,vbt_B2_day3,2022.2.4,MacIntel,55.55555556,,,,,,down,0,3.92,,0.485555556,0.153333333,1,0,0,0,37,37,7,1,geld,images/br_geld.png,images/cb_geld.png,0,,,,,,,,,,,,,,,,,,,,,,
,,,,,00051,2023-10-15_16h50.38.331,vbt_B2_day3,2022.2.4,MacIntel,55.55555556,,,,,,down,0,3.4,,0.485555556,0.153333333,1,0,0,0,38,38,156,1,rechten,images/br_rechten.png,images/cb_rechten.png,0,,,,,,,,,,,,,,,,,,,,,,
,,,,,00051,2023-10-15_16h50.38.331,vbt_B2_day3,2022.2.4,MacIntel,55.55555556,,,,,,down,0,2.878,,0.485555556,0.153333333,1,0,0,0,39,39,173,1,apparaat,images/br_apparaat.png,images/cb_apparaat.png,0,,,,,,,,,,,,,,,,,,,,,,
,,,,,00051,2023-10-15_16h50.38.331,vbt_B2_day3,2022.2.4,MacIntel,55.55555556,,,,,,down,0,3.539,,0.485555556,0.153333333,1,0,0,0,40,40,67,1,zwart,images/br_zwart.png,images/cb_zwart.png,0,,,,,,,,,,,,,,,,,,,,,,
,,,,,00051,2023-10-15_16h50.38.331,vbt_B2_day3,2022.2.4,MacIntel,55.55555556,,,,,,down,0,0.253,,0.484444444,0.148888889,1,0,0,0,41,41,16,1,ziek,images/br_ziek.png,images/cb_ziek.png,0,,,,,,,,,,,,,,,,,,,,,,
,,,,,00051,2023-10-15_16h50.38.331,vbt_B2_day3,2022.2.4,MacIntel,55.55555556,,,,,,down,0,0.377,,0.484444444,0.148888889,1,0,0,0,42,42,112,1,lukken,images/br_lukken.png,images/cb_lukken.png,0,,,,,,,,,,,,,,,,,,,,,,
,,,,,00051,2023-10-15_16h50.38.331,vbt_B2_day3,2022.2.4,MacIntel,55.55555556,,,,,,down,0,0.321,,0.484444444,0.148888889,1,0,0,0,43,43,17,1,taal,images/br_taal.png,images/cb_taal.png,0,,,,,,,,,,,,,,,,,,,,,,
,,,,,00051,2023-10-15_16h50.38.331,vbt_B2_day3,2022.2.4,MacIntel,55.55555556,,,,,,down,0,6.255,,0.508888889,-0.071111111,1,0,0,0,44,44,140,1,blijven,images/br_blijven.png,images/cb_blijven.png,1,blijven,,,,,,,,,,,,,,,,,,,,,
,,,,,00051,2023-10-15_16h50.38.331,vbt_B2_day3,2022.2.4,MacIntel,55.55555556,,,,,,down,0,5.843,,0.508888889,-0.071111111,1,0,0,0,45,45,178,1,huisdier,images/br_huisdier.png,images/cb_huisdier.png,0,,,,,,,,,,,,,,,,,,,,,,
,,,,,00051,2023-10-15_16h50.38.331,vbt_B2_day3,2022.2.4,MacIntel,55.55555556,,,,,,down,0,0.309,,0.508888889,-0.071111111,1,0,0,0,46,46,50,1,stoom,images/br_stoom.png,images/cb_stoom.png,0,,,,,,,,,,,,,,,,,,,,,,
,,,,,00051,2023-10-15_16h50.38.331,vbt_B2_day3,2022.2.4,MacIntel,55.55555556,,,,,,down,0,3.752,,0.508888889,-0.071111111,1,0,0,0,47,47,82,1,muziek,images/br_muziek.png,images/cb_muziek.png,0,,,,,,,,,,,,,,,,,,,,,,
,,,,,00051,2023-10-15_16h50.38.331,vbt_B2_day3,2022.2.4,MacIntel,55.55555556,,,,,,down,0,0.471,,0.508888889,-0.071111111,1,0,0,0,48,48,13,1,kaal,images/br_kaal.png,images/cb_kaal.png,0,,,,,,,,,,,,,,,,,,,,,,
,,,,,00051,2023-10-15_16h50.38.331,vbt_B2_day3,2022.2.4,MacIntel,55.55555556,,,,,,down,0,10.405,,0.508888889,-0.071111111,1,0,0,0,49,49,49,1,laken,images/br_laken.png,images/cb_laken.png,0,,,,,,,,,,,,,,,,,,,,,,
,,,,,00051,2023-10-15_16h50.38.331,vbt_B2_day3,2022.2.4,MacIntel,55.55555556,,,,,,down,0,1.87,,0.508888889,-0.071111111,1,0,0,0,50,50,12,1,kust,images/br_kust.png,images/cb_kust.png,0,,,,,,,,,,,,,,,,,,,,,,
,,,,,00051,2023-10-15_16h50.38.331,vbt_B2_day3,2022.2.4,MacIntel,55.55555556,,,,,,down,0,8.24,,0.508888889,-0.071111111,1,0,0,0,51,51,54,1,gebit,images/br_gebit.png,images/cb_gebit.png,0,,,,,,,,,,,,,,,,,,,,,,
,,,,,00051,2023-10-15_16h50.38.331,vbt_B2_day3,2022.2.4,MacIntel,55.55555556,,,,,,down,0,3.355,,0.508888889,-0.071111111,1,0,0,0,52,52,167,1,eenhoorn,images/br_eenhoorn.png,images/cb_eenhoorn.png,0,,,,,,,,,,,,,,,,,,,,,,
,,,,,00051,2023-10-15_16h50.38.331,vbt_B2_day3,2022.2.4,MacIntel,55.55555556,,,,,,down,0,3.758,,0.376666667,-0.153333333,1,0,0,0,53,53,129,1,verhaal,images/br_verhaal.png,images/cb_verhaal.png,0,,,,,,,,,,,,,,,,,,,,,,
,,,,,00051,2023-10-15_16h50.38.331,vbt_B2_day3,2022.2.4,MacIntel,55.55555556,,,,,,down,0,2.974,,0.364444444,-0.153333333,1,0,0,0,54,54,199,1,beseffen,images/br_beseffen.png,images/cb_beseffen.png,0,,,,,,,,,,,,,,,,,,,,,,
,,,,,00051,2023-10-15_16h50.38.331,vbt_B2_day3,2022.2.4,MacIntel,55.55555556,,,,,,down,0,1.354,,0.363333333,-0.153333333,1,0,0,0,55,55,120,1,klimmen,images/br_klimmen.png,images/cb_klimmen.png,0,,,,,,,,,,,,,,,,,,,,,,
,,,,,00051,2023-10-15_16h50.38.331,vbt_B2_day3,2022.2.4,MacIntel,55.55555556,,,,,,down,0,5.555,,0.516666667,-0.227777778,1,0,0,0,56,56,142,1,snuiven,images/br_snuiven.png,images/cb_snuiven.png,1,snuiven,,,,,,,,,,,,,,,,,,,,,
,,,,,00051,2023-10-15_16h50.38.331,vbt_B2_day3,2022.2.4,MacIntel,55.55555556,,,,,,down,0,5.241,,0.516666667,-0.227777778,1,0,0,0,57,57,165,1,feestdag,images/br_feestdag.png,images/cb_feestdag.png,0,,,,,,,,,,,,,,,,,,,,,,
,,,,,00051,2023-10-15_16h50.38.331,vbt_B2_day3,2022.2.4,MacIntel,55.55555556,,,,,,down,0,2.904,,0.516666667,-0.226666667,1,0,0,0,58,58,186,1,voorraad,images/br_voorraad.png,images/cb_voorraad.png,0,,,,,,,,,,,,,,,,,,,,,,
,,,,,00051,2023-10-15_16h50.38.331,vbt_B2_day3,2022.2.4,MacIntel,55.55555556,,,,,,down,0,2.153,,0.516666667,-0.226666667,1,0,0,0,59,59,87,1,toeval,images/br_toeval.png,images/cb_toeval.png,0,,,,,,,,,,,,,,,,,,,,,,
,,,,,00051,2023-10-15_16h50.38.331,vbt_B2_day3,2022.2.4,MacIntel,55.55555556,,,,,,down,0,4.22,,0.636666667,-0.176666667,1,0,0,0,60,60,183,1,getuigen,images/br_getuigen.png,images/cb_getuigen.png,1,getuigen,,,,,,,,,,,,,,,,,,,,,
,,,,,00051,2023-10-15_16h50.38.331,vbt_B2_day3,2022.2.4,MacIntel,55.55555556,,,,,,down,0,8.221,,0.411111111,-0.141111111,1,0,0,0,61,61,185,1,mijnheer,images/br_mijnheer.png,images/cb_mijnheer.png,0,,,,,,,,,,,,,,,,,,,,,,
,,,,,00051,2023-10-15_16h50.38.331,vbt_B2_day3,2022.2.4,MacIntel,55.55555556,,,,,,down,0,25.675,,0.411111111,-0.141111111,1,0,0,0,62,62,168,1,bisschop,images/br_bisschop.png,images/cb_bisschop.png,0,,,,,,,,,,,,,,,,,,,,,,
,,,,,00051,2023-10-15_16h50.38.331,vbt_B2_day3,2022.2.4,MacIntel,55.55555556,,,,,,down,0,2.686,,0.411111111,-0.141111111,1,0,0,0,63,63,152,1,afnemen,images/br_afnemen.png,images/cb_afnemen.png,0,,,,,,,,,,,,,,,,,,,,,,
,,,,,00051,2023-10-15_16h50.38.331,vbt_B2_day3,2022.2.4,MacIntel,55.55555556,,,,,,down,0,2.323,,0.411111111,-0.141111111,1,0,0,0,64,64,121,1,twijfel,images/br_twijfel.png,images/cb_twijfel.png,0,,,,,,,,,,,,,,,,,,,,,,
,,,,,00051,2023-10-15_16h50.38.331,vbt_B2_day3,2022.2.4,MacIntel,55.55555556,,,,,,down,0,2.938,,0.411111111,-0.141111111,1,0,0,0,65,65,128,1,prikken,images/br_prikken.png,images/cb_prikken.png,0,,,,,,,,,,,,,,,,,,,,,,
,,,,,00051,2023-10-15_16h50.38.331,vbt_B2_day3,2022.2.4,MacIntel,55.55555556,,,,,,down,0,1.855,,0.411111111,-0.141111111,1,0,0,0,66,66,35,1,lust,images/br_lust.png,images/cb_lust.png,0,,,,,,,,,,,,,,,,,,,,,,
,,,,,00051,2023-10-15_16h50.38.331,vbt_B2_day3,2022.2.4,MacIntel,55.55555556,,,,,,down,0,0.223,,0.412222222,-0.141111111,1,0,0,0,67,67,2,1,jaar,images/br_jaar.png,images/cb_jaar.png,0,,,,,,,,,,,,,,,,,,,,,,
,,,,,00051,2023-10-15_16h50.38.331,vbt_B2_day3,2022.2.4,MacIntel,55.55555556,,,,,,down,0,5.624,,0.412222222,-0.138888889,1,0,0,0,68,68,92,1,geheim,images/br_geheim.png,images/cb_geheim.png,0,,,,,,,,,,,,,,,,,,,,,,
,,,,,00051,2023-10-15_16h50.38.331,vbt_B2_day3,2022.2.4,MacIntel,55.55555556,,,,,,down,0,0.538,,0.412222222,-0.138888889,1,0,0,0,69,69,4,1,moes,images/br_moes.png,images/cb_moes.png,0,,,,,,,,,,,,,,,,,,,,,,
,,,,,00051,2023-10-15_16h50.38.331,vbt_B2_day3,2022.2.4,MacIntel,55.55555556,,,,,,down,0,2.525,,0.408888889,-0.141111111,1,0,0,0,70,70,3,1,mand,images/br_mand.png,images/cb_mand.png,0,,,,,,,,,,,,,,,,,,,,,,
,,,,,00051,2023-10-15_16h50.38.331,vbt_B2_day3,2022.2.4,MacIntel,55.55555556,,,,,,down,0,2.805,,0.408888889,-0.141111111,1,0,0,0,71,71,41,1,maken,images/br_maken.png,images/cb_maken.png,0,,,,,,,,,,,,,,,,,,,,,,
,,,,,00051,2023-10-15_16h50.38.331,vbt_B2_day3,2022.2.4,MacIntel,55.55555556,,,,,,down,0,3.005,,0.408888889,-0.141111111,1,0,0,0,72,72,164,1,anarchie,images/br_anarchie.png,images/cb_anarchie.png,0,,,,,,,,,,,,,,,,,,,,,,
,,,,,00051,2023-10-15_16h50.38.331,vbt_B2_day3,2022.2.4,MacIntel,55.55555556,,,,,,down,0,10.02,,0.407777778,-0.135555556,1,0,0,0,73,73,122,1,waarvan,images/br_waarvan.png,images/cb_waarvan.png,0,,,,,,,,,,,,,,,,,,,,,,
,,,,,00051,2023-10-15_16h50.38.331,vbt_B2_day3,2022.2.4,MacIntel,55.55555556,,,,,,down,0,1.108,,0.407777778,-0.112222222,1,0,0,0,74,74,37,1,mijn,images/br_mijn.png,images/cb_mijn.png,0,,,,,,,,,,,,,,,,,,,,,,
,,,,,00051,2023-10-15_16h50.38.331,vbt_B2_day3,2022.2.4,MacIntel,55.55555556,,,,,,down,0,0.572,,0.407777778,-0.112222222,1,0,0,0,75,75,65,1,parel,images/br_parel.png,images/cb_parel.png,0,,,,,,,,,,,,,,,,,,,,,,
,,,,,00051,2023-10-15_16h50.38.331,vbt_B2_day3,2022.2.4,MacIntel,55.55555556,,,,,,down,0,0.689,,0.407777778,-0.09,1,0,0,0,76,76,93,1,waarop,images/br_waarop.png,images/cb_waarop.png,0,,,,,,,,,,,,,,,,,,,,,,
,,,,,00051,2023-10-15_16h50.38.331,vbt_B2_day3,2022.2.4,MacIntel,55.55555556,,,,,,down,0,3.772,,0.407777778,-0.075555556,1,0,0,0,77,77,26,1,leuk,images/br_leuk.png,images/cb_leuk.png,0,,,,,,,,,,,,,,,,,,,,,,
,,,,,00051,2023-10-15_16h50.38.331,vbt_B2_day3,2022.2.4,MacIntel,55.55555556,,,,,,down,0,2.073,,0.408888889,-0.082222222,1,0,0,0,78,78,117,1,kennis,images/br_kennis.png,images/cb_kennis.png,0,,,,,,,,,,,,,,,,,,,,,,
,,,,,00051,2023-10-15_16h50.38.331,vbt_B2_day3,2022.2.4,MacIntel,55.55555556,,,,,,down,0,12.676,,0.408888889,-0.075555556,1,0,0,0,79,79,161,1,attentie,images/br_attentie.png,images/cb_attentie.png,0,,,,,,,,,,,,,,,,,,,,,,
,,,,,00051,2023-10-15_16h50.38.331,vbt_B2_day3,2022.2.4,MacIntel,55.55555556,,,,,,down,0,22.107,,0.408888889,-0.084444444,1,0,0,0,80,80,195,1,middelen,images/br_middelen.png,images/cb_middelen.png,0,,,,,,,,,,,,,,,,,,,,,,
,,,,,00051,2023-10-15_16h50.38.331,vbt_B2_day3,2022.2.4,MacIntel,55.55555556,,,,,,down,0,2.988,,0.408888889,-0.084444444,1,0,0,0,81,81,8,1,knie,images/br_knie.png,images/cb_knie.png,0,,,,,,,,,,,,,,,,,,,,,,
,,,,,00051,2023-10-15_16h50.38.331,vbt_B2_day3,2022.2.4,MacIntel,55.55555556,,,,,,down,0,6.171,,0.395555556,-0.103333333,1,0,0,0,82,82,118,1,vinger,images/br_vinger.png,images/cb_vinger.png,0,,,,,,,,,,,,,,,,,,,,,,
,,,,,00051,2023-10-15_16h50.38.331,vbt_B2_day3,2022.2.4,MacIntel,55.55555556,,,,,,down,0,0.657,,0.395555556,-0.103333333,1,0,0,0,83,83,19,1,geit,images/br_geit.png,images/cb_geit.png,0,,,,,,,,,,,,,,,,,,,,,,
,,,,,00051,2023-10-15_16h50.38.331,vbt_B2_day3,2022.2.4,MacIntel,55.55555556,,,,,,down,0,1.871,,0.397777778,-0.107777778,1,0,0,0,84,84,88,1,boeien,images/br_boeien.png,images/cb_boeien.png,0,,,,,,,,,,,,,,,,,,,,,,
,,,,,00051,2023-10-15_16h50.38.331,vbt_B2_day3,2022.2.4,MacIntel,55.55555556,,,,,,down,0,1.621,,0.397777778,-0.052222222,1,0,0,0,85,85,52,1,wagon,images/br_wagon.png,images/cb_wagon.png,0,,,,,,,,,,,,,,,,,,,,,,
,,,,,00051,2023-10-15_16h50.38.331,vbt_B2_day3,2022.2.4,MacIntel,55.55555556,,,,,,down,0,0.121,,0.397777778,-0.052222222,1,0,0,0,86,86,25,1,plek,images/br_plek.png,images/cb_plek.png,0,,,,,,,,,,,,,,,,,,,,,,
,,,,,00051,2023-10-15_16h50.38.331,vbt_B2_day3,2022.2.4,MacIntel,55.55555556,,,,,,down,0,16.506,,0.4,-0.021111111,1,0,0,0,87,87,9,1,hier,images/br_hier.png,images/cb_hier.png,0,,,,,,,,,,,,,,,,,,,,,,
,,,,,00051,2023-10-15_16h50.38.331,vbt_B2_day3,2022.2.4,MacIntel,55.55555556,,,,,,down,0,0.49,,0.4,-0.021111111,1,0,0,0,88,88,84,1,lokken,images/br_lokken.png,images/cb_lokken.png,0,,,,,,,,,,,,,,,,,,,,,,
,,,,,00051,2023-10-15_16h50.38.331,vbt_B2_day3,2022.2.4,MacIntel,55.55555556,,,,,,down,0,15.389,,0.4,-0.021111111,1,0,0,0,89,89,86,1,woning,images/br_woning.png,images/cb_woning.png,0,,,,,,,,,,,,,,,,,,,,,,
,,,,,00051,2023-10-15_16h50.38.331,vbt_B2_day3,2022.2.4,MacIntel,55.55555556,,,,,,down,0,3.643,,0.375555556,0.035555556,1,0,0,0,90,90,190,1,goedkoop,images/br_goedkoop.png,images/cb_goedkoop.png,0,,,,,,,,,,,,,,,,,,,,,,
,,,,,00051,2023-10-15_16h50.38.331,vbt_B2_day3,2022.2.4,MacIntel,55.55555556,,,,,,down,0,5.303,,0.522222222,-0.146666667,1,0,0,0,91,91,63,1,flirt,images/br_flirt.png,images/cb_flirt.png,1,flirt,,,,,,,,,,,,,,,,,,,,,
,,,,,00051,2023-10-15_16h50.38.331,vbt_B2_day3,2022.2.4,MacIntel,55.55555556,,,,,,down,0,2.117,,0.523333333,-0.288888889,1,0,0,0,92,92,175,1,heengaan,images/br_heengaan.png,images/cb_heengaan.png,0,,,,,,,,,,,,,,,,,,,,,,
,,,,,00051,2023-10-15_16h50.38.331,vbt_B2_day3,2022.2.4,MacIntel,55.55555556,,,,,,down,0,1.037,,0.523333333,-0.288888889,1,0,0,0,93,93,119,1,liefje,images/br_liefje.png,images/cb_liefje.png,0,,,,,,,,,,,,,,,,,,,,,,
,,,,,00051,2023-10-15_16h50.38.331,vbt_B2_day3,2022.2.4,MacIntel,55.55555556,,,,,,down,0,1.073,,0.518888889,-0.285555556,1,0,0,0,94,94,62,1,knaap,images/br_knaap.png,images/cb_knaap.png,1,knaap,,,,,,,,,,,,,,,,,,,,,
,,,,,00051,2023-10-15_16h50.38.331,vbt_B2_day3,2022.2.4,MacIntel,55.55555556,,,,,,down,0,2.339,,0.518888889,-0.282222222,1,0,0,0,95,95,23,1,zout,images/br_zout.png,images/cb_zout.png,1,zout,,,,,,,,,,,,,,,,,,,,,
,,,,,00051,2023-10-15_16h50.38.331,vbt_B2_day3,2022.2.4,MacIntel,55.55555556,,,,,,down,0,2.144,,0.518888889,-0.282222222,1,0,0,0,96,96,75,1,snoep,images/br_snoep.png,images/cb_snoep.png,0,,,,,,,,,,,,,,,,,,,,,,
,,,,,00051,2023-10-15_16h50.38.331,vbt_B2_day3,2022.2.4,MacIntel,55.55555556,,,,,,down,0,0.803,,0.518888889,-0.282222222,1,0,0,0,97,97,91,1,gezond,images/br_gezond.png,images/cb_gezond.png,0,,,,,,,,,,,,,,,,,,,,,,
,,,,,00051,2023-10-15_16h50.38.331,vbt_B2_day3,2022.2.4,MacIntel,55.55555556,,,,,,down,0,1.011,,0.518888889,-0.282222222,1,0,0,0,98,98,43,1,klauw,images/br_klauw.png,images/cb_klauw.png,0,,,,,,,,,,,,,,,,,,,,,,
,,,,,00051,2023-10-15_16h50.38.331,vbt_B2_day3,2022.2.4,MacIntel,55.55555556,,,,,,down,0,3.154,,0.52,-0.283333333,1,0,0,0,99,99,135,1,gedicht,images/br_gedicht.png,images/cb_gedicht.png,0,,,,,,,,,,,,,,,,,,,,,,
,,,,,00051,2023-10-15_16h50.38.331,vbt_B2_day3,2022.2.4,MacIntel,55.55555556,,,,,,down,0,23.987,,0.52,-0.283333333,1,0,0,0,100,100,192,1,schaamte,images/br_schaamte.png,images/cb_schaamte.png,0,,,,,,,,,,,,,,,,,,,,,,
,,,,,00051,2023-10-15_16h50.38.331,vbt_B2_day3,2022.2.4,MacIntel,55.55555556,,,,,,down,0,0.772,,0.518888889,-0.283333333,1,0,0,0,101,101,107,1,maling,images/br_maling.png,images/cb_maling.png,0,,,,,,,,,,,,,,,,,,,,,,
,,,,,00051,2023-10-15_16h50.38.331,vbt_B2_day3,2022.2.4,MacIntel,55.55555556,,,,,,down,0,38.326,,0.518888889,-0.283333333,1,0,0,0,102,102,57,1,steek,images/br_steek.png,images/cb_steek.png,0,,,,,,,,,,,,,,,,,,,,,,
,,,,,00051,2023-10-15_16h50.38.331,vbt_B2_day3,2022.2.4,MacIntel,55.55555556,,,,,,down,0,43.042,,0.518888889,-0.283333333,1,0,0,0,103,103,113,1,koppen,images/br_koppen.png,images/cb_koppen.png,0,,,,,,,,,,,,,,,,,,,,,,
,,,,,00051,2023-10-15_16h50.38.331,vbt_B2_day3,2022.2.4,MacIntel,55.55555556,,,,,,down,0,43.459,,0.474444444,-0.271111111,1,0,0,0,104,104,149,1,redding,images/br_redding.png,images/cb_redding.png,0,,,,,,,,,,,,,,,,,,,,,,
,,,,,00051,2023-10-15_16h50.38.331,vbt_B2_day3,2022.2.4,MacIntel,55.55555556,,,,,,down,0,2.405,,0.474444444,-0.271111111,1,0,0,0,105,105,131,1,opzicht,images/br_opzicht.png,images/cb_opzicht.png,0,,,,,,,,,,,,,,,,,,,,,,
,,,,,00051,2023-10-15_16h50.38.331,vbt_B2_day3,2022.2.4,MacIntel,55.55555556,,,,,,down,0,2.606,,0.474444444,-0.271111111,1,0,0,0,106,106,162,1,uitdelen,images/br_uitdelen.png,images/cb_uitdelen.png,0,,,,,,,,,,,,,,,,,,,,,,
,,,,,00051,2023-10-15_16h50.38.331,vbt_B2_day3,2022.2.4,MacIntel,55.55555556,,,,,,down,0,0.82,,0.474444444,-0.271111111,1,0,0,0,107,107,59,1,kring,images/br_kring.png,images/cb_kring.png,0,,,,,,,,,,,,,,,,,,,,,,
,,,,,00051,2023-10-15_16h50.38.331,vbt_B2_day3,2022.2.4,MacIntel,55.55555556,,,,,,down,0,1.091,,0.467777778,-0.276666667,1,0,0,0,108,108,32,1,palm,images/br_palm.png,images/cb_palm.png,0,,,,,,,,,,,,,,,,,,,,,,
,,,,,00051,2023-10-15_16h50.38.331,vbt_B2_day3,2022.2.4,MacIntel,55.55555556,,,,,,down,0,3.093,,0.467777778,-0.276666667,1,0,0,0,109,109,20,1,site,images/br_site.png,images/cb_site.png,1,site,,,,,,,,,,,,,,,,,,,,,
,,,,,00051,2023-10-15_16h50.38.331,vbt_B2_day3,2022.2.4,MacIntel,55.55555556,,,,,,down,0,1.422,,0.467777778,-0.261111111,1,0,0,0,110,110,73,1,volop,images/br_volop.png,images/cb_volop.png,0,,,,,,,,,,,,,,,,,,,,,,
,,,,,00051,2023-10-15_16h50.38.331,vbt_B2_day3,2022.2.4,MacIntel,55.55555556,,,,,,down,0,2.721,,0.472222222,-0.268888889,1,0,0,0,111,111,109,1,totaal,images/br_totaal.png,images/cb_totaal.png,0,,,,,,,,,,,,,,,,,,,,,,
,,,,,00051,2023-10-15_16h50.38.331,vbt_B2_day3,2022.2.4,MacIntel,55.55555556,,,,,,down,0,0.907,,0.472222222,-0.264444444,1,0,0,0,112,112,106,1,zingen,images/br_zingen.png,images/cb_zingen.png,0,,,,,,,,,,,,,,,,,,,,,,
,,,,,00051,2023-10-15_16h50.38.331,vbt_B2_day3,2022.2.4,MacIntel,55.55555556,,,,,,down,0,0.738,,0.472222222,-0.258888889,1,0,0,0,113,113,132,1,grappen,images/br_grappen.png,images/cb_grappen.png,0,,,,,,,,,,,,,,,,,,,,,,
,,,,,00051,2023-10-15_16h50.38.331,vbt_B2_day3,2022.2.4,MacIntel,55.55555556,,,,,,down,0,2.036,,0.472222222,-0.258888889,1,0,0,0,114,114,124,1,bloeien,images/br_bloeien.png,images/cb_bloeien.png,0,,,,,,,,,,,,,,,,,,,,,,
,,,,,00051,2023-10-15_16h50.38.331,vbt_B2_day3,2022.2.4,MacIntel,55.55555556,,,,,,down,0,1.607,,0.474444444,-0.26,1,0,0,0,115,115,48,1,steel,images/br_steel.png,images/cb_steel.png,0,,,,,,,,,,,,,,,,,,,,,,
,,,,,00051,2023-10-15_16h50.38.331,vbt_B2_day3,2022.2.4,MacIntel,55.55555556,,,,,,down,0,7.106,,0.474444444,-0.255555556,1,0,0,0,116,116,110,1,zuster,images/br_zuster.png,images/cb_zuster.png,0,,,,,,,,,,,,,,,,,,,,,,
,,,,,00051,2023-10-15_16h50.38.331,vbt_B2_day3,2022.2.4,MacIntel,55.55555556,,,,,,down,0,2.893,,0.478888889,-0.261111111,1,0,0,0,117,117,114,1,vullen,images/br_vullen.png,images/cb_vullen.png,0,,,,,,,,,,,,,,,,,,,,,,
,,,,,00051,2023-10-15_16h50.38.331,vbt_B2_day3,2022.2.4,MacIntel,55.55555556,,,,,,down,0,0.025,,0.482222222,-0.262222222,1,0,0,0,118,118,1,1,zaal,images/br_zaal.png,images/cb_zaal.png,0,,,,,,,,,,,,,,,,,,,,,,
,,,,,00051,2023-10-15_16h50.38.331,vbt_B2_day3,2022.2.4,MacIntel,55.55555556,,,,,,down,0,4.204,,0.485555556,-0.264444444,1,0,0,0,119,119,15,1,soda,images/br_soda.png,images/cb_soda.png,0,,,,,,,,,,,,,,,,,,,,,,
,,,,,00051,2023-10-15_16h50.38.331,vbt_B2_day3,2022.2.4,MacIntel,55.55555556,,,,,,down,0,9.267,,0.404444444,0.081111111,1,0,0,0,120,120,85,1,heilig,images/br_heilig.png,images/cb_heilig.png,0,,,,,,,,,,,,,,,,,,,,,,
,,,,,00051,2023-10-15_16h50.38.331,vbt_B2_day3,2022.2.4,MacIntel,55.55555556,,,,,,down,0,1.654,,0.404444444,0.081111111,1,0,0,0,121,121,31,1,poes,images/br_poes.png,images/cb_poes.png,0,,,,,,,,,,,,,,,,,,,,,,
,,,,,00051,2023-10-15_16h50.38.331,vbt_B2_day3,2022.2.4,MacIntel,55.55555556,,,,,,down,0,3.705,,0.407777778,0.073333333,1,0,0,0,122,122,191,1,opheffen,images/br_opheffen.png,images/cb_opheffen.png,0,,,,,,,,,,,,,,,,,,,,,,
,,,,,00051,2023-10-15_16h50.38.331,vbt_B2_day3,2022.2.4,MacIntel,55.55555556,,,,,,down,0,0.022,,0.413333333,0.077777778,1,0,0,0,123,123,72,1,strak,images/br_strak.png,images/cb_strak.png,0,,,,,,,,,,,,,,,,,,,,,,
,,,,,00051,2023-10-15_16h50.38.331,vbt_B2_day3,2022.2.4,MacIntel,55.55555556,,,,,,down,0,0.839,,0.415555556,0.081111111,1,0,0,0,124,124,5,1,blad,images/br_blad.png,images/cb_blad.png,0,,,,,,,,,,,,,,,,,,,,,,
,,,,,00051,2023-10-15_16h50.38.331,vbt_B2_day3,2022.2.4,MacIntel,55.55555556,,,,,,down,0,0.237,,0.417777778,0.077777778,1,0,0,0,125,125,29,1,baas,images/br_baas.png,images/cb_baas.png,0,,,,,,,,,,,,,,,,,,,,,,
,,,,,00051,2023-10-15_16h50.38.331,vbt_B2_day3,2022.2.4,MacIntel,55.55555556,,,,,,down,0,3.339,,0.417777778,0.077777778,1,0,0,0,126,126,95,1,vreten,images/br_vreten.png,images/cb_vreten.png,0,,,,,,,,,,,,,,,,,,,,,,
,,,,,00051,2023-10-15_16h50.38.331,vbt_B2_day3,2022.2.4,MacIntel,55.55555556,,,,,,down,0,1.791,,0.417777778,0.077777778,1,0,0,0,127,127,134,1,geliefd,images/br_geliefd.png,images/cb_geliefd.png,0,,,,,,,,,,,,,,,,,,,,,,
,,,,,00051,2023-10-15_16h50.38.331,vbt_B2_day3,2022.2.4,MacIntel,55.55555556,,,,,,down,0,13.944,,0.413333333,0.076666667,1,0,0,0,128,128,47,1,kabel,images/br_kabel.png,images/cb_kabel.png,0,,,,,,,,,,,,,,,,,,,,,,
,,,,,00051,2023-10-15_16h50.38.331,vbt_B2_day3,2022.2.4,MacIntel,55.55555556,,,,,,down,0,39.692,,0.413333333,0.076666667,1,0,0,0,129,129,145,1,invloed,images/br_invloed.png,images/cb_invloed.png,0,,,,,,,,,,,,,,,,,,,,,,
,,,,,00051,2023-10-15_16h50.38.331,vbt_B2_day3,2022.2.4,MacIntel,55.55555556,,,,,,down,0,2.74,,0.413333333,0.076666667,1,0,0,0,130,130,69,1,waken,images/br_waken.png,images/cb_waken.png,0,,,,,,,,,,,,,,,,,,,,,,
,,,,,00051,2023-10-15_16h50.38.331,vbt_B2_day3,2022.2.4,MacIntel,55.55555556,,,,,,down,0,1.439,,0.415555556,0.074444444,1,0,0,0,131,131,78,1,leren,images/br_leren.png,images/cb_leren.png,0,,,,,,,,,,,,,,,,,,,,,,
,,,,,00051,2023-10-15_16h50.38.331,vbt_B2_day3,2022.2.4,MacIntel,55.55555556,,,,,,down,0,1.825,,0.415555556,0.074444444,1,0,0,0,132,132,127,1,doodmoe,images/br_doodmoe.png,images/cb_doodmoe.png,0,,,,,,,,,,,,,,,,,,,,,,
,,,,,00051,2023-10-15_16h50.38.331,vbt_B2_day3,2022.2.4,MacIntel,55.55555556,,,,,,down,0,0.175,,0.415555556,0.074444444,1,0,0,0,133,133,150,1,gegeven,images/br_gegeven.png,images/cb_gegeven.png,0,,,,,,,,,,,,,,,,,,,,,,
,,,,,00051,2023-10-15_16h50.38.331,vbt_B2_day3,2022.2.4,MacIntel,55.55555556,,,,,,down,0,1.472,,0.415555556,0.097777778,1,0,0,0,134,134,98,1,kreeft,images/br_kreeft.png,images/cb_kreeft.png,0,,,,,,,,,,,,,,,,,,,,,,
,,,,,00051,2023-10-15_16h50.38.331,vbt_B2_day3,2022.2.4,MacIntel,55.55555556,,,,,,down,0,0.058,,0.415555556,0.097777778,1,0,0,0,135,135,64,1,wegen,images/br_wegen.png,images/cb_wegen.png,0,,,,,,,,,,,,,,,,,,,,,,
,,,,,00051,2023-10-15_16h50.38.331,vbt_B2_day3,2022.2.4,MacIntel,55.55555556,,,,,,down,0,3.472,,0.415555556,0.097777778,1,0,0,0,136,136,45,1,piste,images/br_piste.png,images/cb_piste.png,0,,,,,,,,,,,,,,,,,,,,,,
,,,,,00051,2023-10-15_16h50.38.331,vbt_B2_day3,2022.2.4,MacIntel,55.55555556,,,,,,down,0,0.422,,0.415555556,0.097777778,1,0,0,0,137,137,83,1,mening,images/br_mening.png,images/cb_mening.png,0,,,,,,,,,,,,,,,,,,,,,,
,,,,,00051,2023-10-15_16h50.38.331,vbt_B2_day3,2022.2.4,MacIntel,55.55555556,,,,,,down,0,4.169,,0.415555556,0.097777778,1,0,0,0,138,138,182,1,bijkomen,images/br_bijkomen.png,images/cb_bijkomen.png,1,bijkomen,,,,,,,,,,,,,,,,,,,,,
,,,,,00051,2023-10-15_16h50.38.331,vbt_B2_day3,2022.2.4,MacIntel,55.55555556,,,,,,down,0,1.554,,0.401111111,0.102222222,1,0,0,0,139,139,189,1,aanraden,images/br_aanraden.png,images/cb_aanraden.png,0,,,,,,,,,,,,,,,,,,,,,,
,,,,,00051,2023-10-15_16h50.38.331,vbt_B2_day3,2022.2.4,MacIntel,55.55555556,,,,,,down,0,5.006,,0.401111111,0.113333333,1,0,0,0,140,140,105,1,wijlen,images/br_wijlen.png,images/cb_wijlen.png,0,,,,,,,,,,,,,,,,,,,,,,
,,,,,00051,2023-10-15_16h50.38.331,vbt_B2_day3,2022.2.4,MacIntel,55.55555556,,,,,,down,0,5.038,,0.397777778,0.115555556,1,0,0,0,141,141,160,1,daarheen,images/br_daarheen.png,images/cb_daarheen.png,0,,,,,,,,,,,,,,,,,,,,,,
,,,,,00051,2023-10-15_16h50.38.331,vbt_B2_day3,2022.2.4,MacIntel,55.55555556,,,,,,down,0,3.319,,0.397777778,0.115555556,1,0,0,0,142,142,77,1,woede,images/br_woede.png,images/cb_woede.png,0,,,,,,,,,,,,,,,,,,,,,,
,,,,,00051,2023-10-15_16h50.38.331,vbt_B2_day3,2022.2.4,MacIntel,55.55555556,,,,,,down,0,0.773,,0.397777778,0.115555556,1,0,0,0,143,143,159,1,sufferd,images/br_sufferd.png,images/cb_sufferd.png,0,,,,,,,,,,,,,,,,,,,,,,
,,,,,00051,2023-10-15_16h50.38.331,vbt_B2_day3,2022.2.4,MacIntel,55.55555556,,,,,,down,0,35.589,,0.386666667,-0.157777778,1,0,0,0,144,144,151,1,aanzoek,images/br_aanzoek.png,images/cb_aanzoek.png,0,,,,,,,,,,,,,,,,,,,,,,
,,,,,00051,2023-10-15_16h50.38.331,vbt_B2_day3,2022.2.4,MacIntel,55.55555556,,,,,,down,0,4.754,,0.365555556,-0.212222222,1,0,0,0,145,145,66,1,lever,images/br_lever.png,images/cb_lever.png,0,,,,,,,,,,,,,,,,,,,,,,
,,,,,00051,2023-10-15_16h50.38.331,vbt_B2_day3,2022.2.4,MacIntel,55.55555556,,,,,,down,0,4.973,,0.365555556,-0.212222222,1,0,0,0,146,146,179,1,woestijn,images/br_woestijn.png,images/cb_woestijn.png,0,,,,,,,,,,,,,,,,,,,,,,
,,,,,00051,2023-10-15_16h50.38.331,vbt_B2_day3,2022.2.4,MacIntel,55.55555556,,,,,,down,0,0.485,,0.367777778,-0.212222222,1,0,0,0,147,147,74,1,graaf,images/br_graaf.png,images/cb_graaf.png,0,,,,,,,,,,,,,,,,,,,,,,
,,,,,00051,2023-10-15_16h50.38.331,vbt_B2_day3,2022.2.4,MacIntel,55.55555556,,,,,,down,0,4.405,,0.367777778,-0.212222222,1,0,0,0,148,148,61,1,groen,images/br_groen.png,images/cb_groen.png,1,groen,,,,,,,,,,,,,,,,,,,,,
,,,,,00051,2023-10-15_16h50.38.331,vbt_B2_day3,2022.2.4,MacIntel,55.55555556,,,,,,down,0,0.688,,0.367777778,-0.212222222,1,0,0,0,149,149,70,1,ijdel,images/br_ijdel.png,images/cb_ijdel.png,0,,,,,,,,,,,,,,,,,,,,,,
,,,,,00051,2023-10-15_16h50.38.331,vbt_B2_day3,2022.2.4,MacIntel,55.55555556,,,,,,down,0,11.417,,0.367777778,-0.212222222,1,0,0,0,150,150,139,1,stiekem,images/br_stiekem.png,images/cb_stiekem.png,0,,,,,,,,,,,,,,,,,,,,,,
,,,,,00051,2023-10-15_16h50.38.331,vbt_B2_day3,2022.2.4,MacIntel,55.55555556,,,,,,down,0,1.437,,0.367777778,-0.212222222,1,0,0,0,151,151,97,1,loyaal,images/br_loyaal.png,images/cb_loyaal.png,0,,,,,,,,,,,,,,,,,,,,,,
,,,,,00051,2023-10-15_16h50.38.331,vbt_B2_day3,2022.2.4,MacIntel,55.55555556,,,,,,down,0,0.524,,0.367777778,-0.212222222,1,0,0,0,152,152,6,1,diep,images/br_diep.png,images/cb_diep.png,0,,,,,,,,,,,,,,,,,,,,,,
,,,,,00051,2023-10-15_16h50.38.331,vbt_B2_day3,2022.2.4,MacIntel,55.55555556,,,,,,down,0,3.771,,0.367777778,-0.212222222,1,0,0,0,153,153,108,1,excuus,images/br_excuus.png,images/cb_excuus.png,0,,,,,,,,,,,,,,,,,,,,,,
,,,,,00051,2023-10-15_16h50.38.331,vbt_B2_day3,2022.2.4,MacIntel,55.55555556,,,,,,down,0,4.504,,0.367777778,-0.212222222,1,0,0,0,154,154,130,1,keihard,images/br_keihard.png,images/cb_keihard.png,0,,,,,,,,,,,,,,,,,,,,,,
,,,,,00051,2023-10-15_16h50.38.331,vbt_B2_day3,2022.2.4,MacIntel,55.55555556,,,,,,down,0,0.504,,0.367777778,-0.212222222,1,0,0,0,155,155,169,1,oprotten,images/br_oprotten.png,images/cb_oprotten.png,0,,,,,,,,,,,,,,,,,,,,,,
,,,,,00051,2023-10-15_16h50.38.331,vbt_B2_day3,2022.2.4,MacIntel,55.55555556,,,,,,down,0,0.105,,0.367777778,-0.212222222,1,0,0,0,156,156,51,1,samen,images/br_samen.png,images/cb_samen.png,0,,,,,,,,,,,,,,,,,,,,,,
,,,,,00051,2023-10-15_16h50.38.331,vbt_B2_day3,2022.2.4,MacIntel,55.55555556,,,,,,down,0,3.387,,0.367777778,-0.212222222,1,0,0,0,157,157,148,1,smullen,images/br_smullen.png,images/cb_smullen.png,0,,,,,,,,,,,,,,,,,,,,,,
,,,,,00051,2023-10-15_16h50.38.331,vbt_B2_day3,2022.2.4,MacIntel,55.55555556,,,,,,down,0,4.922,,0.367777778,-0.212222222,1,0,0,0,158,158,80,1,kanjer,images/br_kanjer.png,images/cb_kanjer.png,0,,,,,,,,,,,,,,,,,,,,,,
,,,,,00051,2023-10-15_16h50.38.331,vbt_B2_day3,2022.2.4,MacIntel,55.55555556,,,,,,down,0,0.307,,0.367777778,-0.212222222,1,0,0,0,159,159,10,1,leek,images/br_leek.png,images/cb_leek.png,0,,,,,,,,,,,,,,,,,,,,,,
,,,,,00051,2023-10-15_16h50.38.331,vbt_B2_day3,2022.2.4,MacIntel,55.55555556,,,,,,down,0,1.307,,0.367777778,-0.212222222,1,0,0,0,160,160,187,1,opkijken,images/br_opkijken.png,images/cb_opkijken.png,0,,,,,,,,,,,,,,,,,,,,,,
,,,,,00051,2023-10-15_16h50.38.331,vbt_B2_day3,2022.2.4,MacIntel,55.55555556,,,,,,down,0,4.123,,0.458888889,-0.232222222,1,0,0,0,161,161,103,1,joggen,images/br_joggen.png,images/cb_joggen.png,1,joggen,,,,,,,,,,,,,,,,,,,,,
,,,,,00051,2023-10-15_16h50.38.331,vbt_B2_day3,2022.2.4,MacIntel,55.55555556,,,,,,down,0,2.168,,0.458888889,-0.133333333,1,0,0,0,162,162,146,1,opkomen,images/br_opkomen.png,images/cb_opkomen.png,0,,,,,,,,,,,,,,,,,,,,,,
,,,,,00051,2023-10-15_16h50.38.331,vbt_B2_day3,2022.2.4,MacIntel,55.55555556,,,,,,down,0,4.128,,0.458888889,-0.133333333,1,0,0,0,163,163,116,1,besmet,images/br_besmet.png,images/cb_besmet.png,0,,,,,,,,,,,,,,,,,,,,,,
,,,,,00051,2023-10-15_16h50.38.331,vbt_B2_day3,2022.2.4,MacIntel,55.55555556,,,,,,down,0,1.189,,0.458888889,-0.131111111,1,0,0,0,164,164,177,1,maaltijd,images/br_maaltijd.png,images/cb_maaltijd.png,0,,,,,,,,,,,,,,,,,,,,,,
,,,,,00051,2023-10-15_16h50.38.331,vbt_B2_day3,2022.2.4,MacIntel,55.55555556,,,,,,down,0,0.687,,0.458888889,-0.131111111,1,0,0,0,165,165,115,1,kleren,images/br_kleren.png,images/cb_kleren.png,0,,,,,,,,,,,,,,,,,,,,,,
,,,,,00051,2023-10-15_16h50.38.331,vbt_B2_day3,2022.2.4,MacIntel,55.55555556,,,,,,down,0,3.301,,0.458888889,-0.131111111,1,0,0,0,166,166,38,1,baai,images/br_baai.png,images/cb_baai.png,0,,,,,,,,,,,,,,,,,,,,,,
,,,,,00051,2023-10-15_16h50.38.331,vbt_B2_day3,2022.2.4,MacIntel,55.55555556,,,,,,down,0,1.619,,0.458888889,-0.131111111,1,0,0,0,167,167,90,1,geluid,images/br_geluid.png,images/cb_geluid.png,0,,,,,,,,,,,,,,,,,,,,,,
,,,,,00051,2023-10-15_16h50.38.331,vbt_B2_day3,2022.2.4,MacIntel,55.55555556,,,,,,down,0,0.972,,0.458888889,-0.131111111,1,0,0,0,168,168,11,1,mode,images/br_mode.png,images/cb_mode.png,0,,,,,,,,,,,,,,,,,,,,,,
,,,,,00051,2023-10-15_16h50.38.331,vbt_B2_day3,2022.2.4,MacIntel,55.55555556,,,,,,down,0,2.424,,0.458888889,-0.131111111,1,0,0,0,169,169,102,1,legaal,images/br_legaal.png,images/cb_legaal.png,1,legaal,,,,,,,,,,,,,,,,,,,,,
,,,,,00051,2023-10-15_16h50.38.331,vbt_B2_day3,2022.2.4,MacIntel,55.55555556,,,,,,down,0,0.541,,0.458888889,-0.131111111,1,0,0,0,170,170,55,1,praat,images/br_praat.png,images/cb_praat.png,0,,,,,,,,,,,,,,,,,,,,,,
,,,,,00051,2023-10-15_16h50.38.331,vbt_B2_day3,2022.2.4,MacIntel,55.55555556,,,,,,down,0,1.305,,0.458888889,-0.131111111,1,0,0,0,171,171,22,1,stof,images/br_stof.png,images/cb_stof.png,1,stof,,,,,,,,,,,,,,,,,,,,,
,,,,,00051,2023-10-15_16h50.38.331,vbt_B2_day3,2022.2.4,MacIntel,55.55555556,,,,,,down,0,2.224,,0.458888889,-0.131111111,1,0,0,0,172,172,104,1,zweven,images/br_zweven.png,images/cb_zweven.png,0,,,,,,,,,,,,,,,,,,,,,,
,,,,,00051,2023-10-15_16h50.38.331,vbt_B2_day3,2022.2.4,MacIntel,55.55555556,,,,,,down,0,7.389,,0.478888889,-0.141111111,1,0,0,0,173,173,136,1,waarbij,images/br_waarbij.png,images/cb_waarbij.png,0,,,,,,,,,,,,,,,,,,,,,,
,,,,,00051,2023-10-15_16h50.38.331,vbt_B2_day3,2022.2.4,MacIntel,55.55555556,,,,,,down,0,6.036,,0.478888889,-0.141111111,1,0,0,0,174,174,76,1,afval,images/br_afval.png,images/cb_afval.png,0,,,,,,,,,,,,,,,,,,,,,,
,,,,,00051,2023-10-15_16h50.38.331,vbt_B2_day3,2022.2.4,MacIntel,55.55555556,,,,,,down,0,14.262,,0.478888889,-0.137777778,1,0,0,0,175,175,153,1,vervoer,images/br_vervoer.png,images/cb_vervoer.png,0,,,,,,,,,,,,,,,,,,,,,,
,,,,,00051,2023-10-15_16h50.38.331,vbt_B2_day3,2022.2.4,MacIntel,55.55555556,,,,,,down,0,0.588,,0.478888889,-0.137777778,1,0,0,0,176,176,33,1,vlek,images/br_vlek.png,images/cb_vlek.png,0,,,,,,,,,,,,,,,,,,,,,,
,,,,,00051,2023-10-15_16h50.38.331,vbt_B2_day3,2022.2.4,MacIntel,55.55555556,,,,,,down,0,5.403,,0.478888889,-0.137777778,1,0,0,0,177,177,163,1,schuilen,images/br_schuilen.png,images/cb_schuilen.png,0,,,,,,,,,,,,,,,,,,,,,,
,,,,,00051,2023-10-15_16h50.38.331,vbt_B2_day3,2022.2.4,MacIntel,55.55555556,,,,,,down,0,4.706,,0.414444444,-0.168888889,1,0,0,0,178,178,176,1,techniek,images/br_techniek.png,images/cb_techniek.png,0,,,,,,,,,,,,,,,,,,,,,,
,,,,,00051,2023-10-15_16h50.38.331,vbt_B2_day3,2022.2.4,MacIntel,55.55555556,,,,,,down,0,1.02,,0.414444444,-0.168888889,1,0,0,0,179,179,125,1,aanzien,images/br_aanzien.png,images/cb_aanzien.png,0,,,,,,,,,,,,,,,,,,,,,,
,,,,,00051,2023-10-15_16h50.38.331,vbt_B2_day3,2022.2.4,MacIntel,55.55555556,,,,,,down,0,4.306,,0.42,-0.156666667,1,0,0,0,180,180,111,1,ticket,images/br_ticket.png,images/cb_ticket.png,0,,,,,,,,,,,,,,,,,,,,,,
,,,,,00051,2023-10-15_16h50.38.331,vbt_B2_day3,2022.2.4,MacIntel,55.55555556,,,,,,down,0,6.472,,0.42,-0.156666667,1,0,0,0,181,181,172,1,weigeren,images/br_weigeren.png,images/cb_weigeren.png,0,,,,,,,,,,,,,,,,,,,,,,
,,,,,00051,2023-10-15_16h50.38.331,vbt_B2_day3,2022.2.4,MacIntel,55.55555556,,,,,,down,0,7.021,,0.165555556,0.155555556,1,0,0,0,182,182,123,1,hiervan,images/br_hiervan.png,images/cb_hiervan.png,0,,,,,,,,,,,,,,,,,,,,,,
,,,,,00051,2023-10-15_16h50.38.331,vbt_B2_day3,2022.2.4,MacIntel,55.55555556,,,,,,down,0,0.99,,0.165555556,0.155555556,1,0,0,0,183,183,21,1,mist,images/br_mist.png,images/cb_mist.png,1,mist,,,,,,,,,,,,,,,,,,,,,
,,,,,00051,2023-10-15_16h50.38.331,vbt_B2_day3,2022.2.4,MacIntel,55.55555556,,,,,,down,0,2.786,,0.165555556,0.153333333,1,0,0,0,184,184,14,1,rijp,images/br_rijp.png,images/cb_rijp.png,0,,,,,,,,,,,,,,,,,,,,,,
,,,,,00051,2023-10-15_16h50.38.331,vbt_B2_day3,2022.2.4,MacIntel,55.55555556,,,,,,down,0,1.686,,0.165555556,0.153333333,1,0,0,0,185,185,144,1,eetlust,images/br_eetlust.png,images/cb_eetlust.png,0,,,,,,,,,,,,,,,,,,,,,,
,,,,,00051,2023-10-15_16h50.38.331,vbt_B2_day3,2022.2.4,MacIntel,55.55555556,,,,,,down,0,1.839,,0.164444444,0.16,1,0,0,0,186,186,197,1,spanning,images/br_spanning.png,images/cb_spanning.png,0,,,,,,,,,,,,,,,,,,,,,,
,,,,,00051,2023-10-15_16h50.38.331,vbt_B2_day3,2022.2.4,MacIntel,55.55555556,,,,,,down,0,5.239,,0.164444444,0.16,1,0,0,0,187,187,133,1,seizoen,images/br_seizoen.png,images/cb_seizoen.png,0,,,,,,,,,,,,,,,,,,,,,,
,,,,,00051,2023-10-15_16h50.38.331,vbt_B2_day3,2022.2.4,MacIntel,55.55555556,,,,,,down,0,0.358,,0.164444444,0.16,1,0,0,0,188,188,28,1,stal,images/br_stal.png,images/cb_stal.png,0,,,,,,,,,,,,,,,,,,,,,,
,,,,,00051,2023-10-15_16h50.38.331,vbt_B2_day3,2022.2.4,MacIntel,55.55555556,,,,,,down,0,4.39,,0.164444444,0.16,1,0,0,0,189,189,27,1,dans,images/br_dans.png,images/cb_dans.png,0,,,,,,,,,,,,,,,,,,,,,,
,,,,,00051,2023-10-15_16h50.38.331,vbt_B2_day3,2022.2.4,MacIntel,55.55555556,,,,,,down,0,10.555,,0.164444444,0.16,1,0,0,0,190,190,36,1,vuur,images/br_vuur.png,images/cb_vuur.png,0,,,,,,,,,,,,,,,,,,,,,,
,,,,,00051,2023-10-15_16h50.38.331,vbt_B2_day3,2022.2.4,MacIntel,55.55555556,,,,,,down,0,2.585,,0.164444444,0.16,1,0,0,0,191,191,100,1,geduld,images/br_geduld.png,images/cb_geduld.png,1,geduld,,,,,,,,,,,,,,,,,,,,,
,,,,,00051,2023-10-15_16h50.38.331,vbt_B2_day3,2022.2.4,MacIntel,55.55555556,,,,,,down,0,6.183,,0.164444444,0.16,1,0,0,0,192,192,196,1,nakijken,images/br_nakijken.png,images/cb_nakijken.png,0,,,,,,,,,,,,,,,,,,,,,,
,,,,,00051,2023-10-15_16h50.38.331,vbt_B2_day3,2022.2.4,MacIntel,55.55555556,,,,,,down,0,3.051,,0.164444444,0.16,1,0,0,0,193,193,170,1,schatten,images/br_schatten.png,images/cb_schatten.png,0,,,,,,,,,,,,,,,,,,,,,,
,,,,,00051,2023-10-15_16h50.38.331,vbt_B2_day3,2022.2.4,MacIntel,55.55555556,,,,,,down,0,3.105,,0.164444444,0.16,1,0,0,0,194,194,71,1,bever,images/br_bever.png,images/cb_bever.png,0,,,,,,,,,,,,,,,,,,,,,,
,,,,,00051,2023-10-15_16h50.38.331,vbt_B2_day3,2022.2.4,MacIntel,55.55555556,,,,,,down,0,1.705,,0.164444444,0.16,1,0,0,0,195,195,81,1,dubbel,images/br_dubbel.png,images/cb_dubbel.png,0,,,,,,,,,,,,,,,,,,,,,,
,,,,,00051,2023-10-15_16h50.38.331,vbt_B2_day3,2022.2.4,MacIntel,55.55555556,,,,,,down,0,2.857,,0.164444444,0.16,1,0,0,0,196,196,155,1,gerucht,images/br_gerucht.png,images/cb_gerucht.png,0,,,,,,,,,,,,,,,,,,,,,,
,,,,,00051,2023-10-15_16h50.38.331,vbt_B2_day3,2022.2.4,MacIntel,55.55555556,,,,,,down,0,1.556,,0.164444444,0.16,1,0,0,0,197,197,188,1,strekken,images/br_strekken.png,images/cb_strekken.png,0,,,,,,,,,,,,,,,,,,,,,,
,,,,,00051,2023-10-15_16h50.38.331,vbt_B2_day3,2022.2.4,MacIntel,55.55555556,,,,,,down,0,3.606,,0.164444444,0.16,1,0,0,0,198,198,101,1,staren,images/br_staren.png,images/cb_staren.png,1,staren,,,,,,,,,,,,,,,,,,,,,
,,,,,00051,2023-10-15_16h50.38.331,vbt_B2_day3,2022.2.4,MacIntel,55.55555556,,,,,,down,0,6.622,,0.164444444,0.16,1,0,0,0,199,199,138,1,akkoord,images/br_akkoord.png,images/cb_akkoord.png,0,,,,,,,,,,,,,,,,,,,,,,
,,,,,00051,2023-10-15_16h50.38.331,vbt_B2_day3,2022.2.4,MacIntel,55.55555556,,,,,,,,,,,,,,,,,,,,,,,,,0.164444444,0.16,1,0,0,,,,,,,,,,,,,,,,
,,,,,00051,2023-10-15_16h50.38.331,vbt_B2_day3,2022.2.4,MacIntel,55.55555556,,,,,,,,,,,,,,,,,,,,,,,,,,,,,,0.052222222,0.138888889,1,0,0,,,,,,,,,,,
,,,,,00051,2023-10-15_16h50.38.331,vbt_B2_day3,2022.2.4,MacIntel,55.55555556,,,,,,,,,,,,,,,,,,,,beslag,images/br_beslag.png,images/cb_beslag.png,,bestaan,,,,,,,,,,,0,-0.051111111,1,0,0,bestaan,0,0,0,51,1
,,,,,00051,2023-10-15_16h50.38.331,vbt_B2_day3,2022.2.4,MacIntel,55.55555556,,,,,,,,,,,,,,,,,,,,steel,images/br_steel.png,images/cb_steel.png,,steel,,,,,,,,,,,0.065555556,-0.398888889,1,0,0,steel,0,1,1,4,1
,,,,,00051,2023-10-15_16h50.38.331,vbt_B2_day3,2022.2.4,MacIntel,55.55555556,,,,,,,,,,,,,,,,,,,,gezond,images/br_gezond.png,images/cb_gezond.png,,gezond,,,,,,,,,,,-0.021111111,-0.36,1,0,0,gezond,0,2,2,11,1
,,,,,00051,2023-10-15_16h50.38.331,vbt_B2_day3,2022.2.4,MacIntel,55.55555556,,,,,,,,,,,,,,,,,,,,schodel,images/br_schodel.png,images/cb_schodel.png,,schodel,,,,,,,,,,,0.014444444,-0.272222222,1,0,0,schodel,0,3,3,33,1
,,,,,00051,2023-10-15_16h50.38.331,vbt_B2_day3,2022.2.4,MacIntel,55.55555556,,,,,,,,,,,,,,,,,,,,stikken,images/br_stikken.png,images/cb_stikken.png,,stikken,,,,,,,,,,,-0.027777778,-0.363333333,1,0,0,stikken,0,4,4,54,1
,,,,,00051,2023-10-15_16h50.38.331,vbt_B2_day3,2022.2.4,MacIntel,55.55555556,,,,,,,,,,,,,,,,,,,,uviek,images/br_uviek.png,images/cb_uviek.png,,uvoek,,,,,,,,,,,-0.083333333,-0.37,1,0,0,uvoek,0,5,5,25,1
,,,,,00051,2023-10-15_16h50.38.331,vbt_B2_day3,2022.2.4,MacIntel,55.55555556,,,,,,,,,,,,,,,,,,,,hint,images/br_hint.png,images/cb_hint.png,,hint,,,,,,,,,,,-0.046666667,-0.385555556,1,0,0,hint,0,6,6,43,1
,,,,,00051,2023-10-15_16h50.38.331,vbt_B2_day3,2022.2.4,MacIntel,55.55555556,,,,,,,,,,,,,,,,,,,,zone,images/br_zone.png,images/cb_zone.png,,zone,,,,,,,,,,,-0.056666667,-0.415555556,1,0,0,zone,0,7,7,41,1
,,,,,00051,2023-10-15_16h50.38.331,vbt_B2_day3,2022.2.4,MacIntel,55.55555556,,,,,,,,,,,,,,,,,,,,gout,images/br_gout.png,images/cb_gout.png,,gout,,,,,,,,,,,-0.022222222,-0.337777778,1,0,0,gout,0,8,8,20,1
,,,,,00051,2023-10-15_16h50.38.331,vbt_B2_day3,2022.2.4,MacIntel,55.55555556,,,,,,,,,,,,,,,,,,,,vlager,images/br_vlager.png,images/cb_vlager.png,,vlager,,,,,,,,,,,0.007777778,-0.264444444,1,0,0,vlager,0,9,9,28,1
,,,,,00051,2023-10-15_16h50.38.331,vbt_B2_day3,2022.2.4,MacIntel,55.55555556,,,,,,,,,,,,,,,,,,,,booien,images/br_booien.png,images/cb_booien.png,,boeien,,,,,,,,,,,-0.043333333,-0.318888889,1,0,0,boeien,0,10,10,31,1
,,,,,00051,2023-10-15_16h50.38.331,vbt_B2_day3,2022.2.4,MacIntel,55.55555556,,,,,,,,,,,,,,,,,,,,glijden,images/br_glijden.png,images/cb_glijden.png,,glijden,,,,,,,,,,,-0.052222222,-0.383333333,1,0,0,glijden,0,11,11,53,1
,,,,,00051,2023-10-15_16h50.38.331,vbt_B2_day3,2022.2.4,MacIntel,55.55555556,,,,,,,,,,,,,,,,,,,,aarzelen,images/br_aarzelen.png,images/cb_aarzelen.png,,aarzelen,,,,,,,,,,,-0.066666667,-0.373333333,1,0,0,aarzelen,0,12,12,19,1
,,,,,00051,2023-10-15_16h50.38.331,vbt_B2_day3,2022.2.4,MacIntel,55.55555556,,,,,,,,,,,,,,,,,,,,onrecht,images/br_onrecht.png,images/cb_onrecht.png,,onrecht,,,,,,,,,,,-0.022222222,-0.325555556,1,0,0,onrecht,0,13,13,55,1
,,,,,00051,2023-10-15_16h50.38.331,vbt_B2_day3,2022.2.4,MacIntel,55.55555556,,,,,,,,,,,,,,,,,,,,theeting,images/br_theeting.png,images/cb_theeting.png,,tveet,,,,,,,,,,,0.044444444,-0.308888889,1,0,0,tveet,0,14,14,38,1
,,,,,00051,2023-10-15_16h50.38.331,vbt_B2_day3,2022.2.4,MacIntel,55.55555556,,,,,,,,,,,,,,,,,,,,leugeren,images/br_leugeren.png,images/cb_leugeren.png,,leuger,,,,,,,,,,,0.016666667,-0.311111111,1,0,0,leuger,0,15,15,37,1
,,,,,00051,2023-10-15_16h50.38.331,vbt_B2_day3,2022.2.4,MacIntel,55.55555556,,,,,,,,,,,,,,,,,,,,keihard,images/br_keihard.png,images/cb_keihard.png,,keifart,,,,,,,,,,,0.034444444,-0.305555556,1,0,0,keifart,0,16,16,14,1
,,,,,00051,2023-10-15_16h50.38.331,vbt_B2_day3,2022.2.4,MacIntel,55.55555556,,,,,,,,,,,,,,,,,,,,mode,images/br_mode.png,images/cb_mode.png,,mode,,,,,,,,,,,-0.017777778,-0.343333333,1,0,0,mode,0,17,17,3,1
,,,,,00051,2023-10-15_16h50.38.331,vbt_B2_day3,2022.2.4,MacIntel,55.55555556,,,,,,,,,,,,,,,,,,,,stallen,images/br_stallen.png,images/cb_stallen.png,,stallen,,,,,,,,,,,-0.063333333,-0.414444444,1,0,0,stallen,0,18,18,52,1
,,,,,00051,2023-10-15_16h50.38.331,vbt_B2_day3,2022.2.4,MacIntel,55.55555556,,,,,,,,,,,,,,,,,,,,laken,images/br_laken.png,images/cb_laken.png,,laken,,,,,,,,,,,-0.077777778,-0.398888889,1,0,0,laken,0,19,19,5,1
,,,,,00051,2023-10-15_16h50.38.331,vbt_B2_day3,2022.2.4,MacIntel,55.55555556,,,,,,,,,,,,,,,,,,,,stoom,images/br_stoom.png,images/cb_stoom.png,,stoom,,,,,,,,,,,-0.062222222,-0.346666667,1,0,0,stoom,0,20,20,6,1
,,,,,00051,2023-10-15_16h50.38.331,vbt_B2_day3,2022.2.4,MacIntel,55.55555556,,,,,,,,,,,,,,,,,,,,samen,images/br_samen.png,images/cb_samen.png,,samen,,,,,,,,,,,-0.095555556,-0.388888889,1,0,0,samen,0,21,21,7,1
,,,,,00051,2023-10-15_16h50.38.331,vbt_B2_day3,2022.2.4,MacIntel,55.55555556,,,,,,,,,,,,,,,,,,,,afbopen,images/br_afbopen.png,images/cb_afbopen.png,,apbo,,,,,,,,,,,-0.065555556,-0.433333333,1,0,0,apbo,0,22,22,34,1
,,,,,00051,2023-10-15_16h50.38.331,vbt_B2_day3,2022.2.4,MacIntel,55.55555556,,,,,,,,,,,,,,,,,,,,uniek,images/br_uniek.png,images/cb_uniek.png,,uniek,,,,,,,,,,,-0.106666667,-0.354444444,1,0,0,uniek,0,23,23,46,1
,,,,,00051,2023-10-15_16h50.38.331,vbt_B2_day3,2022.2.4,MacIntel,55.55555556,,,,,,,,,,,,,,,,,,,,invallen,images/br_invallen.png,images/cb_invallen.png,,invallen,,,,,,,,,,,-0.125555556,-0.387777778,1,0,0,invallen,0,24,24,57,1
,,,,,00051,2023-10-15_16h50.38.331,vbt_B2_day3,2022.2.4,MacIntel,55.55555556,,,,,,,,,,,,,,,,,,,,verhaal,images/br_verhaal.png,images/cb_verhaal.png,,verh,,,,,,,,,,,0.006666667,-0.274444444,1,0,0,verh,0,25,25,13,1
,,,,,00051,2023-10-15_16h50.38.331,vbt_B2_day3,2022.2.4,MacIntel,55.55555556,,,,,,,,,,,,,,,,,,,,leemaken,images/br_leemaken.png,images/cb_leemaken.png,,leem,,,,,,,,,,,0.383333333,-0.298888889,1,0,0,leem,0,26,26,39,1
,,,,,00051,2023-10-15_16h50.38.331,vbt_B2_day3,2022.2.4,MacIntel,55.55555556,,,,,,,,,,,,,,,,,,,,knie,images/br_knie.png,images/cb_knie.png,,knie,,,,,,,,,,,0.291111111,-0.351111111,1,0,0,knie,0,27,27,0,1
,,,,,00051,2023-10-15_16h50.38.331,vbt_B2_day3,2022.2.4,MacIntel,55.55555556,,,,,,,,,,,,,,,,,,,,slapen,images/br_slapen.png,images/cb_slapen.png,,slapen,,,,,,,,,,,0.226666667,-0.392222222,1,0,0,slapen,0,28,28,9,1
,,,,,00051,2023-10-15_16h50.38.331,vbt_B2_day3,2022.2.4,MacIntel,55.55555556,,,,,,,,,,,,,,,,,,,,geluid,images/br_geluid.png,images/cb_geluid.png,,geluid,,,,,,,,,,,0.162222222,-0.358888889,1,0,0,geluid,0,29,29,10,1
,,,,,00051,2023-10-15_16h50.38.331,vbt_B2_day3,2022.2.4,MacIntel,55.55555556,,,,,,,,,,,,,,,,,,,,schatten,images/br_schatten.png,images/cb_schatten.png,,schatten,,,,,,,,,,,0.154444444,-0.402222222,1,0,0,schatten,0,30,30,18,1
,,,,,00051,2023-10-15_16h50.38.331,vbt_B2_day3,2022.2.4,MacIntel,55.55555556,,,,,,,,,,,,,,,,,,,,alsof,images/br_alsof.png,images/cb_alsof.png,,alsof,,,,,,,,,,,0.067777778,-0.4,1,0,0,alsof,0,31,31,44,1
,,,,,00051,2023-10-15_16h50.38.331,vbt_B2_day3,2022.2.4,MacIntel,55.55555556,,,,,,,,,,,,,,,,,,,,kwaas,images/br_kwaas.png,images/cb_kwaas.png,,kwaas,,,,,,,,,,,0.01,-0.26,1,0,0,kwaas,0,32,32,26,1
,,,,,00051,2023-10-15_16h50.38.331,vbt_B2_day3,2022.2.4,MacIntel,55.55555556,,,,,,,,,,,,,,,,,,,,makieren,images/br_makieren.png,images/cb_makieren.png,,makkerij,,,,,,,,,,,0.051111111,-0.28,1,0,0,makkerij,0,33,33,36,1
,,,,,00051,2023-10-15_16h50.38.331,vbt_B2_day3,2022.2.4,MacIntel,55.55555556,,,,,,,,,,,,,,,,,,,,kaas,images/br_kaas.png,images/cb_kaas.png,,kaas,,,,,,,,,,,0.013333333,-0.268888889,1,0,0,kaas,0,34,34,42,1
,,,,,00051,2023-10-15_16h50.38.331,vbt_B2_day3,2022.2.4,MacIntel,55.55555556,,,,,,,,,,,,,,,,,,,,kest,images/br_kest.png,images/cb_kest.png,,kest,,,,,,,,,,,0.015555556,-0.283333333,1,0,0,kest,0,35,35,21,1
,,,,,00051,2023-10-15_16h50.38.331,vbt_B2_day3,2022.2.4,MacIntel,55.55555556,,,,,,,,,,,,,,,,,,,,hier,images/br_hier.png,images/cb_hier.png,,hier,,,,,,,,,,,0.04,-0.334444444,1,0,0,hier,0,36,36,1,1
,,,,,00051,2023-10-15_16h50.38.331,vbt_B2_day3,2022.2.4,MacIntel,55.55555556,,,,,,,,,,,,,,,,,,,,gebod,images/br_gebod.png,images/cb_gebod.png,,gebod,,,,,,,,,,,0.051111111,-0.272222222,1,0,0,gebod,0,37,37,45,1
,,,,,00051,2023-10-15_16h50.38.331,vbt_B2_day3,2022.2.4,MacIntel,55.55555556,,,,,,,,,,,,,,,,,,,,croo,images/br_croo.png,images/cb_croo.png,,chroo,,,,,,,,,,,0.027777778,-0.27,1,0,0,chroo,0,38,38,22,1
,,,,,00051,2023-10-15_16h50.38.331,vbt_B2_day3,2022.2.4,MacIntel,55.55555556,,,,,,,,,,,,,,,,,,,,sultan,images/br_sultan.png,images/cb_sultan.png,,sultan,,,,,,,,,,,0.015555556,-0.325555556,1,0,0,sultan,0,39,39,49,1
,,,,,00051,2023-10-15_16h50.38.331,vbt_B2_day3,2022.2.4,MacIntel,55.55555556,,,,,,,,,,,,,,,,,,,,jongelui,images/br_jongelui.png,images/cb_jongelui.png,,ion,,,,,,,,,,,0,-0.376666667,1,0,0,ion,0,40,40,59,1
,,,,,00051,2023-10-15_16h50.38.331,vbt_B2_day3,2022.2.4,MacIntel,55.55555556,,,,,,,,,,,,,,,,,,,,brappen,images/br_brappen.png,images/cb_brappen.png,,brappen,,,,,,,,,,,0.012222222,-0.276666667,1,0,0,brappen,0,41,41,35,1
,,,,,00051,2023-10-15_16h50.38.331,vbt_B2_day3,2022.2.4,MacIntel,55.55555556,,,,,,,,,,,,,,,,,,,,verwoor,images/br_verwoor.png,images/cb_verwoor.png,,verwoor,,,,,,,,,,,0.121111111,-0.264444444,1,0,0,verwoor,0,42,42,32,1
,,,,,00051,2023-10-15_16h50.38.331,vbt_B2_day3,2022.2.4,MacIntel,55.55555556,,,,,,,,,,,,,,,,,,,,opzicht,images/br_opzicht.png,images/cb_opzicht.png,,opzicht,,,,,,,,,,,0.087777778,-0.316666667,1,0,0,opzicht,0,43,43,15,1
,,,,,00051,2023-10-15_16h50.38.331,vbt_B2_day3,2022.2.4,MacIntel,55.55555556,,,,,,,,,,,,,,,,,,,,eens,images/br_eens.png,images/cb_eens.png,,eens,,,,,,,,,,,0.296666667,-0.213333333,1,0,0,eens,0,44,44,40,1
,,,,,00051,2023-10-15_16h50.38.331,vbt_B2_day3,2022.2.4,MacIntel,55.55555556,,,,,,,,,,,,,,,,,,,,sluier,images/br_sluier.png,images/cb_sluier.png,,sluier,,,,,,,,,,,0.262222222,-0.301111111,1,0,0,sluier,0,45,45,50,1
,,,,,00051,2023-10-15_16h50.38.331,vbt_B2_day3,2022.2.4,MacIntel,55.55555556,,,,,,,,,,,,,,,,,,,,hust,images/br_hust.png,images/cb_hust.png,,hust,,,,,,,,,,,0.153333333,-0.303333333,1,0,0,hust,0,46,46,23,1
,,,,,00051,2023-10-15_16h50.38.331,vbt_B2_day3,2022.2.4,MacIntel,55.55555556,,,,,,,,,,,,,,,,,,,,bevret,images/br_bevret.png,images/cb_bevret.png,,bevrek,,,,,,,,,,,0.057777778,-0.32,1,0,0,bevrek,0,47,47,30,1
,,,,,00051,2023-10-15_16h50.38.331,vbt_B2_day3,2022.2.4,MacIntel,55.55555556,,,,,,,,,,,,,,,,,,,,paken,images/br_paken.png,images/cb_paken.png,,paken,,,,,,,,,,,0.018888889,-0.291111111,1,0,0,paken,0,48,48,27,1
,,,,,00051,2023-10-15_16h50.38.331,vbt_B2_day3,2022.2.4,MacIntel,55.55555556,,,,,,,,,,,,,,,,,,,,leek,images/br_leek.png,images/cb_leek.png,,leek,,,,,,,,,,,-0.002222222,-0.346666667,1,0,0,leek,0,49,49,2,1
,,,,,00051,2023-10-15_16h50.38.331,vbt_B2_day3,2022.2.4,MacIntel,55.55555556,,,,,,,,,,,,,,,,,,,,prikken,images/br_prikken.png,images/cb_prikken.png,,prikken,,,,,,,,,,,-0.01,0.143333333,1,0,0,prikken,0,50,50,12,1
,,,,,00051,2023-10-15_16h50.38.331,vbt_B2_day3,2022.2.4,MacIntel,55.55555556,,,,,,,,,,,,,,,,,,,,oprotten,images/br_oprotten.png,images/cb_oprotten.png,,oprotten,,,,,,,,,,,0.053333333,-0.343333333,1,0,0,oprotten,0,51,51,17,1
,,,,,00051,2023-10-15_16h50.38.331,vbt_B2_day3,2022.2.4,MacIntel,55.55555556,,,,,,,,,,,,,,,,,,,,opzetten,images/br_opzetten.png,images/cb_opzetten.png,,opzetten,,,,,,,,,,,0.034444444,-0.448888889,1,0,0,opzetten,0,52,52,56,1
,,,,,00051,2023-10-15_16h50.38.331,vbt_B2_day3,2022.2.4,MacIntel,55.55555556,,,,,,,,,,,,,,,,,,,,verraden,images/br_verraden.png,images/cb_verraden.png,,verraden,,,,,,,,,,,0.016666667,-0.373333333,1,0,0,verraden,0,53,53,58,1
,,,,,00051,2023-10-15_16h50.38.331,vbt_B2_day3,2022.2.4,MacIntel,55.55555556,,,,,,,,,,,,,,,,,,,,twaaf,images/br_twaaf.png,images/cb_twaaf.png,,twaaf,,,,,,,,,,,0.025555556,-0.263333333,1,0,0,twaaf,0,54,54,24,1
,,,,,00051,2023-10-15_16h50.38.331,vbt_B2_day3,2022.2.4,MacIntel,55.55555556,,,,,,,,,,,,,,,,,,,,mugeek,images/br_mugeek.png,images/cb_mugeek.png,,mugeek,,,,,,,,,,,0.016666667,-0.326666667,1,0,0,mugeek,0,55,55,29,1
,,,,,00051,2023-10-15_16h50.38.331,vbt_B2_day3,2022.2.4,MacIntel,55.55555556,,,,,,,,,,,,,,,,,,,,begrip,images/br_begrip.png,images/cb_begrip.png,,begrip,,,,,,,,,,,-0.026666667,-0.395555556,1,0,0,begrip,0,56,56,48,1
,,,,,00051,2023-10-15_16h50.38.331,vbt_B2_day3,2022.2.4,MacIntel,55.55555556,,,,,,,,,,,,,,,,,,,,boeien,images/br_boeien.png,images/cb_boeien.png,,boeien,,,,,,,,,,,-0.108888889,-0.406666667,1,0,0,boeien,0,57,57,8,1
,,,,,00051,2023-10-15_16h50.38.331,vbt_B2_day3,2022.2.4,MacIntel,55.55555556,,,,,,,,,,,,,,,,,,,,bisschop,images/br_bisschop.png,images/cb_bisschop.png,,bisschop,,,,,,,,,,,-0.106666667,-0.347777778,1,0,0,bisschop,0,58,58,16,1
,,,,,00051,2023-10-15_16h50.38.331,vbt_B2_day3,2022.2.4,MacIntel,55.55555556,,,,,,,,,,,,,,,,,,,,dwang,images/br_dwang.png,images/cb_dwang.png,,dwa,,,,,,,,,,,0.004444444,-0.376666667,1,0,0,dwa,0,59,59,47,1
,,,,,00051,2023-10-15_16h50.38.331,vbt_B2_day3,2022.2.4,MacIntel,55.55555556,,,,,,,,,,,,,,,,,,,,,,,,,,,,,,,,,,,,,,,,,,,,,
