welcome_mouse.x,welcome_mouse.y,welcome_mouse.leftButton,welcome_mouse.midButton,welcome_mouse.rightButton,"ID",date,expName,psychopyVersion,OS,frameRate,trainInstr_mouse.x,trainInstr_mouse.y,trainInstr_mouse.leftButton,trainInstr_mouse.midButton,trainInstr_mouse.rightButton,translation_key.keys,translation_key.corr,translation_key.rt,word_rsp.text,trWrd_mouse.x,trWrd_mouse.y,trWrd_mouse.leftButton,trWrd_mouse.midButton,trWrd_mouse.rightButton,train_loop.thisRepN,train_loop.thisTrialN,train_loop.thisN,train_loop.thisIndex,train_loop.ran,nlWrd,brWrd,cbWrd,test,testResp,mouse.x,mouse.y,mouse.leftButton,mouse.midButton,mouse.rightButton,testInstr_mouse.x,testInstr_mouse.y,testInstr_mouse.leftButton,testInstr_mouse.midButton,testInstr_mouse.rightButton,test_mouse.x,test_mouse.y,test_mouse.leftButton,test_mouse.midButton,test_mouse.rightButton,test_response.text,test_loop.thisRepN,test_loop.thisTrialN,test_loop.thisN,test_loop.thisIndex,test_loop.ran
0.088888889,-0.163333333,1,0,0,,2023-10-15_08h06.23,vbt_B2_day3,2022.2.4,MacIntel,250,,,,,,,,,,,,,,,,,,,,,,,,,,,,,,,,,,,,,,,,,,,,,
,,,,,,2023-10-15_08h06.23,vbt_B2_day3,2022.2.4,MacIntel,250,0.087777778,-0.162222222,1,0,0,,,,,,,,,,,,,,,,,,,,,,,,,,,,,,,,,,,,,,,,
,,,,,,2023-10-15_08h06.23,vbt_B2_day3,2022.2.4,MacIntel,250,,,,,,down,0,5.422,,0.087777778,-0.162222222,1,0,0,0,0,0,115,1,kleren,images/br_kleren.png,images/cb_kleren.png,0,,,,,,,,,,,,,,,,,,,,,,
,,,,,,2023-10-15_08h06.23,vbt_B2_day3,2022.2.4,MacIntel,250,,,,,,down,0,4.791,,0.093333333,-0.143333333,1,0,0,0,1,1,157,1,uitlaat,images/br_uitlaat.png,images/cb_uitlaat.png,0,,,,,,,,,,,,,,,,,,,,,,
,,,,,,2023-10-15_08h06.23,vbt_B2_day3,2022.2.4,MacIntel,250,,,,,,down,0,1.573,,0.093333333,-0.143333333,1,0,0,0,2,2,73,1,volop,images/br_volop.png,images/cb_volop.png,0,,,,,,,,,,,,,,,,,,,,,,
,,,,,,2023-10-15_08h06.23,vbt_B2_day3,2022.2.4,MacIntel,250,,,,,,down,0,0.868,,0.093333333,-0.143333333,1,0,0,0,3,3,7,1,geld,images/br_geld.png,images/cb_geld.png,0,,,,,,,,,,,,,,,,,,,,,,
,,,,,,2023-10-15_08h06.23,vbt_B2_day3,2022.2.4,MacIntel,250,,,,,,down,0,8.951,,0.093333333,-0.143333333,1,0,0,0,4,4,105,1,wijlen,images/br_wijlen.png,images/cb_wijlen.png,0,,,,,,,,,,,,,,,,,,,,,,
,,,,,,2023-10-15_08h06.23,vbt_B2_day3,2022.2.4,MacIntel,250,,,,,,down,0,2.17,,0.093333333,-0.144444444,1,0,0,0,5,5,69,1,waken,images/br_waken.png,images/cb_waken.png,0,,,,,,,,,,,,,,,,,,,,,,
,,,,,,2023-10-15_08h06.23,vbt_B2_day3,2022.2.4,MacIntel,250,,,,,,down,0,6.466,,0.093333333,-0.144444444,1,0,0,0,6,6,151,1,aanzoek,images/br_aanzoek.png,images/cb_aanzoek.png,0,,,,,,,,,,,,,,,,,,,,,,
,,,,,,2023-10-15_08h06.23,vbt_B2_day3,2022.2.4,MacIntel,250,,,,,,down,0,8.151,,0.092222222,-0.145555556,1,0,0,0,7,7,164,1,anarchie,images/br_anarchie.png,images/cb_anarchie.png,0,,,,,,,,,,,,,,,,,,,,,,
,,,,,,2023-10-15_08h06.23,vbt_B2_day3,2022.2.4,MacIntel,250,,,,,,down,0,5.184,,0.092222222,-0.145555556,1,0,0,0,8,8,169,1,oprotten,images/br_oprotten.png,images/cb_oprotten.png,0,,,,,,,,,,,,,,,,,,,,,,
,,,,,,2023-10-15_08h06.23,vbt_B2_day3,2022.2.4,MacIntel,250,,,,,,down,0,3.416,,0.093333333,-0.145555556,1,0,0,0,9,9,199,1,beseffen,images/br_beseffen.png,images/cb_beseffen.png,0,,,,,,,,,,,,,,,,,,,,,,
,,,,,,2023-10-15_08h06.23,vbt_B2_day3,2022.2.4,MacIntel,250,,,,,,down,0,6.685,,0.093333333,-0.146666667,1,0,0,0,10,10,183,1,getuigen,images/br_getuigen.png,images/cb_getuigen.png,1,getuigen,,,,,,,,,,,,,,,,,,,,,
,,,,,,2023-10-15_08h06.23,vbt_B2_day3,2022.2.4,MacIntel,250,,,,,,down,0,1.094,,0.092222222,-0.145555556,1,0,0,0,11,11,28,1,stal,images/br_stal.png,images/cb_stal.png,0,,,,,,,,,,,,,,,,,,,,,,
,,,,,,2023-10-15_08h06.23,vbt_B2_day3,2022.2.4,MacIntel,250,,,,,,down,0,14.602,,-0.045555556,-0.337777778,1,0,0,0,12,12,180,1,openbaar,images/br_openbaar.png,images/cb_openbaar.png,1,openbaar,,,,,,,,,,,,,,,,,,,,,
,,,,,,2023-10-15_08h06.23,vbt_B2_day3,2022.2.4,MacIntel,250,,,,,,down,0,6.534,,-0.045555556,-0.337777778,1,0,0,0,13,13,99,1,koffie,images/br_koffie.png,images/cb_koffie.png,0,,,,,,,,,,,,,,,,,,,,,,
,,,,,,2023-10-15_08h06.23,vbt_B2_day3,2022.2.4,MacIntel,250,,,,,,down,0,2.418,,-0.045555556,-0.337777778,1,0,0,0,14,14,85,1,heilig,images/br_heilig.png,images/cb_heilig.png,0,,,,,,,,,,,,,,,,,,,,,,
,,,,,,2023-10-15_08h06.23,vbt_B2_day3,2022.2.4,MacIntel,250,,,,,,down,0,3.244,,-0.043333333,-0.337777778,1,0,0,0,15,15,14,1,rijp,images/br_rijp.png,images/cb_rijp.png,0,,,,,,,,,,,,,,,,,,,,,,
,,,,,,2023-10-15_08h06.23,vbt_B2_day3,2022.2.4,MacIntel,250,,,,,,down,0,4.258,,-0.043333333,-0.338888889,1,0,0,0,16,16,95,1,vreten,images/br_vreten.png,images/cb_vreten.png,0,,,,,,,,,,,,,,,,,,,,,,
,,,,,,2023-10-15_08h06.23,vbt_B2_day3,2022.2.4,MacIntel,250,,,,,,down,0,3.941,,-0.043333333,-0.338888889,1,0,0,0,17,17,140,1,blijven,images/br_blijven.png,images/cb_blijven.png,1,blijven,,,,,,,,,,,,,,,,,,,,,
,,,,,,2023-10-15_08h06.23,vbt_B2_day3,2022.2.4,MacIntel,250,,,,,,down,0,2.392,,-0.043333333,-0.341111111,1,0,0,0,18,18,125,1,aanzien,images/br_aanzien.png,images/cb_aanzien.png,0,,,,,,,,,,,,,,,,,,,,,,
,,,,,,2023-10-15_08h06.23,vbt_B2_day3,2022.2.4,MacIntel,250,,,,,,down,0,2.517,,-0.043333333,-0.341111111,1,0,0,0,19,19,139,1,stiekem,images/br_stiekem.png,images/cb_stiekem.png,0,,,,,,,,,,,,,,,,,,,,,,
,,,,,,2023-10-15_08h06.23,vbt_B2_day3,2022.2.4,MacIntel,250,,,,,,down,0,4.815,,-0.043333333,-0.342222222,1,0,0,0,20,20,170,1,schatten,images/br_schatten.png,images/cb_schatten.png,0,,,,,,,,,,,,,,,,,,,,,,
,,,,,,2023-10-15_08h06.23,vbt_B2_day3,2022.2.4,MacIntel,250,,,,,,down,0,4.059,,-0.043333333,-0.341111111,1,0,0,0,21,21,114,1,vullen,images/br_vullen.png,images/cb_vullen.png,0,,,,,,,,,,,,,,,,,,,,,,
,,,,,,2023-10-15_08h06.23,vbt_B2_day3,2022.2.4,MacIntel,250,,,,,,down,0,2.558,,-0.043333333,-0.342222222,1,0,0,0,22,22,32,1,palm,images/br_palm.png,images/cb_palm.png,0,,,,,,,,,,,,,,,,,,,,,,
,,,,,,2023-10-15_08h06.23,vbt_B2_day3,2022.2.4,MacIntel,250,,,,,,down,0,3.21,,-0.042222222,-0.342222222,1,0,0,0,23,23,131,1,opzicht,images/br_opzicht.png,images/cb_opzicht.png,0,,,,,,,,,,,,,,,,,,,,,,
,,,,,,2023-10-15_08h06.23,vbt_B2_day3,2022.2.4,MacIntel,250,,,,,,down,0,0.874,,-0.042222222,-0.343333333,1,0,0,0,24,24,150,1,gegeven,images/br_gegeven.png,images/cb_gegeven.png,0,,,,,,,,,,,,,,,,,,,,,,
,,,,,,2023-10-15_08h06.23,vbt_B2_day3,2022.2.4,MacIntel,250,,,,,,down,0,2.3,,-0.038888889,-0.344444444,1,0,0,0,25,25,148,1,smullen,images/br_smullen.png,images/cb_smullen.png,0,,,,,,,,,,,,,,,,,,,,,,
,,,,,,2023-10-15_08h06.23,vbt_B2_day3,2022.2.4,MacIntel,250,,,,,,down,0,3.568,,-0.04,-0.347777778,1,0,0,0,26,26,31,1,poes,images/br_poes.png,images/cb_poes.png,0,,,,,,,,,,,,,,,,,,,,,,
,,,,,,2023-10-15_08h06.23,vbt_B2_day3,2022.2.4,MacIntel,250,,,,,,down,0,8.118,,-0.036666667,-0.344444444,1,0,0,0,27,27,60,1,jasje,images/br_jasje.png,images/cb_jasje.png,1,jasje,,,,,,,,,,,,,,,,,,,,,
,,,,,,2023-10-15_08h06.23,vbt_B2_day3,2022.2.4,MacIntel,250,,,,,,down,0,5.434,,-0.037777778,-0.345555556,1,0,0,0,28,28,54,1,gebit,images/br_gebit.png,images/cb_gebit.png,0,,,,,,,,,,,,,,,,,,,,,,
,,,,,,2023-10-15_08h06.23,vbt_B2_day3,2022.2.4,MacIntel,250,,,,,,down,0,2.925,,-0.037777778,-0.345555556,1,0,0,0,29,29,11,1,mode,images/br_mode.png,images/cb_mode.png,0,,,,,,,,,,,,,,,,,,,,,,
,,,,,,2023-10-15_08h06.23,vbt_B2_day3,2022.2.4,MacIntel,250,,,,,,down,0,14.626,,-0.037777778,-0.345555556,1,0,0,0,30,30,194,1,driemaal,images/br_driemaal.png,images/cb_driemaal.png,0,,,,,,,,,,,,,,,,,,,,,,
,,,,,,2023-10-15_08h06.23,vbt_B2_day3,2022.2.4,MacIntel,250,,,,,,down,0,6.517,,-0.037777778,-0.345555556,1,0,0,0,31,31,107,1,maling,images/br_maling.png,images/cb_maling.png,0,,,,,,,,,,,,,,,,,,,,,,
,,,,,,2023-10-15_08h06.23,vbt_B2_day3,2022.2.4,MacIntel,250,,,,,,down,0,3.825,,-0.037777778,-0.345555556,1,0,0,0,32,32,53,1,baron,images/br_baron.png,images/cb_baron.png,0,,,,,,,,,,,,,,,,,,,,,,
,,,,,,2023-10-15_08h06.23,vbt_B2_day3,2022.2.4,MacIntel,250,,,,,,down,0,0.558,,-0.036666667,-0.345555556,1,0,0,0,33,33,50,1,stoom,images/br_stoom.png,images/cb_stoom.png,0,,,,,,,,,,,,,,,,,,,,,,
,,,,,,2023-10-15_08h06.23,vbt_B2_day3,2022.2.4,MacIntel,250,,,,,,down,0,3.89,,-0.036666667,-0.346666667,1,0,0,0,34,34,162,1,uitdelen,images/br_uitdelen.png,images/cb_uitdelen.png,0,,,,,,,,,,,,,,,,,,,,,,
,,,,,,2023-10-15_08h06.23,vbt_B2_day3,2022.2.4,MacIntel,250,,,,,,down,0,1.576,,-0.037777778,-0.346666667,1,0,0,0,35,35,66,1,lever,images/br_lever.png,images/cb_lever.png,0,,,,,,,,,,,,,,,,,,,,,,
,,,,,,2023-10-15_08h06.23,vbt_B2_day3,2022.2.4,MacIntel,250,,,,,,down,0,1.383,,-0.037777778,-0.347777778,1,0,0,0,36,36,35,1,lust,images/br_lust.png,images/cb_lust.png,0,,,,,,,,,,,,,,,,,,,,,,
,,,,,,2023-10-15_08h06.23,vbt_B2_day3,2022.2.4,MacIntel,250,,,,,,down,0,2.092,,-0.036666667,-0.348888889,1,0,0,0,37,37,51,1,samen,images/br_samen.png,images/cb_samen.png,0,,,,,,,,,,,,,,,,,,,,,,
,,,,,,2023-10-15_08h06.23,vbt_B2_day3,2022.2.4,MacIntel,250,,,,,,down,0,3.243,,-0.036666667,-0.348888889,1,0,0,0,38,38,22,1,stof,images/br_stof.png,images/cb_stof.png,1,stof,,,,,,,,,,,,,,,,,,,,,
,,,,,,2023-10-15_08h06.23,vbt_B2_day3,2022.2.4,MacIntel,250,,,,,,down,0,13.476,,-0.036666667,-0.348888889,1,0,0,0,39,39,143,1,hechten,images/br_hechten.png,images/cb_hechten.png,1,hechten,,,,,,,,,,,,,,,,,,,,,
,,,,,,2023-10-15_08h06.23,vbt_B2_day3,2022.2.4,MacIntel,250,,,,,,down,0,2.016,,-0.036666667,-0.348888889,1,0,0,0,40,40,5,1,blad,images/br_blad.png,images/cb_blad.png,0,,,,,,,,,,,,,,,,,,,,,,
,,,,,,2023-10-15_08h06.23,vbt_B2_day3,2022.2.4,MacIntel,250,,,,,,down,0,2.525,,-0.037777778,-0.35,1,0,0,0,41,41,81,1,dubbel,images/br_dubbel.png,images/cb_dubbel.png,0,,,,,,,,,,,,,,,,,,,,,,
,,,,,,2023-10-15_08h06.23,vbt_B2_day3,2022.2.4,MacIntel,250,,,,,,down,0,2.812,,-0.037777778,-0.351111111,1,0,0,0,42,42,0,1,slak,images/br_slak.png,images/cb_slak.png,0,,,,,,,,,,,,,,,,,,,,,,
,,,,,,2023-10-15_08h06.23,vbt_B2_day3,2022.2.4,MacIntel,250,,,,,,down,0,2.402,,-0.036666667,-0.353333333,1,0,0,0,43,43,45,1,piste,images/br_piste.png,images/cb_piste.png,0,,,,,,,,,,,,,,,,,,,,,,
,,,,,,2023-10-15_08h06.23,vbt_B2_day3,2022.2.4,MacIntel,250,,,,,,down,0,1.215,,-0.035555556,-0.353333333,1,0,0,0,44,44,109,1,totaal,images/br_totaal.png,images/cb_totaal.png,0,,,,,,,,,,,,,,,,,,,,,,
,,,,,,2023-10-15_08h06.23,vbt_B2_day3,2022.2.4,MacIntel,250,,,,,,down,0,3.443,,-0.037777778,-0.355555556,1,0,0,0,45,45,86,1,woning,images/br_woning.png,images/cb_woning.png,0,,,,,,,,,,,,,,,,,,,,,,
,,,,,,2023-10-15_08h06.23,vbt_B2_day3,2022.2.4,MacIntel,250,,,,,,down,0,8.335,,-0.037777778,-0.355555556,1,0,0,0,46,46,67,1,zwart,images/br_zwart.png,images/cb_zwart.png,0,,,,,,,,,,,,,,,,,,,,,,
,,,,,,2023-10-15_08h06.23,vbt_B2_day3,2022.2.4,MacIntel,250,,,,,,down,0,1.274,,-0.037777778,-0.355555556,1,0,0,0,47,47,16,1,ziek,images/br_ziek.png,images/cb_ziek.png,0,,,,,,,,,,,,,,,,,,,,,,
,,,,,,2023-10-15_08h06.23,vbt_B2_day3,2022.2.4,MacIntel,250,,,,,,down,0,5.251,,-0.037777778,-0.355555556,1,0,0,0,48,48,182,1,bijkomen,images/br_bijkomen.png,images/cb_bijkomen.png,1,,,,,,,,,,,,,,,,,,,,,,
,,,,,,2023-10-15_08h06.23,vbt_B2_day3,2022.2.4,MacIntel,250,,,,,,down,0,41.885,,-0.036666667,-0.355555556,1,0,0,0,49,49,158,1,innemen,images/br_innemen.png,images/cb_innemen.png,0,,,,,,,,,,,,,,,,,,,,,,
,,,,,,2023-10-15_08h06.23,vbt_B2_day3,2022.2.4,MacIntel,250,,,,,,down,0,7.61,,-0.035555556,-0.353333333,1,0,0,0,50,50,136,1,waarbij,images/br_waarbij.png,images/cb_waarbij.png,0,,,,,,,,,,,,,,,,,,,,,,
,,,,,,2023-10-15_08h06.23,vbt_B2_day3,2022.2.4,MacIntel,250,,,,,,down,0,1,,-0.035555556,-0.355555556,1,0,0,0,51,51,19,1,geit,images/br_geit.png,images/cb_geit.png,0,,,,,,,,,,,,,,,,,,,,,,
,,,,,,2023-10-15_08h06.23,vbt_B2_day3,2022.2.4,MacIntel,250,,,,,,down,0,9.931,,-0.035555556,-0.355555556,1,0,0,0,52,52,91,1,gezond,images/br_gezond.png,images/cb_gezond.png,0,,,,,,,,,,,,,,,,,,,,,,
,,,,,,2023-10-15_08h06.23,vbt_B2_day3,2022.2.4,MacIntel,250,,,,,,down,0,7.717,,-0.036666667,-0.355555556,1,0,0,0,53,53,30,1,uien,images/br_uien.png,images/cb_uien.png,0,,,,,,,,,,,,,,,,,,,,,,
,,,,,,2023-10-15_08h06.23,vbt_B2_day3,2022.2.4,MacIntel,250,,,,,,down,0,16.108,,-0.035555556,-0.356666667,1,0,0,0,54,54,100,1,geduld,images/br_geduld.png,images/cb_geduld.png,1,geduld ,,,,,,,,,,,,,,,,,,,,,
,,,,,,2023-10-15_08h06.23,vbt_B2_day3,2022.2.4,MacIntel,250,,,,,,down,0,3.243,,-0.035555556,-0.358888889,1,0,0,0,55,55,138,1,akkoord,images/br_akkoord.png,images/cb_akkoord.png,0,,,,,,,,,,,,,,,,,,,,,,
,,,,,,2023-10-15_08h06.23,vbt_B2_day3,2022.2.4,MacIntel,250,,,,,,down,0,13.725,,-0.035555556,-0.358888889,1,0,0,0,56,56,152,1,afnemen,images/br_afnemen.png,images/cb_afnemen.png,0,,,,,,,,,,,,,,,,,,,,,,
,,,,,,2023-10-15_08h06.23,vbt_B2_day3,2022.2.4,MacIntel,250,,,,,,down,0,4.461,,-0.035555556,-0.358888889,1,0,0,0,57,57,141,1,knielen,images/br_knielen.png,images/cb_knielen.png,1,knielen,,,,,,,,,,,,,,,,,,,,,
,,,,,,2023-10-15_08h06.23,vbt_B2_day3,2022.2.4,MacIntel,250,,,,,,down,0,3.474,,-0.035555556,-0.358888889,1,0,0,0,58,58,79,1,nodig,images/br_nodig.png,images/cb_nodig.png,0,,,,,,,,,,,,,,,,,,,,,,
,,,,,,2023-10-15_08h06.23,vbt_B2_day3,2022.2.4,MacIntel,250,,,,,,down,0,2.951,,-0.035555556,-0.358888889,1,0,0,0,59,59,3,1,mand,images/br_mand.png,images/cb_mand.png,0,,,,,,,,,,,,,,,,,,,,,,
,,,,,,2023-10-15_08h06.23,vbt_B2_day3,2022.2.4,MacIntel,250,,,,,,down,0,6.5,,-0.035555556,-0.36,1,0,0,0,60,60,178,1,huisdier,images/br_huisdier.png,images/cb_huisdier.png,0,,,,,,,,,,,,,,,,,,,,,,
,,,,,,2023-10-15_08h06.23,vbt_B2_day3,2022.2.4,MacIntel,250,,,,,,down,0,3.934,,-0.035555556,-0.358888889,1,0,0,0,61,61,33,1,vlek,images/br_vlek.png,images/cb_vlek.png,0,,,,,,,,,,,,,,,,,,,,,,
,,,,,,2023-10-15_08h06.23,vbt_B2_day3,2022.2.4,MacIntel,250,,,,,,down,0,4.473,,-0.035555556,-0.361111111,1,0,0,0,62,62,196,1,nakijken,images/br_nakijken.png,images/cb_nakijken.png,0,,,,,,,,,,,,,,,,,,,,,,
,,,,,,2023-10-15_08h06.23,vbt_B2_day3,2022.2.4,MacIntel,250,,,,,,down,0,11.849,,-0.035555556,-0.361111111,1,0,0,0,63,63,58,1,tekst,images/br_tekst.png,images/cb_tekst.png,0,,,,,,,,,,,,,,,,,,,,,,
,,,,,,2023-10-15_08h06.23,vbt_B2_day3,2022.2.4,MacIntel,250,,,,,,down,0,3.344,,-0.036666667,-0.361111111,1,0,0,0,64,64,117,1,kennis,images/br_kennis.png,images/cb_kennis.png,0,,,,,,,,,,,,,,,,,,,,,,
,,,,,,2023-10-15_08h06.23,vbt_B2_day3,2022.2.4,MacIntel,250,,,,,,down,0,3.315,,-0.036666667,-0.361111111,1,0,0,0,65,65,104,1,zweven,images/br_zweven.png,images/cb_zweven.png,0,,,,,,,,,,,,,,,,,,,,,,
,,,,,,2023-10-15_08h06.23,vbt_B2_day3,2022.2.4,MacIntel,250,,,,,,down,0,1.833,,-0.036666667,-0.363333333,1,0,0,0,66,66,20,1,site,images/br_site.png,images/cb_site.png,1,site,,,,,,,,,,,,,,,,,,,,,
,,,,,,2023-10-15_08h06.23,vbt_B2_day3,2022.2.4,MacIntel,250,,,,,,down,0,3.542,,-0.036666667,-0.363333333,1,0,0,0,67,67,98,1,kreeft,images/br_kreeft.png,images/cb_kreeft.png,0,,,,,,,,,,,,,,,,,,,,,,
,,,,,,2023-10-15_08h06.23,vbt_B2_day3,2022.2.4,MacIntel,250,,,,,,down,0,5.95,,-0.036666667,-0.363333333,0,0,1,0,68,68,155,1,gerucht,images/br_gerucht.png,images/cb_gerucht.png,0,,,,,,,,,,,,,,,,,,,,,,
,,,,,,2023-10-15_08h06.23,vbt_B2_day3,2022.2.4,MacIntel,250,,,,,,down,0,11.25,,-0.012222222,-0.292222222,1,0,1,0,69,69,108,1,excuus,images/br_excuus.png,images/cb_excuus.png,0,,,,,,,,,,,,,,,,,,,,,,
,,,,,,2023-10-15_08h06.23,vbt_B2_day3,2022.2.4,MacIntel,250,,,,,,down,0,3.292,,-0.012222222,-0.292222222,1,0,1,0,70,70,193,1,weeshuis,images/br_weeshuis.png,images/cb_weeshuis.png,0,,,,,,,,,,,,,,,,,,,,,,
,,,,,,2023-10-15_08h06.23,vbt_B2_day3,2022.2.4,MacIntel,250,,,,,,down,0,4.432,,-0.013333333,-0.292222222,1,0,1,0,71,71,123,1,hiervan,images/br_hiervan.png,images/cb_hiervan.png,0,,,,,,,,,,,,,,,,,,,,,,
,,,,,,2023-10-15_08h06.23,vbt_B2_day3,2022.2.4,MacIntel,250,,,,,,down,0,5.235,,-0.012222222,-0.291111111,1,0,1,0,72,72,43,1,klauw,images/br_klauw.png,images/cb_klauw.png,0,,,,,,,,,,,,,,,,,,,,,,
,,,,,,2023-10-15_08h06.23,vbt_B2_day3,2022.2.4,MacIntel,250,,,,,,down,0,4.076,,-0.015555556,-0.292222222,1,0,1,0,73,73,195,1,middelen,images/br_middelen.png,images/cb_middelen.png,0,,,,,,,,,,,,,,,,,,,,,,
,,,,,,2023-10-15_08h06.23,vbt_B2_day3,2022.2.4,MacIntel,250,,,,,,down,0,3.039,,-0.015555556,-0.294444444,1,0,1,0,74,74,70,1,ijdel,images/br_ijdel.png,images/cb_ijdel.png,0,,,,,,,,,,,,,,,,,,,,,,
,,,,,,2023-10-15_08h06.23,vbt_B2_day3,2022.2.4,MacIntel,250,,,,,,down,0,0.417,,-0.015555556,-0.294444444,1,0,1,0,75,75,29,1,baas,images/br_baas.png,images/cb_baas.png,0,,,,,,,,,,,,,,,,,,,,,,
,,,,,,2023-10-15_08h06.23,vbt_B2_day3,2022.2.4,MacIntel,250,,,,,,down,0,5.691,,-0.014444444,-0.294444444,1,0,1,0,76,76,179,1,woestijn,images/br_woestijn.png,images/cb_woestijn.png,0,,,,,,,,,,,,,,,,,,,,,,
,,,,,,2023-10-15_08h06.23,vbt_B2_day3,2022.2.4,MacIntel,250,,,,,,down,0,0.625,,-0.014444444,-0.293333333,1,0,1,0,77,77,48,1,steel,images/br_steel.png,images/cb_steel.png,0,,,,,,,,,,,,,,,,,,,,,,
,,,,,,2023-10-15_08h06.23,vbt_B2_day3,2022.2.4,MacIntel,250,,,,,,down,0,5.566,,-0.013333333,-0.294444444,1,0,1,0,78,78,110,1,zuster,images/br_zuster.png,images/cb_zuster.png,0,,,,,,,,,,,,,,,,,,,,,,
,,,,,,2023-10-15_08h06.23,vbt_B2_day3,2022.2.4,MacIntel,250,,,,,,down,0,3.648,,-0.013333333,-0.294444444,1,0,1,0,79,79,92,1,geheim,images/br_geheim.png,images/cb_geheim.png,0,,,,,,,,,,,,,,,,,,,,,,
,,,,,,2023-10-15_08h06.23,vbt_B2_day3,2022.2.4,MacIntel,250,,,,,,down,0,9.092,,-0.014444444,-0.294444444,1,0,1,0,80,80,38,1,baai,images/br_baai.png,images/cb_baai.png,0,,,,,,,,,,,,,,,,,,,,,,
,,,,,,2023-10-15_08h06.23,vbt_B2_day3,2022.2.4,MacIntel,250,,,,,,down,0,4.634,,-0.013333333,-0.294444444,1,0,1,0,81,81,15,1,soda,images/br_soda.png,images/cb_soda.png,0,,,,,,,,,,,,,,,,,,,,,,
,,,,,,2023-10-15_08h06.23,vbt_B2_day3,2022.2.4,MacIntel,250,,,,,,down,0,3.701,,-0.011111111,-0.297777778,1,0,1,0,82,82,165,1,feestdag,images/br_feestdag.png,images/cb_feestdag.png,0,,,,,,,,,,,,,,,,,,,,,,
,,,,,,2023-10-15_08h06.23,vbt_B2_day3,2022.2.4,MacIntel,250,,,,,,down,0,8.86,,-0.011111111,-0.298888889,1,0,1,0,83,83,25,1,plek,images/br_plek.png,images/cb_plek.png,0,,,,,,,,,,,,,,,,,,,,,,
,,,,,,2023-10-15_08h06.23,vbt_B2_day3,2022.2.4,MacIntel,250,,,,,,down,0,8.517,,-0.01,-0.301111111,1,0,1,0,84,84,62,1,knaap,images/br_knaap.png,images/cb_knaap.png,1,knaap,,,,,,,,,,,,,,,,,,,,,
,,,,,,2023-10-15_08h06.23,vbt_B2_day3,2022.2.4,MacIntel,250,,,,,,down,0,4.524,,-0.01,-0.301111111,1,0,1,0,85,85,159,1,sufferd,images/br_sufferd.png,images/cb_sufferd.png,0,,,,,,,,,,,,,,,,,,,,,,
,,,,,,2023-10-15_08h06.23,vbt_B2_day3,2022.2.4,MacIntel,250,,,,,,down,0,14.667,,-0.01,-0.302222222,1,0,1,0,86,86,4,1,moes,images/br_moes.png,images/cb_moes.png,0,,,,,,,,,,,,,,,,,,,,,,
,,,,,,2023-10-15_08h06.23,vbt_B2_day3,2022.2.4,MacIntel,250,,,,,,down,0,5.658,,-0.01,-0.304444444,1,0,1,0,87,87,137,1,trekker,images/br_trekker.png,images/cb_trekker.png,0,,,,,,,,,,,,,,,,,,,,,,
,,,,,,2023-10-15_08h06.23,vbt_B2_day3,2022.2.4,MacIntel,250,,,,,,down,0,2.1,,-0.01,-0.304444444,1,0,1,0,88,88,6,1,diep,images/br_diep.png,images/cb_diep.png,0,,,,,,,,,,,,,,,,,,,,,,
,,,,,,2023-10-15_08h06.23,vbt_B2_day3,2022.2.4,MacIntel,250,,,,,,down,0,3.918,,-0.011111111,-0.305555556,1,0,1,0,89,89,191,1,opheffen,images/br_opheffen.png,images/cb_opheffen.png,0,,,,,,,,,,,,,,,,,,,,,,
,,,,,,2023-10-15_08h06.23,vbt_B2_day3,2022.2.4,MacIntel,250,,,,,,down,0,3.067,,-0.011111111,-0.305555556,1,0,1,0,90,90,166,1,strikken,images/br_strikken.png,images/cb_strikken.png,0,,,,,,,,,,,,,,,,,,,,,,
,,,,,,2023-10-15_08h06.23,vbt_B2_day3,2022.2.4,MacIntel,250,,,,,,down,0,3.61,,-0.011111111,-0.305555556,1,0,1,0,91,91,76,1,afval,images/br_afval.png,images/cb_afval.png,0,,,,,,,,,,,,,,,,,,,,,,
,,,,,,2023-10-15_08h06.23,vbt_B2_day3,2022.2.4,MacIntel,250,,,,,,down,0,15.241,,-0.011111111,-0.305555556,1,0,1,0,92,92,124,1,bloeien,images/br_bloeien.png,images/cb_bloeien.png,0,,,,,,,,,,,,,,,,,,,,,,
,,,,,,2023-10-15_08h06.23,vbt_B2_day3,2022.2.4,MacIntel,250,,,,,,down,0,2.501,,-0.011111111,-0.305555556,1,0,1,0,93,93,128,1,prikken,images/br_prikken.png,images/cb_prikken.png,0,,,,,,,,,,,,,,,,,,,,,,
,,,,,,2023-10-15_08h06.23,vbt_B2_day3,2022.2.4,MacIntel,250,,,,,,down,0,0.3,,-0.011111111,-0.305555556,1,0,1,0,94,94,64,1,wegen,images/br_wegen.png,images/cb_wegen.png,0,,,,,,,,,,,,,,,,,,,,,,
,,,,,,2023-10-15_08h06.23,vbt_B2_day3,2022.2.4,MacIntel,250,,,,,,down,0,1.826,,-0.011111111,-0.305555556,1,0,1,0,95,95,90,1,geluid,images/br_geluid.png,images/cb_geluid.png,0,,,,,,,,,,,,,,,,,,,,,,
,,,,,,2023-10-15_08h06.23,vbt_B2_day3,2022.2.4,MacIntel,250,,,,,,down,0,1.8,,-0.011111111,-0.306666667,1,0,1,0,96,96,56,1,traag,images/br_traag.png,images/cb_traag.png,0,,,,,,,,,,,,,,,,,,,,,,
,,,,,,2023-10-15_08h06.23,vbt_B2_day3,2022.2.4,MacIntel,250,,,,,,down,0,7.118,,-0.012222222,-0.306666667,1,0,1,0,97,97,145,1,invloed,images/br_invloed.png,images/cb_invloed.png,0,,,,,,,,,,,,,,,,,,,,,,
,,,,,,2023-10-15_08h06.23,vbt_B2_day3,2022.2.4,MacIntel,250,,,,,,down,0,2.034,,-0.012222222,-0.306666667,1,0,1,0,98,98,113,1,koppen,images/br_koppen.png,images/cb_koppen.png,0,,,,,,,,,,,,,,,,,,,,,,
,,,,,,2023-10-15_08h06.23,vbt_B2_day3,2022.2.4,MacIntel,250,,,,,,down,0,6.061,,-0.015555556,-0.291111111,1,0,1,0,99,99,147,1,komisch,images/br_komisch.png,images/cb_komisch.png,0,,,,,,,,,,,,,,,,,,,,,,
,,,,,,2023-10-15_08h06.23,vbt_B2_day3,2022.2.4,MacIntel,250,,,,,,down,0,2.243,,-0.015555556,-0.291111111,1,0,1,0,100,100,12,1,kust,images/br_kust.png,images/cb_kust.png,0,,,,,,,,,,,,,,,,,,,,,,
,,,,,,2023-10-15_08h06.23,vbt_B2_day3,2022.2.4,MacIntel,250,,,,,,down,0,1.966,,-0.015555556,-0.291111111,1,0,1,0,101,101,47,1,kabel,images/br_kabel.png,images/cb_kabel.png,0,,,,,,,,,,,,,,,,,,,,,,
,,,,,,2023-10-15_08h06.23,vbt_B2_day3,2022.2.4,MacIntel,250,,,,,,down,0,3.475,,-0.015555556,-0.291111111,1,0,1,0,102,102,167,1,eenhoorn,images/br_eenhoorn.png,images/cb_eenhoorn.png,0,,,,,,,,,,,,,,,,,,,,,,
,,,,,,2023-10-15_08h06.23,vbt_B2_day3,2022.2.4,MacIntel,250,,,,,,down,0,5.468,,-0.015555556,-0.291111111,1,0,1,0,103,103,59,1,kring,images/br_kring.png,images/cb_kring.png,0,,,,,,,,,,,,,,,,,,,,,,
,,,,,,2023-10-15_08h06.23,vbt_B2_day3,2022.2.4,MacIntel,250,,,,,,down,0,6.339,,-0.017777778,-0.286666667,1,0,1,0,104,104,93,1,waarop,images/br_waarop.png,images/cb_waarop.png,0,,,,,,,,,,,,,,,,,,,,,,
,,,,,,2023-10-15_08h06.23,vbt_B2_day3,2022.2.4,MacIntel,250,,,,,,down,0,3.784,,-0.021111111,-0.285555556,1,0,1,0,105,105,2,1,jaar,images/br_jaar.png,images/cb_jaar.png,0,,,,,,,,,,,,,,,,,,,,,,
,,,,,,2023-10-15_08h06.23,vbt_B2_day3,2022.2.4,MacIntel,250,,,,,,down,0,9.043,,-0.023333333,-0.282222222,1,0,1,0,106,106,154,1,aflopen,images/br_aflopen.png,images/cb_aflopen.png,0,,,,,,,,,,,,,,,,,,,,,,
,,,,,,2023-10-15_08h06.23,vbt_B2_day3,2022.2.4,MacIntel,250,,,,,,down,0,3.399,,-0.023333333,-0.282222222,1,0,1,0,107,107,83,1,mening,images/br_mening.png,images/cb_mening.png,0,,,,,,,,,,,,,,,,,,,,,,
,,,,,,2023-10-15_08h06.23,vbt_B2_day3,2022.2.4,MacIntel,250,,,,,,down,0,14.377,,-0.022222222,-0.282222222,1,0,1,0,108,108,44,1,flits,images/br_flits.png,images/cb_flits.png,0,,,,,,,,,,,,,,,,,,,,,,
,,,,,,2023-10-15_08h06.23,vbt_B2_day3,2022.2.4,MacIntel,250,,,,,,down,0,3.895,,-0.021111111,-0.282222222,1,0,1,0,109,109,129,1,verhaal,images/br_verhaal.png,images/cb_verhaal.png,0,,,,,,,,,,,,,,,,,,,,,,
,,,,,,2023-10-15_08h06.23,vbt_B2_day3,2022.2.4,MacIntel,250,,,,,,down,0,1.068,,-0.021111111,-0.284444444,1,0,1,0,110,110,34,1,vorm,images/br_vorm.png,images/cb_vorm.png,0,,,,,,,,,,,,,,,,,,,,,,
,,,,,,2023-10-15_08h06.23,vbt_B2_day3,2022.2.4,MacIntel,250,,,,,,down,0,2.434,,-0.021111111,-0.285555556,1,0,1,0,111,111,120,1,klimmen,images/br_klimmen.png,images/cb_klimmen.png,0,,,,,,,,,,,,,,,,,,,,,,
,,,,,,2023-10-15_08h06.23,vbt_B2_day3,2022.2.4,MacIntel,250,,,,,,down,0,3.864,,-0.02,-0.285555556,1,0,1,0,112,112,133,1,seizoen,images/br_seizoen.png,images/cb_seizoen.png,0,,,,,,,,,,,,,,,,,,,,,,
,,,,,,2023-10-15_08h06.23,vbt_B2_day3,2022.2.4,MacIntel,250,,,,,,down,0,3.826,,-0.02,-0.285555556,1,0,1,0,113,113,88,1,boeien,images/br_boeien.png,images/cb_boeien.png,0,,,,,,,,,,,,,,,,,,,,,,
,,,,,,2023-10-15_08h06.23,vbt_B2_day3,2022.2.4,MacIntel,250,,,,,,down,0,5.45,,-0.02,-0.286666667,1,0,1,0,114,114,122,1,waarvan,images/br_waarvan.png,images/cb_waarvan.png,0,,,,,,,,,,,,,,,,,,,,,,
,,,,,,2023-10-15_08h06.23,vbt_B2_day3,2022.2.4,MacIntel,250,,,,,,down,0,8.765,,-0.023333333,-0.288888889,1,0,1,0,115,115,41,1,maken,images/br_maken.png,images/cb_maken.png,0,,,,,,,,,,,,,,,,,,,,,,
,,,,,,2023-10-15_08h06.23,vbt_B2_day3,2022.2.4,MacIntel,250,,,,,,down,0,3.4,,-0.023333333,-0.288888889,1,0,1,0,116,116,190,1,goedkoop,images/br_goedkoop.png,images/cb_goedkoop.png,0,,,,,,,,,,,,,,,,,,,,,,
,,,,,,2023-10-15_08h06.23,vbt_B2_day3,2022.2.4,MacIntel,250,,,,,,down,0,2.251,,-0.023333333,-0.288888889,1,0,1,0,117,117,184,1,aandelen,images/br_aandelen.png,images/cb_aandelen.png,0,,,,,,,,,,,,,,,,,,,,,,
,,,,,,2023-10-15_08h06.23,vbt_B2_day3,2022.2.4,MacIntel,250,,,,,,down,0,6.491,,-0.024444444,-0.287777778,1,0,1,0,118,118,175,1,heengaan,images/br_heengaan.png,images/cb_heengaan.png,0,,,,,,,,,,,,,,,,,,,,,,
,,,,,,2023-10-15_08h06.23,vbt_B2_day3,2022.2.4,MacIntel,250,,,,,,down,0,10.118,,-0.024444444,-0.287777778,1,0,1,0,119,119,181,1,toegeven,images/br_toegeven.png,images/cb_toegeven.png,1,toegeven,,,,,,,,,,,,,,,,,,,,,
,,,,,,2023-10-15_08h06.23,vbt_B2_day3,2022.2.4,MacIntel,250,,,,,,down,0,7.352,,-0.024444444,-0.287777778,1,0,1,0,120,120,161,1,attentie,images/br_attentie.png,images/cb_attentie.png,0,,,,,,,,,,,,,,,,,,,,,,
,,,,,,2023-10-15_08h06.23,vbt_B2_day3,2022.2.4,MacIntel,250,,,,,,down,0,4.65,,-0.024444444,-0.285555556,1,0,1,0,121,121,119,1,liefje,images/br_liefje.png,images/cb_liefje.png,0,,,,,,,,,,,,,,,,,,,,,,
,,,,,,2023-10-15_08h06.23,vbt_B2_day3,2022.2.4,MacIntel,250,,,,,,down,0,9.483,,-0.021111111,-0.288888889,1,0,1,0,122,122,153,1,vervoer,images/br_vervoer.png,images/cb_vervoer.png,0,,,,,,,,,,,,,,,,,,,,,,
,,,,,,2023-10-15_08h06.23,vbt_B2_day3,2022.2.4,MacIntel,250,,,,,,down,0,8.14,,-0.021111111,-0.288888889,1,0,1,0,123,123,18,1,blik,images/br_blik.png,images/cb_blik.png,0,,,,,,,,,,,,,,,,,,,,,,
,,,,,,2023-10-15_08h06.23,vbt_B2_day3,2022.2.4,MacIntel,250,,,,,,down,0,9.234,,-0.021111111,-0.288888889,1,0,1,0,124,124,103,1,joggen,images/br_joggen.png,images/cb_joggen.png,1,joggen,,,,,,,,,,,,,,,,,,,,,
,,,,,,2023-10-15_08h06.23,vbt_B2_day3,2022.2.4,MacIntel,250,,,,,,down,0,5.018,,-0.021111111,-0.287777778,1,0,1,0,125,125,37,1,mijn,images/br_mijn.png,images/cb_mijn.png,0,,,,,,,,,,,,,,,,,,,,,,
,,,,,,2023-10-15_08h06.23,vbt_B2_day3,2022.2.4,MacIntel,250,,,,,,down,0,0.617,,-0.021111111,-0.286666667,1,0,1,0,126,126,97,1,loyaal,images/br_loyaal.png,images/cb_loyaal.png,0,,,,,,,,,,,,,,,,,,,,,,
,,,,,,2023-10-15_08h06.23,vbt_B2_day3,2022.2.4,MacIntel,250,,,,,,down,0,17.26,,-0.021111111,-0.286666667,1,0,1,0,127,127,94,1,oceaan,images/br_oceaan.png,images/cb_oceaan.png,0,,,,,,,,,,,,,,,,,,,,,,
,,,,,,2023-10-15_08h06.23,vbt_B2_day3,2022.2.4,MacIntel,250,,,,,,down,0,8.017,,-0.021111111,-0.285555556,1,0,1,0,128,128,55,1,praat,images/br_praat.png,images/cb_praat.png,0,,,,,,,,,,,,,,,,,,,,,,
,,,,,,2023-10-15_08h06.23,vbt_B2_day3,2022.2.4,MacIntel,250,,,,,,down,0,6.6,,-0.021111111,-0.286666667,1,0,1,0,129,129,75,1,snoep,images/br_snoep.png,images/cb_snoep.png,0,,,,,,,,,,,,,,,,,,,,,,
,,,,,,2023-10-15_08h06.23,vbt_B2_day3,2022.2.4,MacIntel,250,,,,,,down,0,0.675,,-0.021111111,-0.286666667,1,0,1,0,130,130,17,1,taal,images/br_taal.png,images/cb_taal.png,0,,,,,,,,,,,,,,,,,,,,,,
,,,,,,2023-10-15_08h06.23,vbt_B2_day3,2022.2.4,MacIntel,250,,,,,,down,0,0.658,,-0.021111111,-0.287777778,1,0,1,0,131,131,57,1,steek,images/br_steek.png,images/cb_steek.png,0,,,,,,,,,,,,,,,,,,,,,,
,,,,,,2023-10-15_08h06.23,vbt_B2_day3,2022.2.4,MacIntel,250,,,,,,down,0,2.458,,-0.021111111,-0.287777778,1,0,1,0,132,132,39,1,laag,images/br_laag.png,images/cb_laag.png,0,,,,,,,,,,,,,,,,,,,,,,
,,,,,,2023-10-15_08h06.23,vbt_B2_day3,2022.2.4,MacIntel,250,,,,,,down,0,4.075,,-0.022222222,-0.286666667,1,0,1,0,133,133,173,1,apparaat,images/br_apparaat.png,images/cb_apparaat.png,0,,,,,,,,,,,,,,,,,,,,,,
,,,,,,2023-10-15_08h06.23,vbt_B2_day3,2022.2.4,MacIntel,250,,,,,,down,0,1.383,,-0.022222222,-0.288888889,1,0,1,0,134,134,26,1,leuk,images/br_leuk.png,images/cb_leuk.png,0,,,,,,,,,,,,,,,,,,,,,,
,,,,,,2023-10-15_08h06.23,vbt_B2_day3,2022.2.4,MacIntel,250,,,,,,down,0,7.992,,-0.022222222,-0.288888889,1,0,1,0,135,135,198,1,bedoelen,images/br_bedoelen.png,images/cb_bedoelen.png,0,,,,,,,,,,,,,,,,,,,,,,
,,,,,,2023-10-15_08h06.23,vbt_B2_day3,2022.2.4,MacIntel,250,,,,,,down,0,2.566,,-0.023333333,-0.286666667,1,0,1,0,136,136,21,1,mist,images/br_mist.png,images/cb_mist.png,1,mist,,,,,,,,,,,,,,,,,,,,,
,,,,,,2023-10-15_08h06.23,vbt_B2_day3,2022.2.4,MacIntel,250,,,,,,down,0,5.176,,-0.021111111,-0.287777778,1,0,1,0,137,137,9,1,hier,images/br_hier.png,images/cb_hier.png,0,,,,,,,,,,,,,,,,,,,,,,
,,,,,,2023-10-15_08h06.23,vbt_B2_day3,2022.2.4,MacIntel,250,,,,,,down,0,0.009,,-0.021111111,-0.287777778,1,0,1,0,138,138,42,1,bleek,images/br_bleek.png,images/cb_bleek.png,0,,,,,,,,,,,,,,,,,,,,,,
,,,,,,2023-10-15_08h06.23,vbt_B2_day3,2022.2.4,MacIntel,250,,,,,,down,0,3.126,,-0.021111111,-0.288888889,1,0,1,0,139,139,27,1,dans,images/br_dans.png,images/cb_dans.png,0,,,,,,,,,,,,,,,,,,,,,,
,,,,,,2023-10-15_08h06.23,vbt_B2_day3,2022.2.4,MacIntel,250,,,,,,down,0,1.834,,-0.021111111,-0.288888889,1,0,1,0,140,140,96,1,slagen,images/br_slagen.png,images/cb_slagen.png,0,,,,,,,,,,,,,,,,,,,,,,
,,,,,,2023-10-15_08h06.23,vbt_B2_day3,2022.2.4,MacIntel,250,,,,,,down,0,4.658,,-0.02,-0.29,1,0,1,0,141,141,149,1,redding,images/br_redding.png,images/cb_redding.png,0,,,,,,,,,,,,,,,,,,,,,,
,,,,,,2023-10-15_08h06.23,vbt_B2_day3,2022.2.4,MacIntel,250,,,,,,down,0,12.553,,-0.022222222,-0.29,1,0,1,0,142,142,188,1,strekken,images/br_strekken.png,images/cb_strekken.png,0,,,,,,,,,,,,,,,,,,,,,,
,,,,,,2023-10-15_08h06.23,vbt_B2_day3,2022.2.4,MacIntel,250,,,,,,down,0,0.851,,-0.023333333,-0.291111111,1,0,1,0,143,143,171,1,aarzelen,images/br_aarzelen.png,images/cb_aarzelen.png,0,,,,,,,,,,,,,,,,,,,,,,
,,,,,,2023-10-15_08h06.23,vbt_B2_day3,2022.2.4,MacIntel,250,,,,,,down,0,3.026,,-0.024444444,-0.293333333,1,0,1,0,144,144,144,1,eetlust,images/br_eetlust.png,images/cb_eetlust.png,0,,,,,,,,,,,,,,,,,,,,,,
,,,,,,2023-10-15_08h06.23,vbt_B2_day3,2022.2.4,MacIntel,250,,,,,,down,0,1.51,,-0.026666667,-0.294444444,1,0,1,0,145,145,46,1,jagen,images/br_jagen.png,images/cb_jagen.png,0,,,,,,,,,,,,,,,,,,,,,,
,,,,,,2023-10-15_08h06.23,vbt_B2_day3,2022.2.4,MacIntel,250,,,,,,down,0,3.825,,-0.026666667,-0.294444444,1,0,1,0,146,146,101,1,staren,images/br_staren.png,images/cb_staren.png,1,staren,,,,,,,,,,,,,,,,,,,,,
,,,,,,2023-10-15_08h06.23,vbt_B2_day3,2022.2.4,MacIntel,250,,,,,,down,0,9.209,,-0.031111111,-0.294444444,1,0,1,0,147,147,185,1,mijnheer,images/br_mijnheer.png,images/cb_mijnheer.png,0,,,,,,,,,,,,,,,,,,,,,,
,,,,,,2023-10-15_08h06.23,vbt_B2_day3,2022.2.4,MacIntel,250,,,,,,down,0,7.467,,-0.031111111,-0.294444444,1,0,1,0,148,148,168,1,bisschop,images/br_bisschop.png,images/cb_bisschop.png,0,,,,,,,,,,,,,,,,,,,,,,
,,,,,,2023-10-15_08h06.23,vbt_B2_day3,2022.2.4,MacIntel,250,,,,,,down,0,2.02,,-0.031111111,-0.294444444,1,0,1,0,149,149,127,1,doodmoe,images/br_doodmoe.png,images/cb_doodmoe.png,0,,,,,,,,,,,,,,,,,,,,,,
,,,,,,2023-10-15_08h06.23,vbt_B2_day3,2022.2.4,MacIntel,250,,,,,,down,0,4.503,,-0.031111111,-0.294444444,1,0,1,0,150,150,121,1,twijfel,images/br_twijfel.png,images/cb_twijfel.png,0,,,,,,,,,,,,,,,,,,,,,,
,,,,,,2023-10-15_08h06.23,vbt_B2_day3,2022.2.4,MacIntel,250,,,,,,down,0,4.101,,-0.156666667,-0.217777778,1,0,1,0,151,151,61,1,groen,images/br_groen.png,images/cb_groen.png,1,groen,,,,,,,,,,,,,,,,,,,,,
,,,,,,2023-10-15_08h06.23,vbt_B2_day3,2022.2.4,MacIntel,250,,,,,,down,0,19.652,,-0.154444444,-0.216666667,1,0,1,0,152,152,160,1,daarheen,images/br_daarheen.png,images/cb_daarheen.png,0,,,,,,,,,,,,,,,,,,,,,,
,,,,,,2023-10-15_08h06.23,vbt_B2_day3,2022.2.4,MacIntel,250,,,,,,down,0,4.715,,-0.154444444,-0.216666667,1,0,1,0,153,153,112,1,lukken,images/br_lukken.png,images/cb_lukken.png,0,,,,,,,,,,,,,,,,,,,,,,
,,,,,,2023-10-15_08h06.23,vbt_B2_day3,2022.2.4,MacIntel,250,,,,,,down,0,2.201,,-0.154444444,-0.216666667,1,0,1,0,154,154,84,1,lokken,images/br_lokken.png,images/cb_lokken.png,0,,,,,,,,,,,,,,,,,,,,,,
,,,,,,2023-10-15_08h06.23,vbt_B2_day3,2022.2.4,MacIntel,250,,,,,,down,0,5.434,,-0.154444444,-0.216666667,1,0,1,0,155,155,156,1,rechten,images/br_rechten.png,images/cb_rechten.png,0,,,,,,,,,,,,,,,,,,,,,,
,,,,,,2023-10-15_08h06.23,vbt_B2_day3,2022.2.4,MacIntel,250,,,,,,down,0,14.032,,-0.154444444,-0.216666667,1,0,1,0,156,156,172,1,weigeren,images/br_weigeren.png,images/cb_weigeren.png,0,,,,,,,,,,,,,,,,,,,,,,
,,,,,,2023-10-15_08h06.23,vbt_B2_day3,2022.2.4,MacIntel,250,,,,,,down,0,14.461,,-0.154444444,-0.22,1,0,1,0,157,157,197,1,spanning,images/br_spanning.png,images/cb_spanning.png,0,,,,,,,,,,,,,,,,,,,,,,
,,,,,,2023-10-15_08h06.23,vbt_B2_day3,2022.2.4,MacIntel,250,,,,,,down,0,8.65,,-0.154444444,-0.22,1,0,1,0,158,158,49,1,laken,images/br_laken.png,images/cb_laken.png,0,,,,,,,,,,,,,,,,,,,,,,
,,,,,,2023-10-15_08h06.23,vbt_B2_day3,2022.2.4,MacIntel,250,,,,,,down,0,4.183,,-0.153333333,-0.221111111,1,0,1,0,159,159,176,1,techniek,images/br_techniek.png,images/cb_techniek.png,0,,,,,,,,,,,,,,,,,,,,,,
,,,,,,2023-10-15_08h06.23,vbt_B2_day3,2022.2.4,MacIntel,250,,,,,,down,0,0.741,,-0.153333333,-0.221111111,1,0,1,0,160,160,68,1,schat,images/br_schat.png,images/cb_schat.png,0,,,,,,,,,,,,,,,,,,,,,,
,,,,,,2023-10-15_08h06.23,vbt_B2_day3,2022.2.4,MacIntel,250,,,,,,down,0,1.5,,-0.153333333,-0.221111111,1,0,1,0,161,161,65,1,parel,images/br_parel.png,images/cb_parel.png,0,,,,,,,,,,,,,,,,,,,,,,
,,,,,,2023-10-15_08h06.23,vbt_B2_day3,2022.2.4,MacIntel,250,,,,,,down,0,3.349,,-0.153333333,-0.222222222,1,0,1,0,162,162,189,1,aanraden,images/br_aanraden.png,images/cb_aanraden.png,0,,,,,,,,,,,,,,,,,,,,,,
,,,,,,2023-10-15_08h06.23,vbt_B2_day3,2022.2.4,MacIntel,250,,,,,,down,0,3.356,,-0.154444444,-0.22,1,0,1,0,163,163,132,1,grappen,images/br_grappen.png,images/cb_grappen.png,0,,,,,,,,,,,,,,,,,,,,,,
,,,,,,2023-10-15_08h06.23,vbt_B2_day3,2022.2.4,MacIntel,250,,,,,,down,0,6.548,,-0.154444444,-0.22,1,0,1,0,164,164,63,1,flirt,images/br_flirt.png,images/cb_flirt.png,1,flirt,,,,,,,,,,,,,,,,,,,,,
,,,,,,2023-10-15_08h06.23,vbt_B2_day3,2022.2.4,MacIntel,250,,,,,,down,0,24.067,,-0.154444444,-0.22,1,0,1,0,165,165,163,1,schuilen,images/br_schuilen.png,images/cb_schuilen.png,0,,,,,,,,,,,,,,,,,,,,,,
,,,,,,2023-10-15_08h06.23,vbt_B2_day3,2022.2.4,MacIntel,250,,,,,,down,0,2.6,,-0.154444444,-0.216666667,1,0,1,0,166,166,192,1,schaamte,images/br_schaamte.png,images/cb_schaamte.png,0,,,,,,,,,,,,,,,,,,,,,,
,,,,,,2023-10-15_08h06.23,vbt_B2_day3,2022.2.4,MacIntel,250,,,,,,down,0,1.916,,-0.154444444,-0.216666667,1,0,1,0,167,167,71,1,bever,images/br_bever.png,images/cb_bever.png,0,,,,,,,,,,,,,,,,,,,,,,
,,,,,,2023-10-15_08h06.23,vbt_B2_day3,2022.2.4,MacIntel,250,,,,,,down,0,1.658,,-0.154444444,-0.216666667,1,0,1,0,168,168,186,1,voorraad,images/br_voorraad.png,images/cb_voorraad.png,0,,,,,,,,,,,,,,,,,,,,,,
,,,,,,2023-10-15_08h06.23,vbt_B2_day3,2022.2.4,MacIntel,250,,,,,,down,0,12.184,,-0.154444444,-0.216666667,1,0,1,0,169,169,134,1,geliefd,images/br_geliefd.png,images/cb_geliefd.png,0,,,,,,,,,,,,,,,,,,,,,,
,,,,,,2023-10-15_08h06.23,vbt_B2_day3,2022.2.4,MacIntel,250,,,,,,down,0,3.117,,-0.154444444,-0.216666667,1,0,1,0,170,170,24,1,jurk,images/br_jurk.png,images/cb_jurk.png,0,,,,,,,,,,,,,,,,,,,,,,
,,,,,,2023-10-15_08h06.23,vbt_B2_day3,2022.2.4,MacIntel,250,,,,,,down,0,11.985,,-0.154444444,-0.216666667,1,0,1,0,171,171,118,1,vinger,images/br_vinger.png,images/cb_vinger.png,0,,,,,,,,,,,,,,,,,,,,,,
,,,,,,2023-10-15_08h06.23,vbt_B2_day3,2022.2.4,MacIntel,250,,,,,,down,0,2.742,,-0.153333333,-0.224444444,1,0,1,0,172,172,74,1,graaf,images/br_graaf.png,images/cb_graaf.png,0,,,,,,,,,,,,,,,,,,,,,,
,,,,,,2023-10-15_08h06.23,vbt_B2_day3,2022.2.4,MacIntel,250,,,,,,down,0,5.659,,-0.153333333,-0.224444444,1,0,1,0,173,173,106,1,zingen,images/br_zingen.png,images/cb_zingen.png,0,,,,,,,,,,,,,,,,,,,,,,
,,,,,,2023-10-15_08h06.23,vbt_B2_day3,2022.2.4,MacIntel,250,,,,,,down,0,8.599,,-0.153333333,-0.224444444,1,0,1,0,174,174,102,1,legaal,images/br_legaal.png,images/cb_legaal.png,1,legaal,,,,,,,,,,,,,,,,,,,,,
,,,,,,2023-10-15_08h06.23,vbt_B2_day3,2022.2.4,MacIntel,250,,,,,,down,0,4.608,,-0.153333333,-0.224444444,1,0,1,0,175,175,177,1,maaltijd,images/br_maaltijd.png,images/cb_maaltijd.png,0,,,,,,,,,,,,,,,,,,,,,,
,,,,,,2023-10-15_08h06.23,vbt_B2_day3,2022.2.4,MacIntel,250,,,,,,down,0,3.734,,-0.153333333,-0.224444444,1,0,1,0,176,176,40,1,schep,images/br_schep.png,images/cb_schep.png,0,,,,,,,,,,,,,,,,,,,,,,
,,,,,,2023-10-15_08h06.23,vbt_B2_day3,2022.2.4,MacIntel,250,,,,,,down,0,1.119,,-0.153333333,-0.224444444,1,0,1,0,177,177,13,1,kaal,images/br_kaal.png,images/cb_kaal.png,0,,,,,,,,,,,,,,,,,,,,,,
,,,,,,2023-10-15_08h06.23,vbt_B2_day3,2022.2.4,MacIntel,250,,,,,,down,0,3.142,,-0.153333333,-0.224444444,1,0,1,0,178,178,77,1,woede,images/br_woede.png,images/cb_woede.png,0,,,,,,,,,,,,,,,,,,,,,,
,,,,,,2023-10-15_08h06.23,vbt_B2_day3,2022.2.4,MacIntel,250,,,,,,down,0,1.683,,-0.153333333,-0.224444444,1,0,1,0,179,179,36,1,vuur,images/br_vuur.png,images/cb_vuur.png,0,,,,,,,,,,,,,,,,,,,,,,
,,,,,,2023-10-15_08h06.23,vbt_B2_day3,2022.2.4,MacIntel,250,,,,,,down,0,8.191,,-0.153333333,-0.224444444,1,0,1,0,180,180,142,1,snuiven,images/br_snuiven.png,images/cb_snuiven.png,1,snuiven,,,,,,,,,,,,,,,,,,,,,
,,,,,,2023-10-15_08h06.23,vbt_B2_day3,2022.2.4,MacIntel,250,,,,,,down,0,3.94,,-0.153333333,-0.224444444,1,0,1,0,181,181,78,1,leren,images/br_leren.png,images/cb_leren.png,0,,,,,,,,,,,,,,,,,,,,,,
,,,,,,2023-10-15_08h06.23,vbt_B2_day3,2022.2.4,MacIntel,250,,,,,,down,0,1.635,,-0.153333333,-0.224444444,1,0,1,0,182,182,72,1,strak,images/br_strak.png,images/cb_strak.png,0,,,,,,,,,,,,,,,,,,,,,,
,,,,,,2023-10-15_08h06.23,vbt_B2_day3,2022.2.4,MacIntel,250,,,,,,down,0,5.92,,-0.154444444,-0.224444444,1,0,1,0,183,183,87,1,toeval,images/br_toeval.png,images/cb_toeval.png,0,,,,,,,,,,,,,,,,,,,,,,
,,,,,,2023-10-15_08h06.23,vbt_B2_day3,2022.2.4,MacIntel,250,,,,,,down,0,3.533,,-0.154444444,-0.225555556,1,0,1,0,184,184,8,1,knie,images/br_knie.png,images/cb_knie.png,0,,,,,,,,,,,,,,,,,,,,,,
,,,,,,2023-10-15_08h06.23,vbt_B2_day3,2022.2.4,MacIntel,250,,,,,,down,0,4.135,,-0.155555556,-0.223333333,1,0,1,0,185,185,174,1,stemming,images/br_stemming.png,images/cb_stemming.png,0,,,,,,,,,,,,,,,,,,,,,,
,,,,,,2023-10-15_08h06.23,vbt_B2_day3,2022.2.4,MacIntel,250,,,,,,down,0,7.987,,-0.155555556,-0.224444444,1,0,1,0,186,186,135,1,gedicht,images/br_gedicht.png,images/cb_gedicht.png,0,,,,,,,,,,,,,,,,,,,,,,
,,,,,,2023-10-15_08h06.23,vbt_B2_day3,2022.2.4,MacIntel,250,,,,,,down,0,3.36,,-0.155555556,-0.224444444,1,0,1,0,187,187,116,1,besmet,images/br_besmet.png,images/cb_besmet.png,0,,,,,,,,,,,,,,,,,,,,,,
,,,,,,2023-10-15_08h06.23,vbt_B2_day3,2022.2.4,MacIntel,250,,,,,,down,0,3.06,,-0.155555556,-0.224444444,1,0,1,0,188,188,82,1,muziek,images/br_muziek.png,images/cb_muziek.png,0,,,,,,,,,,,,,,,,,,,,,,
,,,,,,2023-10-15_08h06.23,vbt_B2_day3,2022.2.4,MacIntel,250,,,,,,down,0,3.209,,-0.154444444,-0.223333333,1,0,1,0,189,189,111,1,ticket,images/br_ticket.png,images/cb_ticket.png,0,,,,,,,,,,,,,,,,,,,,,,
,,,,,,2023-10-15_08h06.23,vbt_B2_day3,2022.2.4,MacIntel,250,,,,,,down,0,5.617,,-0.155555556,-0.224444444,1,0,1,0,190,190,187,1,opkijken,images/br_opkijken.png,images/cb_opkijken.png,0,,,,,,,,,,,,,,,,,,,,,,
,,,,,,2023-10-15_08h06.23,vbt_B2_day3,2022.2.4,MacIntel,250,,,,,,down,0,1.468,,-0.155555556,-0.224444444,1,0,1,0,191,191,126,1,kasteel,images/br_kasteel.png,images/cb_kasteel.png,0,,,,,,,,,,,,,,,,,,,,,,
,,,,,,2023-10-15_08h06.23,vbt_B2_day3,2022.2.4,MacIntel,250,,,,,,down,0,5.316,,-0.155555556,-0.225555556,1,0,1,0,192,192,80,1,kanjer,images/br_kanjer.png,images/cb_kanjer.png,0,,,,,,,,,,,,,,,,,,,,,,
,,,,,,2023-10-15_08h06.23,vbt_B2_day3,2022.2.4,MacIntel,250,,,,,,down,0,3.785,,-0.155555556,-0.225555556,1,0,1,0,193,193,146,1,opkomen,images/br_opkomen.png,images/cb_opkomen.png,0,,,,,,,,,,,,,,,,,,,,,,
,,,,,,2023-10-15_08h06.23,vbt_B2_day3,2022.2.4,MacIntel,250,,,,,,down,0,9.228,,-0.154444444,-0.227777778,1,0,1,0,194,194,89,1,slapen,images/br_slapen.png,images/cb_slapen.png,0,,,,,,,,,,,,,,,,,,,,,,
,,,,,,2023-10-15_08h06.23,vbt_B2_day3,2022.2.4,MacIntel,250,,,,,,down,0,6.731,,-0.154444444,-0.227777778,1,0,1,0,195,195,23,1,zout,images/br_zout.png,images/cb_zout.png,1,zout,,,,,,,,,,,,,,,,,,,,,
,,,,,,2023-10-15_08h06.23,vbt_B2_day3,2022.2.4,MacIntel,250,,,,,,down,0,3.442,,-0.154444444,-0.227777778,1,0,1,0,196,196,10,1,leek,images/br_leek.png,images/cb_leek.png,0,,,,,,,,,,,,,,,,,,,,,,
,,,,,,2023-10-15_08h06.23,vbt_B2_day3,2022.2.4,MacIntel,250,,,,,,down,0,17.529,,-0.154444444,-0.226666667,1,0,1,0,197,197,52,1,wagon,images/br_wagon.png,images/cb_wagon.png,0,,,,,,,,,,,,,,,,,,,,,,
,,,,,,2023-10-15_08h06.23,vbt_B2_day3,2022.2.4,MacIntel,250,,,,,,down,0,0.833,,-0.154444444,-0.226666667,1,0,1,0,198,198,1,1,zaal,images/br_zaal.png,images/cb_zaal.png,0,,,,,,,,,,,,,,,,,,,,,,
,,,,,,2023-10-15_08h06.23,vbt_B2_day3,2022.2.4,MacIntel,250,,,,,,down,0,5.466,,-0.154444444,-0.226666667,1,0,1,0,199,199,130,1,keihard,images/br_keihard.png,images/cb_keihard.png,0,,,,,,,,,,,,,,,,,,,,,,
,,,,,,2023-10-15_08h06.23,vbt_B2_day3,2022.2.4,MacIntel,250,,,,,,,,,,,,,,,,,,,,,,,,,-0.154444444,-0.226666667,0,0,1,,,,,,,,,,,,,,,,
,,,,,,2023-10-15_08h06.23,vbt_B2_day3,2022.2.4,MacIntel,250,,,,,,,,,,,,,,,,,,,,,,,,,,,,,,0.571111111,0.212222222,1,0,1,,,,,,,,,,,
,,,,,,2023-10-15_08h06.23,vbt_B2_day3,2022.2.4,MacIntel,250,,,,,,,,,,,,,,,,,,,,geluid,images/br_geluid.png,images/cb_geluid.png,,geluid,,,,,,,,,,,0.571111111,0.212222222,1,0,1,geluid,0,0,0,10,1
,,,,,,2023-10-15_08h06.23,vbt_B2_day3,2022.2.4,MacIntel,250,,,,,,,,,,,,,,,,,,,,eens,images/br_eens.png,images/cb_eens.png,,eens,,,,,,,,,,,0.571111111,0.212222222,1,0,1,eens,0,1,1,40,1
,,,,,,2023-10-15_08h06.23,vbt_B2_day3,2022.2.4,MacIntel,250,,,,,,,,,,,,,,,,,,,,uniek,images/br_uniek.png,images/cb_uniek.png,,uniek,,,,,,,,,,,0.571111111,0.211111111,1,0,1,uniek,0,2,2,46,1
,,,,,,2023-10-15_08h06.23,vbt_B2_day3,2022.2.4,MacIntel,250,,,,,,,,,,,,,,,,,,,,prikken,images/br_prikken.png,images/cb_prikken.png,,prikken,,,,,,,,,,,0.571111111,0.211111111,1,0,1,prikken,0,3,3,12,1
,,,,,,2023-10-15_08h06.23,vbt_B2_day3,2022.2.4,MacIntel,250,,,,,,,,,,,,,,,,,,,,steel,images/br_steel.png,images/cb_steel.png,,steel,,,,,,,,,,,0.571111111,0.211111111,1,0,1,steel,0,4,4,4,1
,,,,,,2023-10-15_08h06.23,vbt_B2_day3,2022.2.4,MacIntel,250,,,,,,,,,,,,,,,,,,,,makieren,images/br_makieren.png,images/cb_makieren.png,,makij....,,,,,,,,,,,0.04,-0.228888889,1,0,1,makij....,0,5,5,36,1
,,,,,,2023-10-15_08h06.23,vbt_B2_day3,2022.2.4,MacIntel,250,,,,,,,,,,,,,,,,,,,,invallen,images/br_invallen.png,images/cb_invallen.png,,invallen,,,,,,,,,,,0.04,-0.228888889,1,0,1,invallen,0,6,6,57,1
,,,,,,2023-10-15_08h06.23,vbt_B2_day3,2022.2.4,MacIntel,250,,,,,,,,,,,,,,,,,,,,verwoor,images/br_verwoor.png,images/cb_verwoor.png,,virwoor,,,,,,,,,,,0.04,-0.228888889,1,0,1,virwoor,0,7,7,32,1
,,,,,,2023-10-15_08h06.23,vbt_B2_day3,2022.2.4,MacIntel,250,,,,,,,,,,,,,,,,,,,,gout,images/br_gout.png,images/cb_gout.png,,gout,,,,,,,,,,,0.04,-0.228888889,1,0,1,gout,0,8,8,20,1
,,,,,,2023-10-15_08h06.23,vbt_B2_day3,2022.2.4,MacIntel,250,,,,,,,,,,,,,,,,,,,,sluier,images/br_sluier.png,images/cb_sluier.png,,sluier,,,,,,,,,,,0.04,-0.228888889,1,0,1,sluier,0,9,9,50,1
,,,,,,2023-10-15_08h06.23,vbt_B2_day3,2022.2.4,MacIntel,250,,,,,,,,,,,,,,,,,,,,begrip,images/br_begrip.png,images/cb_begrip.png,,begrip,,,,,,,,,,,0.04,-0.228888889,1,0,1,begrip,0,10,10,48,1
,,,,,,2023-10-15_08h06.23,vbt_B2_day3,2022.2.4,MacIntel,250,,,,,,,,,,,,,,,,,,,,bevret,images/br_bevret.png,images/cb_bevret.png,,bevret,,,,,,,,,,,0.04,-0.228888889,1,0,1,bevret,0,11,11,30,1
,,,,,,2023-10-15_08h06.23,vbt_B2_day3,2022.2.4,MacIntel,250,,,,,,,,,,,,,,,,,,,,schodel,images/br_schodel.png,images/cb_schodel.png,,schodel,,,,,,,,,,,0.02,-0.235555556,1,0,1,schodel,0,12,12,33,1
,,,,,,2023-10-15_08h06.23,vbt_B2_day3,2022.2.4,MacIntel,250,,,,,,,,,,,,,,,,,,,,gezond,images/br_gezond.png,images/cb_gezond.png,,gezond,,,,,,,,,,,0.02,-0.235555556,1,0,1,gezond,0,13,13,11,1
,,,,,,2023-10-15_08h06.23,vbt_B2_day3,2022.2.4,MacIntel,250,,,,,,,,,,,,,,,,,,,,verraden,images/br_verraden.png,images/cb_verraden.png,,verrad...,,,,,,,,,,,0.02,-0.235555556,1,0,1,verrad...,0,14,14,58,1
,,,,,,2023-10-15_08h06.23,vbt_B2_day3,2022.2.4,MacIntel,250,,,,,,,,,,,,,,,,,,,,mugeek,images/br_mugeek.png,images/cb_mugeek.png,,mugeek,,,,,,,,,,,0.013333333,-0.235555556,1,0,1,mugeek,0,15,15,29,1
,,,,,,2023-10-15_08h06.23,vbt_B2_day3,2022.2.4,MacIntel,250,,,,,,,,,,,,,,,,,,,,bisschop,images/br_bisschop.png,images/cb_bisschop.png,,bisschop,,,,,,,,,,,0.014444444,-0.235555556,1,0,1,bisschop,0,16,16,16,1
,,,,,,2023-10-15_08h06.23,vbt_B2_day3,2022.2.4,MacIntel,250,,,,,,,,,,,,,,,,,,,,zone,images/br_zone.png,images/cb_zone.png,,zone,,,,,,,,,,,0.014444444,-0.235555556,1,0,1,zone,0,17,17,41,1
,,,,,,2023-10-15_08h06.23,vbt_B2_day3,2022.2.4,MacIntel,250,,,,,,,,,,,,,,,,,,,,twaaf,images/br_twaaf.png,images/cb_twaaf.png,,twaaf,,,,,,,,,,,0.018888889,-0.232222222,1,0,1,twaaf,0,18,18,24,1
,,,,,,2023-10-15_08h06.23,vbt_B2_day3,2022.2.4,MacIntel,250,,,,,,,,,,,,,,,,,,,,vlager,images/br_vlager.png,images/cb_vlager.png,,vrager,,,,,,,,,,,0.018888889,-0.232222222,1,0,1,vrager,0,19,19,28,1
,,,,,,2023-10-15_08h06.23,vbt_B2_day3,2022.2.4,MacIntel,250,,,,,,,,,,,,,,,,,,,,slapen,images/br_slapen.png,images/cb_slapen.png,,slapen,,,,,,,,,,,0.018888889,-0.232222222,1,0,1,slapen,0,20,20,9,1
,,,,,,2023-10-15_08h06.23,vbt_B2_day3,2022.2.4,MacIntel,250,,,,,,,,,,,,,,,,,,,,brappen,images/br_brappen.png,images/cb_brappen.png,,brappen,,,,,,,,,,,0.018888889,-0.232222222,1,0,1,brappen,0,21,21,35,1
,,,,,,2023-10-15_08h06.23,vbt_B2_day3,2022.2.4,MacIntel,250,,,,,,,,,,,,,,,,,,,,kwaas,images/br_kwaas.png,images/cb_kwaas.png,,kwaas,,,,,,,,,,,0.014444444,-0.232222222,1,0,1,kwaas,0,22,22,26,1
,,,,,,2023-10-15_08h06.23,vbt_B2_day3,2022.2.4,MacIntel,250,,,,,,,,,,,,,,,,,,,,knie,images/br_knie.png,images/cb_knie.png,,wnie,,,,,,,,,,,-0.013333333,-0.288888889,1,0,1,wnie,0,23,23,0,1
,,,,,,2023-10-15_08h06.23,vbt_B2_day3,2022.2.4,MacIntel,250,,,,,,,,,,,,,,,,,,,,beslag,images/br_beslag.png,images/cb_beslag.png,,beslag,,,,,,,,,,,-0.013333333,-0.288888889,1,0,1,beslag,0,24,24,51,1
,,,,,,2023-10-15_08h06.23,vbt_B2_day3,2022.2.4,MacIntel,250,,,,,,,,,,,,,,,,,,,,dwang,images/br_dwang.png,images/cb_dwang.png,,dwang,,,,,,,,,,,-0.013333333,-0.288888889,1,0,1,dwang,0,25,25,47,1
,,,,,,2023-10-15_08h06.23,vbt_B2_day3,2022.2.4,MacIntel,250,,,,,,,,,,,,,,,,,,,,opzetten,images/br_opzetten.png,images/cb_opzetten.png,,opzetten,,,,,,,,,,,-0.013333333,-0.288888889,1,0,1,opzetten,0,26,26,56,1
,,,,,,2023-10-15_08h06.23,vbt_B2_day3,2022.2.4,MacIntel,250,,,,,,,,,,,,,,,,,,,,boeien,images/br_boeien.png,images/cb_boeien.png,,boeien,,,,,,,,,,,-0.013333333,-0.288888889,1,0,1,boeien,0,27,27,8,1
,,,,,,2023-10-15_08h06.23,vbt_B2_day3,2022.2.4,MacIntel,250,,,,,,,,,,,,,,,,,,,,oprotten,images/br_oprotten.png,images/cb_oprotten.png,,oprotten,,,,,,,,,,,-0.015555556,-0.288888889,1,0,1,oprotten,0,28,28,17,1
,,,,,,2023-10-15_08h06.23,vbt_B2_day3,2022.2.4,MacIntel,250,,,,,,,,,,,,,,,,,,,,hust,images/br_hust.png,images/cb_hust.png,,hust,,,,,,,,,,,-0.015555556,-0.288888889,1,0,1,hust,0,29,29,23,1
,,,,,,2023-10-15_08h06.23,vbt_B2_day3,2022.2.4,MacIntel,250,,,,,,,,,,,,,,,,,,,,afbopen,images/br_afbopen.png,images/cb_afbopen.png,,afkopen,,,,,,,,,,,-0.004444444,-0.228888889,1,0,1,afkopen,0,30,30,34,1
,,,,,,2023-10-15_08h06.23,vbt_B2_day3,2022.2.4,MacIntel,250,,,,,,,,,,,,,,,,,,,,leek,images/br_leek.png,images/cb_leek.png,,leek,,,,,,,,,,,-0.004444444,-0.228888889,1,0,1,leek,0,31,31,2,1
,,,,,,2023-10-15_08h06.23,vbt_B2_day3,2022.2.4,MacIntel,250,,,,,,,,,,,,,,,,,,,,hier,images/br_hier.png,images/cb_hier.png,,hier,,,,,,,,,,,-0.004444444,-0.228888889,1,0,1,hier,0,32,32,1,1
,,,,,,2023-10-15_08h06.23,vbt_B2_day3,2022.2.4,MacIntel,250,,,,,,,,,,,,,,,,,,,,sultan,images/br_sultan.png,images/cb_sultan.png,,sultan,,,,,,,,,,,-0.004444444,-0.228888889,1,0,1,sultan,0,33,33,49,1
,,,,,,2023-10-15_08h06.23,vbt_B2_day3,2022.2.4,MacIntel,250,,,,,,,,,,,,,,,,,,,,onrecht,images/br_onrecht.png,images/cb_onrecht.png,,onrecht,,,,,,,,,,,-0.004444444,-0.228888889,1,0,1,onrecht,0,34,34,55,1
,,,,,,2023-10-15_08h06.23,vbt_B2_day3,2022.2.4,MacIntel,250,,,,,,,,,,,,,,,,,,,,uviek,images/br_uviek.png,images/cb_uviek.png,,uviek,,,,,,,,,,,0.014444444,-0.233333333,1,0,1,uviek,0,35,35,25,1
,,,,,,2023-10-15_08h06.23,vbt_B2_day3,2022.2.4,MacIntel,250,,,,,,,,,,,,,,,,,,,,theeting,images/br_theeting.png,images/cb_theeting.png,,theet...,,,,,,,,,,,-0.011111111,-0.281111111,1,0,1,theet...,0,36,36,38,1
,,,,,,2023-10-15_08h06.23,vbt_B2_day3,2022.2.4,MacIntel,250,,,,,,,,,,,,,,,,,,,,hint,images/br_hint.png,images/cb_hint.png,,hint,,,,,,,,,,,-0.011111111,-0.281111111,1,0,1,hint,0,37,37,43,1
,,,,,,2023-10-15_08h06.23,vbt_B2_day3,2022.2.4,MacIntel,250,,,,,,,,,,,,,,,,,,,,stikken,images/br_stikken.png,images/cb_stikken.png,,stikken,,,,,,,,,,,-0.011111111,-0.281111111,1,0,1,stikken,0,38,38,54,1
,,,,,,2023-10-15_08h06.23,vbt_B2_day3,2022.2.4,MacIntel,250,,,,,,,,,,,,,,,,,,,,samen,images/br_samen.png,images/cb_samen.png,,samen,,,,,,,,,,,-0.011111111,-0.281111111,1,0,1,samen,0,39,39,7,1
,,,,,,2023-10-15_08h06.23,vbt_B2_day3,2022.2.4,MacIntel,250,,,,,,,,,,,,,,,,,,,,kest,images/br_kest.png,images/cb_kest.png,,kest,,,,,,,,,,,0.013333333,-0.235555556,1,0,1,kest,0,40,40,21,1
,,,,,,2023-10-15_08h06.23,vbt_B2_day3,2022.2.4,MacIntel,250,,,,,,,,,,,,,,,,,,,,paken,images/br_paken.png,images/cb_paken.png,,paken,,,,,,,,,,,0.013333333,-0.235555556,1,0,1,paken,0,41,41,27,1
,,,,,,2023-10-15_08h06.23,vbt_B2_day3,2022.2.4,MacIntel,250,,,,,,,,,,,,,,,,,,,,kaas,images/br_kaas.png,images/cb_kaas.png,,kaas,,,,,,,,,,,0.013333333,-0.235555556,1,0,1,kaas,0,42,42,42,1
,,,,,,2023-10-15_08h06.23,vbt_B2_day3,2022.2.4,MacIntel,250,,,,,,,,,,,,,,,,,,,,stallen,images/br_stallen.png,images/cb_stallen.png,,stallen,,,,,,,,,,,0.013333333,-0.235555556,1,0,1,stallen,0,43,43,52,1
,,,,,,2023-10-15_08h06.23,vbt_B2_day3,2022.2.4,MacIntel,250,,,,,,,,,,,,,,,,,,,,schatten,images/br_schatten.png,images/cb_schatten.png,,schatten,,,,,,,,,,,0.013333333,-0.235555556,1,0,1,schatten,0,44,44,18,1
,,,,,,2023-10-15_08h06.23,vbt_B2_day3,2022.2.4,MacIntel,250,,,,,,,,,,,,,,,,,,,,glijden,images/br_glijden.png,images/cb_glijden.png,,glijden,,,,,,,,,,,0.013333333,-0.235555556,1,0,1,glijden,0,45,45,53,1
,,,,,,2023-10-15_08h06.23,vbt_B2_day3,2022.2.4,MacIntel,250,,,,,,,,,,,,,,,,,,,,alsof,images/br_alsof.png,images/cb_alsof.png,,alsof,,,,,,,,,,,0.013333333,-0.235555556,1,0,1,alsof,0,46,46,44,1
,,,,,,2023-10-15_08h06.23,vbt_B2_day3,2022.2.4,MacIntel,250,,,,,,,,,,,,,,,,,,,,aarzelen,images/br_aarzelen.png,images/cb_aarzelen.png,,aarzelen,,,,,,,,,,,0.013333333,-0.235555556,1,0,1,aarzelen,0,47,47,19,1
,,,,,,2023-10-15_08h06.23,vbt_B2_day3,2022.2.4,MacIntel,250,,,,,,,,,,,,,,,,,,,,stoom,images/br_stoom.png,images/cb_stoom.png,,stoom,,,,,,,,,,,0.013333333,-0.235555556,1,0,1,stoom,0,48,48,6,1
,,,,,,2023-10-15_08h06.23,vbt_B2_day3,2022.2.4,MacIntel,250,,,,,,,,,,,,,,,,,,,,jongelui,images/br_jongelui.png,images/cb_jongelui.png,,jong...,,,,,,,,,,,0.013333333,-0.235555556,1,0,1,jong...,0,49,49,59,1
,,,,,,2023-10-15_08h06.23,vbt_B2_day3,2022.2.4,MacIntel,250,,,,,,,,,,,,,,,,,,,,booien,images/br_booien.png,images/cb_booien.png,,booien,,,,,,,,,,,0.015555556,-0.248888889,1,0,1,booien,0,50,50,31,1
,,,,,,2023-10-15_08h06.23,vbt_B2_day3,2022.2.4,MacIntel,250,,,,,,,,,,,,,,,,,,,,leemaken,images/br_leemaken.png,images/cb_leemaken.png,,leemak...,,,,,,,,,,,0.015555556,-0.248888889,1,0,1,leemak...,0,51,51,39,1
,,,,,,2023-10-15_08h06.23,vbt_B2_day3,2022.2.4,MacIntel,250,,,,,,,,,,,,,,,,,,,,gebod,images/br_gebod.png,images/cb_gebod.png,,gebod,,,,,,,,,,,0.015555556,-0.248888889,1,0,1,gebod,0,52,52,45,1
,,,,,,2023-10-15_08h06.23,vbt_B2_day3,2022.2.4,MacIntel,250,,,,,,,,,,,,,,,,,,,,keihard,images/br_keihard.png,images/cb_keihard.png,,beih...,,,,,,,,,,,0.017777778,-0.233333333,1,0,1,beih...,0,53,53,14,1
,,,,,,2023-10-15_08h06.23,vbt_B2_day3,2022.2.4,MacIntel,250,,,,,,,,,,,,,,,,,,,,laken,images/br_laken.png,images/cb_laken.png,,laken,,,,,,,,,,,0.021111111,-0.242222222,1,0,1,laken,0,54,54,5,1
,,,,,,2023-10-15_08h06.23,vbt_B2_day3,2022.2.4,MacIntel,250,,,,,,,,,,,,,,,,,,,,mode,images/br_mode.png,images/cb_mode.png,,mode,,,,,,,,,,,0.021111111,-0.242222222,1,0,1,mode,0,55,55,3,1
,,,,,,2023-10-15_08h06.23,vbt_B2_day3,2022.2.4,MacIntel,250,,,,,,,,,,,,,,,,,,,,leugeren,images/br_leugeren.png,images/cb_leugeren.png,,leug....,,,,,,,,,,,0.024444444,-0.23,1,0,1,leug....,0,56,56,37,1
,,,,,,2023-10-15_08h06.23,vbt_B2_day3,2022.2.4,MacIntel,250,,,,,,,,,,,,,,,,,,,,verhaal,images/br_verhaal.png,images/cb_verhaal.png,,verhaal,,,,,,,,,,,0.024444444,-0.23,1,0,1,verhaal,0,57,57,13,1
,,,,,,2023-10-15_08h06.23,vbt_B2_day3,2022.2.4,MacIntel,250,,,,,,,,,,,,,,,,,,,,opzicht,images/br_opzicht.png,images/cb_opzicht.png,,opzicht,,,,,,,,,,,0.024444444,-0.23,1,0,1,opzicht,0,58,58,15,1
,,,,,,2023-10-15_08h06.23,vbt_B2_day3,2022.2.4,MacIntel,250,,,,,,,,,,,,,,,,,,,,croo,images/br_croo.png,images/cb_croo.png,,croo,,,,,,,,,,,0.024444444,-0.23,1,0,1,croo,0,59,59,22,1
,,,,,,2023-10-15_08h06.23,vbt_B2_day3,2022.2.4,MacIntel,250,,,,,,,,,,,,,,,,,,,,,,,,,,,,,,,,,,,,,,,,,,,,,
