welcome_mouse.x,welcome_mouse.y,welcome_mouse.leftButton,welcome_mouse.midButton,welcome_mouse.rightButton,"ID",date,expName,psychopyVersion,OS,frameRate,trainInstr_mouse.x,trainInstr_mouse.y,trainInstr_mouse.leftButton,trainInstr_mouse.midButton,trainInstr_mouse.rightButton,translation_key.keys,translation_key.corr,translation_key.rt,word_rsp.text,trWrd_mouse.x,trWrd_mouse.y,trWrd_mouse.leftButton,trWrd_mouse.midButton,trWrd_mouse.rightButton,train_loop.thisRepN,train_loop.thisTrialN,train_loop.thisN,train_loop.thisIndex,train_loop.ran,nlWrd,brWrd,cbWrd,test,testResp,mouse.x,mouse.y,mouse.leftButton,mouse.midButton,mouse.rightButton,testInstr_mouse.x,testInstr_mouse.y,testInstr_mouse.leftButton,testInstr_mouse.midButton,testInstr_mouse.rightButton,test_mouse.x,test_mouse.y,test_mouse.leftButton,test_mouse.midButton,test_mouse.rightButton,test_response.text,test_loop.thisRepN,test_loop.thisTrialN,test_loop.thisN,test_loop.thisIndex,test_loop.ran
-0.166666667,-0.262222222,1,0,0,00104,2023-11-22_17h08.59.323,vbt_B2_day3,2022.2.4,MacIntel,24.3902439,,,,,,,,,,,,,,,,,,,,,,,,,,,,,,,,,,,,,,,,,,,,,
,,,,,00104,2023-11-22_17h08.59.323,vbt_B2_day3,2022.2.4,MacIntel,24.3902439,-0.166666667,-0.262222222,1,0,0,,,,,,,,,,,,,,,,,,,,,,,,,,,,,,,,,,,,,,,,
,,,,,00104,2023-11-22_17h08.59.323,vbt_B2_day3,2022.2.4,MacIntel,24.3902439,,,,,,down,0,10.852,,-0.166666667,-0.262222222,1,0,0,0,0,0,137,1,trekker,images/br_trekker.png,images/cb_trekker.png,0,,,,,,,,,,,,,,,,,,,,,,
,,,,,00104,2023-11-22_17h08.59.323,vbt_B2_day3,2022.2.4,MacIntel,24.3902439,,,,,,down,0,2.92,,-0.166666667,-0.262222222,1,0,0,0,1,1,49,1,laken,images/br_laken.png,images/cb_laken.png,0,,,,,,,,,,,,,,,,,,,,,,
,,,,,00104,2023-11-22_17h08.59.323,vbt_B2_day3,2022.2.4,MacIntel,24.3902439,,,,,,down,0,1.524,,-0.166666667,-0.262222222,1,0,0,0,2,2,39,1,laag,images/br_laag.png,images/cb_laag.png,0,,,,,,,,,,,,,,,,,,,,,,
,,,,,00104,2023-11-22_17h08.59.323,vbt_B2_day3,2022.2.4,MacIntel,24.3902439,,,,,,down,0,1.826,,-0.166666667,-0.262222222,1,0,0,0,3,3,53,1,baron,images/br_baron.png,images/cb_baron.png,0,,,,,,,,,,,,,,,,,,,,,,
,,,,,00104,2023-11-22_17h08.59.323,vbt_B2_day3,2022.2.4,MacIntel,24.3902439,,,,,,down,0,16.702,,-0.166666667,-0.262222222,1,0,0,0,4,4,153,1,vervoer,images/br_vervoer.png,images/cb_vervoer.png,0,,,,,,,,,,,,,,,,,,,,,,
,,,,,00104,2023-11-22_17h08.59.323,vbt_B2_day3,2022.2.4,MacIntel,24.3902439,,,,,,down,0,4.244,,-0.162222222,-0.276666667,1,0,0,0,5,5,20,1,site,images/br_site.png,images/cb_site.png,1,site,,,,,,,,,,,,,,,,,,,,,
,,,,,00104,2023-11-22_17h08.59.323,vbt_B2_day3,2022.2.4,MacIntel,24.3902439,,,,,,down,0,2.258,,-0.162222222,-0.276666667,1,0,0,0,6,6,28,1,stal,images/br_stal.png,images/cb_stal.png,0,,,,,,,,,,,,,,,,,,,,,,
,,,,,00104,2023-11-22_17h08.59.323,vbt_B2_day3,2022.2.4,MacIntel,24.3902439,,,,,,down,0,5.991,,-0.162222222,-0.276666667,1,0,0,0,7,7,65,1,parel,images/br_parel.png,images/cb_parel.png,0,,,,,,,,,,,,,,,,,,,,,,
,,,,,00104,2023-11-22_17h08.59.323,vbt_B2_day3,2022.2.4,MacIntel,24.3902439,,,,,,down,0,4.625,,-0.162222222,-0.276666667,1,0,0,0,8,8,80,1,kanjer,images/br_kanjer.png,images/cb_kanjer.png,0,,,,,,,,,,,,,,,,,,,,,,
,,,,,00104,2023-11-22_17h08.59.323,vbt_B2_day3,2022.2.4,MacIntel,24.3902439,,,,,,down,0,8.174,,-0.162222222,-0.276666667,1,0,0,0,9,9,132,1,grappen,images/br_grappen.png,images/cb_grappen.png,0,,,,,,,,,,,,,,,,,,,,,,
,,,,,00104,2023-11-22_17h08.59.323,vbt_B2_day3,2022.2.4,MacIntel,24.3902439,,,,,,down,0,11.4,,-0.162222222,-0.276666667,1,0,0,0,10,10,129,1,verhaal,images/br_verhaal.png,images/cb_verhaal.png,0,,,,,,,,,,,,,,,,,,,,,,
,,,,,00104,2023-11-22_17h08.59.323,vbt_B2_day3,2022.2.4,MacIntel,24.3902439,,,,,,down,0,8.286,,-0.162222222,-0.276666667,1,0,0,0,11,11,125,1,aanzien,images/br_aanzien.png,images/cb_aanzien.png,0,,,,,,,,,,,,,,,,,,,,,,
,,,,,00104,2023-11-22_17h08.59.323,vbt_B2_day3,2022.2.4,MacIntel,24.3902439,,,,,,down,0,4.935,,-0.162222222,-0.276666667,1,0,0,0,12,12,70,1,ijdel,images/br_ijdel.png,images/cb_ijdel.png,0,,,,,,,,,,,,,,,,,,,,,,
,,,,,00104,2023-11-22_17h08.59.323,vbt_B2_day3,2022.2.4,MacIntel,24.3902439,,,,,,down,0,8.005,,-0.162222222,-0.276666667,1,0,0,0,13,13,138,1,akkoord,images/br_akkoord.png,images/cb_akkoord.png,0,,,,,,,,,,,,,,,,,,,,,,
,,,,,00104,2023-11-22_17h08.59.323,vbt_B2_day3,2022.2.4,MacIntel,24.3902439,,,,,,down,0,15.454,,-0.162222222,-0.276666667,1,0,0,0,14,14,115,1,kleren,images/br_kleren.png,images/cb_kleren.png,0,,,,,,,,,,,,,,,,,,,,,,
,,,,,00104,2023-11-22_17h08.59.323,vbt_B2_day3,2022.2.4,MacIntel,24.3902439,,,,,,down,0,8.434,,-0.162222222,-0.276666667,1,0,0,0,15,15,167,1,eenhoorn,images/br_eenhoorn.png,images/cb_eenhoorn.png,0,,,,,,,,,,,,,,,,,,,,,,
,,,,,00104,2023-11-22_17h08.59.323,vbt_B2_day3,2022.2.4,MacIntel,24.3902439,,,,,,down,0,4.719,,-0.162222222,-0.276666667,1,0,0,0,16,16,58,1,tekst,images/br_tekst.png,images/cb_tekst.png,0,,,,,,,,,,,,,,,,,,,,,,
,,,,,00104,2023-11-22_17h08.59.323,vbt_B2_day3,2022.2.4,MacIntel,24.3902439,,,,,,down,0,2.1,,-0.162222222,-0.276666667,1,0,0,0,17,17,25,1,plek,images/br_plek.png,images/cb_plek.png,0,,,,,,,,,,,,,,,,,,,,,,
,,,,,00104,2023-11-22_17h08.59.323,vbt_B2_day3,2022.2.4,MacIntel,24.3902439,,,,,,down,0,12.701,,-0.162222222,-0.276666667,1,0,0,0,18,18,194,1,driemaal,images/br_driemaal.png,images/cb_driemaal.png,0,,,,,,,,,,,,,,,,,,,,,,
,,,,,00104,2023-11-22_17h08.59.323,vbt_B2_day3,2022.2.4,MacIntel,24.3902439,,,,,,down,0,6.874,,-0.162222222,-0.276666667,1,0,0,0,19,19,162,1,uitdelen,images/br_uitdelen.png,images/cb_uitdelen.png,0,,,,,,,,,,,,,,,,,,,,,,
,,,,,00104,2023-11-22_17h08.59.323,vbt_B2_day3,2022.2.4,MacIntel,24.3902439,,,,,,down,0,5.727,,-0.162222222,-0.276666667,1,0,0,0,20,20,103,1,joggen,images/br_joggen.png,images/cb_joggen.png,1,joggen,,,,,,,,,,,,,,,,,,,,,
,,,,,00104,2023-11-22_17h08.59.323,vbt_B2_day3,2022.2.4,MacIntel,24.3902439,,,,,,down,0,17.921,,-0.162222222,-0.276666667,1,0,0,0,21,21,143,1,hechten,images/br_hechten.png,images/cb_hechten.png,1,hechten,,,,,,,,,,,,,,,,,,,,,
,,,,,00104,2023-11-22_17h08.59.323,vbt_B2_day3,2022.2.4,MacIntel,24.3902439,,,,,,down,0,7.866,,-0.162222222,-0.276666667,1,0,0,0,22,22,168,1,bisschop,images/br_bisschop.png,images/cb_bisschop.png,0,,,,,,,,,,,,,,,,,,,,,,
,,,,,00104,2023-11-22_17h08.59.323,vbt_B2_day3,2022.2.4,MacIntel,24.3902439,,,,,,down,0,0.257,,-0.162222222,-0.276666667,1,0,0,0,23,23,13,1,kaal,images/br_kaal.png,images/cb_kaal.png,0,,,,,,,,,,,,,,,,,,,,,,
,,,,,00104,2023-11-22_17h08.59.323,vbt_B2_day3,2022.2.4,MacIntel,24.3902439,,,,,,down,0,4.967,,-0.162222222,-0.276666667,1,0,0,0,24,24,16,1,ziek,images/br_ziek.png,images/cb_ziek.png,0,,,,,,,,,,,,,,,,,,,,,,
,,,,,00104,2023-11-22_17h08.59.323,vbt_B2_day3,2022.2.4,MacIntel,24.3902439,,,,,,down,0,13.752,,-0.162222222,-0.276666667,1,0,0,0,25,25,67,1,zwart,images/br_zwart.png,images/cb_zwart.png,0,,,,,,,,,,,,,,,,,,,,,,
,,,,,00104,2023-11-22_17h08.59.323,vbt_B2_day3,2022.2.4,MacIntel,24.3902439,,,,,,down,0,3.089,,-0.162222222,-0.276666667,1,0,0,0,26,26,96,1,slagen,images/br_slagen.png,images/cb_slagen.png,0,,,,,,,,,,,,,,,,,,,,,,
,,,,,00104,2023-11-22_17h08.59.323,vbt_B2_day3,2022.2.4,MacIntel,24.3902439,,,,,,down,0,7.907,,-0.162222222,-0.276666667,1,0,0,0,27,27,60,1,jasje,images/br_jasje.png,images/cb_jasje.png,1,jasje,,,,,,,,,,,,,,,,,,,,,
,,,,,00104,2023-11-22_17h08.59.323,vbt_B2_day3,2022.2.4,MacIntel,24.3902439,,,,,,down,0,11.238,,-0.162222222,-0.276666667,1,0,0,0,28,28,3,1,mand,images/br_mand.png,images/cb_mand.png,0,,,,,,,,,,,,,,,,,,,,,,
,,,,,00104,2023-11-22_17h08.59.323,vbt_B2_day3,2022.2.4,MacIntel,24.3902439,,,,,,down,0,11.454,,-0.162222222,-0.276666667,1,0,0,0,29,29,95,1,vreten,images/br_vreten.png,images/cb_vreten.png,0,,,,,,,,,,,,,,,,,,,,,,
,,,,,00104,2023-11-22_17h08.59.323,vbt_B2_day3,2022.2.4,MacIntel,24.3902439,,,,,,down,0,9.903,,-0.162222222,-0.276666667,1,0,0,0,30,30,149,1,redding,images/br_redding.png,images/cb_redding.png,0,,,,,,,,,,,,,,,,,,,,,,
,,,,,00104,2023-11-22_17h08.59.323,vbt_B2_day3,2022.2.4,MacIntel,24.3902439,,,,,,down,0,22.212,,-0.162222222,-0.276666667,1,0,0,0,31,31,94,1,oceaan,images/br_oceaan.png,images/cb_oceaan.png,0,,,,,,,,,,,,,,,,,,,,,,
,,,,,00104,2023-11-22_17h08.59.323,vbt_B2_day3,2022.2.4,MacIntel,24.3902439,,,,,,down,0,5.685,,-0.162222222,-0.276666667,1,0,0,0,32,32,141,1,knielen,images/br_knielen.png,images/cb_knielen.png,1,knielen,,,,,,,,,,,,,,,,,,,,,
,,,,,00104,2023-11-22_17h08.59.323,vbt_B2_day3,2022.2.4,MacIntel,24.3902439,,,,,,down,0,1.974,,-0.162222222,-0.276666667,1,0,0,0,33,33,48,1,steel,images/br_steel.png,images/cb_steel.png,0,,,,,,,,,,,,,,,,,,,,,,
,,,,,00104,2023-11-22_17h08.59.323,vbt_B2_day3,2022.2.4,MacIntel,24.3902439,,,,,,down,0,3.09,,-0.162222222,-0.276666667,1,0,0,0,34,34,36,1,vuur,images/br_vuur.png,images/cb_vuur.png,0,,,,,,,,,,,,,,,,,,,,,,
,,,,,00104,2023-11-22_17h08.59.323,vbt_B2_day3,2022.2.4,MacIntel,24.3902439,,,,,,down,0,12.428,,-0.162222222,-0.276666667,1,0,0,0,35,35,181,1,toegeven,images/br_toegeven.png,images/cb_toegeven.png,1,toegeven,,,,,,,,,,,,,,,,,,,,,
,,,,,00104,2023-11-22_17h08.59.323,vbt_B2_day3,2022.2.4,MacIntel,24.3902439,,,,,,down,0,7.661,,-0.192222222,-0.233333333,1,0,0,0,36,36,144,1,eetlust,images/br_eetlust.png,images/cb_eetlust.png,0,,,,,,,,,,,,,,,,,,,,,,
,,,,,00104,2023-11-22_17h08.59.323,vbt_B2_day3,2022.2.4,MacIntel,24.3902439,,,,,,down,0,7.278,,-0.192222222,-0.233333333,1,0,0,0,37,37,37,1,mijn,images/br_mijn.png,images/cb_mijn.png,0,,,,,,,,,,,,,,,,,,,,,,
,,,,,00104,2023-11-22_17h08.59.323,vbt_B2_day3,2022.2.4,MacIntel,24.3902439,,,,,,down,0,8.44,,-0.192222222,-0.233333333,1,0,0,0,38,38,123,1,hiervan,images/br_hiervan.png,images/cb_hiervan.png,0,,,,,,,,,,,,,,,,,,,,,,
,,,,,00104,2023-11-22_17h08.59.323,vbt_B2_day3,2022.2.4,MacIntel,24.3902439,,,,,,down,0,9.005,,-0.192222222,-0.233333333,1,0,0,0,39,39,192,1,schaamte,images/br_schaamte.png,images/cb_schaamte.png,0,,,,,,,,,,,,,,,,,,,,,,
,,,,,00104,2023-11-22_17h08.59.323,vbt_B2_day3,2022.2.4,MacIntel,24.3902439,,,,,,down,0,14.085,,-0.187777778,-0.225555556,1,0,0,0,40,40,191,1,opheffen,images/br_opheffen.png,images/cb_opheffen.png,0,,,,,,,,,,,,,,,,,,,,,,
,,,,,00104,2023-11-22_17h08.59.323,vbt_B2_day3,2022.2.4,MacIntel,24.3902439,,,,,,down,0,14.691,,-0.187777778,-0.225555556,1,0,0,0,41,41,180,1,openbaar,images/br_openbaar.png,images/cb_openbaar.png,1,openbaar,,,,,,,,,,,,,,,,,,,,,
,,,,,00104,2023-11-22_17h08.59.323,vbt_B2_day3,2022.2.4,MacIntel,24.3902439,,,,,,down,0,14.142,,-0.187777778,-0.225555556,1,0,0,0,42,42,23,1,zout,images/br_zout.png,images/cb_zout.png,1,zout,,,,,,,,,,,,,,,,,,,,,
,,,,,00104,2023-11-22_17h08.59.323,vbt_B2_day3,2022.2.4,MacIntel,24.3902439,,,,,,down,0,6.39,,-0.187777778,-0.225555556,1,0,0,0,43,43,186,1,voorraad,images/br_voorraad.png,images/cb_voorraad.png,0,,,,,,,,,,,,,,,,,,,,,,
,,,,,00104,2023-11-22_17h08.59.323,vbt_B2_day3,2022.2.4,MacIntel,24.3902439,,,,,,down,0,1.99,,-0.187777778,-0.225555556,1,0,0,0,44,44,35,1,lust,images/br_lust.png,images/cb_lust.png,0,,,,,,,,,,,,,,,,,,,,,,
,,,,,00104,2023-11-22_17h08.59.323,vbt_B2_day3,2022.2.4,MacIntel,24.3902439,,,,,,down,0,1.393,,-0.187777778,-0.225555556,1,0,0,0,45,45,5,1,blad,images/br_blad.png,images/cb_blad.png,0,,,,,,,,,,,,,,,,,,,,,,
,,,,,00104,2023-11-22_17h08.59.323,vbt_B2_day3,2022.2.4,MacIntel,24.3902439,,,,,,down,0,2.718,,-0.187777778,-0.225555556,1,0,0,0,46,46,17,1,taal,images/br_taal.png,images/cb_taal.png,0,,,,,,,,,,,,,,,,,,,,,,
,,,,,00104,2023-11-22_17h08.59.323,vbt_B2_day3,2022.2.4,MacIntel,24.3902439,,,,,,down,0,3.967,,-0.187777778,-0.225555556,1,0,0,0,47,47,62,1,knaap,images/br_knaap.png,images/cb_knaap.png,1,knaap,,,,,,,,,,,,,,,,,,,,,
,,,,,00104,2023-11-22_17h08.59.323,vbt_B2_day3,2022.2.4,MacIntel,24.3902439,,,,,,down,0,6.189,,-0.187777778,-0.225555556,1,0,0,0,48,48,128,1,prikken,images/br_prikken.png,images/cb_prikken.png,0,,,,,,,,,,,,,,,,,,,,,,
,,,,,00104,2023-11-22_17h08.59.323,vbt_B2_day3,2022.2.4,MacIntel,24.3902439,,,,,,down,0,11.885,,-0.187777778,-0.225555556,1,0,0,0,49,49,69,1,waken,images/br_waken.png,images/cb_waken.png,0,,,,,,,,,,,,,,,,,,,,,,
,,,,,00104,2023-11-22_17h08.59.323,vbt_B2_day3,2022.2.4,MacIntel,24.3902439,,,,,,down,0,5.167,,-0.187777778,-0.225555556,1,0,0,0,50,50,30,1,uien,images/br_uien.png,images/cb_uien.png,0,,,,,,,,,,,,,,,,,,,,,,
,,,,,00104,2023-11-22_17h08.59.323,vbt_B2_day3,2022.2.4,MacIntel,24.3902439,,,,,,down,0,12.607,,-0.187777778,-0.225555556,1,0,0,0,51,51,116,1,besmet,images/br_besmet.png,images/cb_besmet.png,0,,,,,,,,,,,,,,,,,,,,,,
,,,,,00104,2023-11-22_17h08.59.323,vbt_B2_day3,2022.2.4,MacIntel,24.3902439,,,,,,down,0,11.251,,-0.187777778,-0.225555556,1,0,0,0,52,52,83,1,mening,images/br_mening.png,images/cb_mening.png,0,,,,,,,,,,,,,,,,,,,,,,
,,,,,00104,2023-11-22_17h08.59.323,vbt_B2_day3,2022.2.4,MacIntel,24.3902439,,,,,,down,0,2.338,,-0.187777778,-0.225555556,1,0,0,0,53,53,32,1,palm,images/br_palm.png,images/cb_palm.png,0,,,,,,,,,,,,,,,,,,,,,,
,,,,,00104,2023-11-22_17h08.59.323,vbt_B2_day3,2022.2.4,MacIntel,24.3902439,,,,,,down,0,8.035,,-0.187777778,-0.225555556,1,0,0,0,54,54,74,1,graaf,images/br_graaf.png,images/cb_graaf.png,0,,,,,,,,,,,,,,,,,,,,,,
,,,,,00104,2023-11-22_17h08.59.323,vbt_B2_day3,2022.2.4,MacIntel,24.3902439,,,,,,down,0,3.057,,-0.187777778,-0.225555556,1,0,0,0,55,55,22,1,stof,images/br_stof.png,images/cb_stof.png,1,stof,,,,,,,,,,,,,,,,,,,,,
,,,,,00104,2023-11-22_17h08.59.323,vbt_B2_day3,2022.2.4,MacIntel,24.3902439,,,,,,down,0,4.768,,-0.187777778,-0.225555556,1,0,0,0,56,56,184,1,aandelen,images/br_aandelen.png,images/cb_aandelen.png,0,,,,,,,,,,,,,,,,,,,,,,
,,,,,00104,2023-11-22_17h08.59.323,vbt_B2_day3,2022.2.4,MacIntel,24.3902439,,,,,,down,0,3.144,,-0.187777778,-0.225555556,1,0,0,0,57,57,42,1,bleek,images/br_bleek.png,images/cb_bleek.png,0,,,,,,,,,,,,,,,,,,,,,,
,,,,,00104,2023-11-22_17h08.59.323,vbt_B2_day3,2022.2.4,MacIntel,24.3902439,,,,,,down,0,7.45,,-0.187777778,-0.225555556,1,0,0,0,58,58,105,1,wijlen,images/br_wijlen.png,images/cb_wijlen.png,0,,,,,,,,,,,,,,,,,,,,,,
,,,,,00104,2023-11-22_17h08.59.323,vbt_B2_day3,2022.2.4,MacIntel,24.3902439,,,,,,down,0,8.253,,-0.187777778,-0.225555556,1,0,0,0,59,59,34,1,vorm,images/br_vorm.png,images/cb_vorm.png,0,,,,,,,,,,,,,,,,,,,,,,
,,,,,00104,2023-11-22_17h08.59.323,vbt_B2_day3,2022.2.4,MacIntel,24.3902439,,,,,,down,0,3.97,,-0.187777778,-0.225555556,1,0,0,0,60,60,24,1,jurk,images/br_jurk.png,images/cb_jurk.png,0,,,,,,,,,,,,,,,,,,,,,,
,,,,,00104,2023-11-22_17h08.59.323,vbt_B2_day3,2022.2.4,MacIntel,24.3902439,,,,,,down,0,10.017,,-0.187777778,-0.225555556,1,0,0,0,61,61,170,1,schatten,images/br_schatten.png,images/cb_schatten.png,0,,,,,,,,,,,,,,,,,,,,,,
,,,,,00104,2023-11-22_17h08.59.323,vbt_B2_day3,2022.2.4,MacIntel,24.3902439,,,,,,down,0,5.235,,-0.187777778,-0.225555556,1,0,0,0,62,62,152,1,afnemen,images/br_afnemen.png,images/cb_afnemen.png,0,,,,,,,,,,,,,,,,,,,,,,
,,,,,00104,2023-11-22_17h08.59.323,vbt_B2_day3,2022.2.4,MacIntel,24.3902439,,,,,,down,0,4.808,,-0.187777778,-0.225555556,1,0,0,0,63,63,124,1,bloeien,images/br_bloeien.png,images/cb_bloeien.png,0,,,,,,,,,,,,,,,,,,,,,,
,,,,,00104,2023-11-22_17h08.59.323,vbt_B2_day3,2022.2.4,MacIntel,24.3902439,,,,,,down,0,10.45,,-0.187777778,-0.225555556,1,0,0,0,64,64,119,1,liefje,images/br_liefje.png,images/cb_liefje.png,0,,,,,,,,,,,,,,,,,,,,,,
,,,,,00104,2023-11-22_17h08.59.323,vbt_B2_day3,2022.2.4,MacIntel,24.3902439,,,,,,down,0,2.249,,-0.187777778,-0.225555556,1,0,0,0,65,65,33,1,vlek,images/br_vlek.png,images/cb_vlek.png,0,,,,,,,,,,,,,,,,,,,,,,
,,,,,00104,2023-11-22_17h08.59.323,vbt_B2_day3,2022.2.4,MacIntel,24.3902439,,,,,,down,0,12.286,,-0.187777778,-0.225555556,1,0,0,0,66,66,157,1,uitlaat,images/br_uitlaat.png,images/cb_uitlaat.png,0,,,,,,,,,,,,,,,,,,,,,,
,,,,,00104,2023-11-22_17h08.59.323,vbt_B2_day3,2022.2.4,MacIntel,24.3902439,,,,,,down,0,5.217,,-0.187777778,-0.225555556,1,0,0,0,67,67,64,1,wegen,images/br_wegen.png,images/cb_wegen.png,0,,,,,,,,,,,,,,,,,,,,,,
,,,,,00104,2023-11-22_17h08.59.323,vbt_B2_day3,2022.2.4,MacIntel,24.3902439,,,,,,down,0,6.652,,-0.187777778,-0.225555556,1,0,0,0,68,68,88,1,boeien,images/br_boeien.png,images/cb_boeien.png,0,,,,,,,,,,,,,,,,,,,,,,
,,,,,00104,2023-11-22_17h08.59.323,vbt_B2_day3,2022.2.4,MacIntel,24.3902439,,,,,,down,0,8.068,,-0.187777778,-0.225555556,1,0,0,0,69,69,122,1,waarvan,images/br_waarvan.png,images/cb_waarvan.png,0,,,,,,,,,,,,,,,,,,,,,,
,,,,,00104,2023-11-22_17h08.59.323,vbt_B2_day3,2022.2.4,MacIntel,24.3902439,,,,,,down,0,11.373,,-0.187777778,-0.225555556,1,0,0,0,70,70,47,1,kabel,images/br_kabel.png,images/cb_kabel.png,0,,,,,,,,,,,,,,,,,,,,,,
,,,,,00104,2023-11-22_17h08.59.323,vbt_B2_day3,2022.2.4,MacIntel,24.3902439,,,,,,down,0,6.66,,-0.187777778,-0.225555556,1,0,0,0,71,71,6,1,diep,images/br_diep.png,images/cb_diep.png,0,,,,,,,,,,,,,,,,,,,,,,
,,,,,00104,2023-11-22_17h08.59.323,vbt_B2_day3,2022.2.4,MacIntel,24.3902439,,,,,,down,0,10.619,,-0.187777778,-0.225555556,1,0,0,0,72,72,150,1,gegeven,images/br_gegeven.png,images/cb_gegeven.png,0,,,,,,,,,,,,,,,,,,,,,,
,,,,,00104,2023-11-22_17h08.59.323,vbt_B2_day3,2022.2.4,MacIntel,24.3902439,,,,,,down,0,7.516,,-0.187777778,-0.225555556,1,0,0,0,73,73,156,1,rechten,images/br_rechten.png,images/cb_rechten.png,0,,,,,,,,,,,,,,,,,,,,,,
,,,,,00104,2023-11-22_17h08.59.323,vbt_B2_day3,2022.2.4,MacIntel,24.3902439,,,,,,down,0,8.902,,-0.187777778,-0.225555556,1,0,0,0,74,74,1,1,zaal,images/br_zaal.png,images/cb_zaal.png,0,,,,,,,,,,,,,,,,,,,,,,
,,,,,00104,2023-11-22_17h08.59.323,vbt_B2_day3,2022.2.4,MacIntel,24.3902439,,,,,,down,0,4.15,,-0.187777778,-0.225555556,1,0,0,0,75,75,66,1,lever,images/br_lever.png,images/cb_lever.png,0,,,,,,,,,,,,,,,,,,,,,,
,,,,,00104,2023-11-22_17h08.59.323,vbt_B2_day3,2022.2.4,MacIntel,24.3902439,,,,,,down,0,3.123,,-0.187777778,-0.225555556,1,0,0,0,76,76,2,1,jaar,images/br_jaar.png,images/cb_jaar.png,0,,,,,,,,,,,,,,,,,,,,,,
,,,,,00104,2023-11-22_17h08.59.323,vbt_B2_day3,2022.2.4,MacIntel,24.3902439,,,,,,down,0,7.939,,-0.187777778,-0.225555556,1,0,0,0,77,77,113,1,koppen,images/br_koppen.png,images/cb_koppen.png,0,,,,,,,,,,,,,,,,,,,,,,
,,,,,00104,2023-11-22_17h08.59.323,vbt_B2_day3,2022.2.4,MacIntel,24.3902439,,,,,,down,0,17.574,,-0.187777778,-0.225555556,1,0,0,0,78,78,147,1,komisch,images/br_komisch.png,images/cb_komisch.png,0,,,,,,,,,,,,,,,,,,,,,,
,,,,,00104,2023-11-22_17h08.59.323,vbt_B2_day3,2022.2.4,MacIntel,24.3902439,,,,,,down,0,3.517,,-0.187777778,-0.225555556,1,0,0,0,79,79,102,1,legaal,images/br_legaal.png,images/cb_legaal.png,1,legaal,,,,,,,,,,,,,,,,,,,,,
,,,,,00104,2023-11-22_17h08.59.323,vbt_B2_day3,2022.2.4,MacIntel,24.3902439,,,,,,down,0,3.322,,-0.187777778,-0.225555556,1,0,0,0,80,80,99,1,koffie,images/br_koffie.png,images/cb_koffie.png,0,,,,,,,,,,,,,,,,,,,,,,
,,,,,00104,2023-11-22_17h08.59.323,vbt_B2_day3,2022.2.4,MacIntel,24.3902439,,,,,,down,0,8.024,,-0.187777778,-0.225555556,1,0,0,0,81,81,92,1,geheim,images/br_geheim.png,images/cb_geheim.png,0,,,,,,,,,,,,,,,,,,,,,,
,,,,,00104,2023-11-22_17h08.59.323,vbt_B2_day3,2022.2.4,MacIntel,24.3902439,,,,,,down,0,9.55,,-0.187777778,-0.225555556,1,0,0,0,82,82,61,1,groen,images/br_groen.png,images/cb_groen.png,1,groen,,,,,,,,,,,,,,,,,,,,,
,,,,,00104,2023-11-22_17h08.59.323,vbt_B2_day3,2022.2.4,MacIntel,24.3902439,,,,,,down,0,10.478,,-0.187777778,-0.225555556,1,0,0,0,83,83,171,1,aarzelen,images/br_aarzelen.png,images/cb_aarzelen.png,0,,,,,,,,,,,,,,,,,,,,,,
,,,,,00104,2023-11-22_17h08.59.323,vbt_B2_day3,2022.2.4,MacIntel,24.3902439,,,,,,down,0,14.436,,-0.187777778,-0.225555556,1,0,0,0,84,84,43,1,klauw,images/br_klauw.png,images/cb_klauw.png,0,,,,,,,,,,,,,,,,,,,,,,
,,,,,00104,2023-11-22_17h08.59.323,vbt_B2_day3,2022.2.4,MacIntel,24.3902439,,,,,,down,0,8.55,,-0.187777778,-0.225555556,1,0,0,0,85,85,164,1,anarchie,images/br_anarchie.png,images/cb_anarchie.png,0,,,,,,,,,,,,,,,,,,,,,,
,,,,,00104,2023-11-22_17h08.59.323,vbt_B2_day3,2022.2.4,MacIntel,24.3902439,,,,,,down,0,0.506,,-0.187777778,-0.225555556,1,0,0,0,86,86,8,1,knie,images/br_knie.png,images/cb_knie.png,0,,,,,,,,,,,,,,,,,,,,,,
,,,,,00104,2023-11-22_17h08.59.323,vbt_B2_day3,2022.2.4,MacIntel,24.3902439,,,,,,down,0,5.836,,-0.187777778,-0.225555556,1,0,0,0,87,87,76,1,afval,images/br_afval.png,images/cb_afval.png,0,,,,,,,,,,,,,,,,,,,,,,
,,,,,00104,2023-11-22_17h08.59.323,vbt_B2_day3,2022.2.4,MacIntel,24.3902439,,,,,,down,0,5.607,,-0.187777778,-0.225555556,1,0,0,0,88,88,197,1,spanning,images/br_spanning.png,images/cb_spanning.png,0,,,,,,,,,,,,,,,,,,,,,,
,,,,,00104,2023-11-22_17h08.59.323,vbt_B2_day3,2022.2.4,MacIntel,24.3902439,,,,,,down,0,20.008,,-0.187777778,-0.225555556,1,0,0,0,89,89,142,1,snuiven,images/br_snuiven.png,images/cb_snuiven.png,1,snuiven,,,,,,,,,,,,,,,,,,,,,
,,,,,00104,2023-11-22_17h08.59.323,vbt_B2_day3,2022.2.4,MacIntel,24.3902439,,,,,,down,0,21.737,,-0.187777778,-0.225555556,1,0,0,0,90,90,136,1,waarbij,images/br_waarbij.png,images/cb_waarbij.png,0,,,,,,,,,,,,,,,,,,,,,,
,,,,,00104,2023-11-22_17h08.59.323,vbt_B2_day3,2022.2.4,MacIntel,24.3902439,,,,,,down,0,2.559,,-0.187777778,-0.225555556,1,0,0,0,91,91,97,1,loyaal,images/br_loyaal.png,images/cb_loyaal.png,0,,,,,,,,,,,,,,,,,,,,,,
,,,,,00104,2023-11-22_17h08.59.323,vbt_B2_day3,2022.2.4,MacIntel,24.3902439,,,,,,down,0,13.051,,-0.187777778,-0.225555556,1,0,0,0,92,92,85,1,heilig,images/br_heilig.png,images/cb_heilig.png,0,,,,,,,,,,,,,,,,,,,,,,
,,,,,00104,2023-11-22_17h08.59.323,vbt_B2_day3,2022.2.4,MacIntel,24.3902439,,,,,,down,0,3.401,,-0.187777778,-0.225555556,1,0,0,0,93,93,56,1,traag,images/br_traag.png,images/cb_traag.png,0,,,,,,,,,,,,,,,,,,,,,,
,,,,,00104,2023-11-22_17h08.59.323,vbt_B2_day3,2022.2.4,MacIntel,24.3902439,,,,,,down,0,18.77,,-0.187777778,-0.225555556,1,0,0,0,94,94,118,1,vinger,images/br_vinger.png,images/cb_vinger.png,0,,,,,,,,,,,,,,,,,,,,,,
,,,,,00104,2023-11-22_17h08.59.323,vbt_B2_day3,2022.2.4,MacIntel,24.3902439,,,,,,down,0,9.502,,-0.187777778,-0.225555556,1,0,0,0,95,95,107,1,maling,images/br_maling.png,images/cb_maling.png,0,,,,,,,,,,,,,,,,,,,,,,
,,,,,00104,2023-11-22_17h08.59.323,vbt_B2_day3,2022.2.4,MacIntel,24.3902439,,,,,,down,0,6.773,,-0.187777778,-0.225555556,1,0,0,0,96,96,72,1,strak,images/br_strak.png,images/cb_strak.png,0,,,,,,,,,,,,,,,,,,,,,,
,,,,,00104,2023-11-22_17h08.59.323,vbt_B2_day3,2022.2.4,MacIntel,24.3902439,,,,,,down,0,19.424,,-0.187777778,-0.225555556,1,0,0,0,97,97,179,1,woestijn,images/br_woestijn.png,images/cb_woestijn.png,0,,,,,,,,,,,,,,,,,,,,,,
,,,,,00104,2023-11-22_17h08.59.323,vbt_B2_day3,2022.2.4,MacIntel,24.3902439,,,,,,down,0,15.335,,-0.187777778,-0.225555556,1,0,0,0,98,98,63,1,flirt,images/br_flirt.png,images/cb_flirt.png,1,flirt,,,,,,,,,,,,,,,,,,,,,
,,,,,00104,2023-11-22_17h08.59.323,vbt_B2_day3,2022.2.4,MacIntel,24.3902439,,,,,,down,0,2.988,,-0.187777778,-0.225555556,1,0,0,0,99,99,114,1,vullen,images/br_vullen.png,images/cb_vullen.png,0,,,,,,,,,,,,,,,,,,,,,,
,,,,,00104,2023-11-22_17h08.59.323,vbt_B2_day3,2022.2.4,MacIntel,24.3902439,,,,,,down,0,10.39,,-0.187777778,-0.225555556,1,0,0,0,100,100,177,1,maaltijd,images/br_maaltijd.png,images/cb_maaltijd.png,0,,,,,,,,,,,,,,,,,,,,,,
,,,,,00104,2023-11-22_17h08.59.323,vbt_B2_day3,2022.2.4,MacIntel,24.3902439,,,,,,down,0,5.267,,-0.187777778,-0.225555556,1,0,0,0,101,101,21,1,mist,images/br_mist.png,images/cb_mist.png,1,mist,,,,,,,,,,,,,,,,,,,,,
,,,,,00104,2023-11-22_17h08.59.323,vbt_B2_day3,2022.2.4,MacIntel,24.3902439,,,,,,down,0,5.36,,-0.187777778,-0.225555556,1,0,0,0,102,102,189,1,aanraden,images/br_aanraden.png,images/cb_aanraden.png,0,,,,,,,,,,,,,,,,,,,,,,
,,,,,00104,2023-11-22_17h08.59.323,vbt_B2_day3,2022.2.4,MacIntel,24.3902439,,,,,,down,0,10.477,,-0.187777778,-0.225555556,1,0,0,0,103,103,133,1,seizoen,images/br_seizoen.png,images/cb_seizoen.png,0,,,,,,,,,,,,,,,,,,,,,,
,,,,,00104,2023-11-22_17h08.59.323,vbt_B2_day3,2022.2.4,MacIntel,24.3902439,,,,,,down,0,7.567,,-0.187777778,-0.225555556,1,0,0,0,104,104,50,1,stoom,images/br_stoom.png,images/cb_stoom.png,0,,,,,,,,,,,,,,,,,,,,,,
,,,,,00104,2023-11-22_17h08.59.323,vbt_B2_day3,2022.2.4,MacIntel,24.3902439,,,,,,down,0,22.485,,-0.187777778,-0.225555556,1,0,0,0,105,105,52,1,wagon,images/br_wagon.png,images/cb_wagon.png,0,,,,,,,,,,,,,,,,,,,,,,
,,,,,00104,2023-11-22_17h08.59.323,vbt_B2_day3,2022.2.4,MacIntel,24.3902439,,,,,,down,0,5.402,,-0.187777778,-0.225555556,1,0,0,0,106,106,77,1,woede,images/br_woede.png,images/cb_woede.png,0,,,,,,,,,,,,,,,,,,,,,,
,,,,,00104,2023-11-22_17h08.59.323,vbt_B2_day3,2022.2.4,MacIntel,24.3902439,,,,,,down,0,1.298,,-0.187777778,-0.225555556,1,0,0,0,107,107,0,1,slak,images/br_slak.png,images/cb_slak.png,0,,,,,,,,,,,,,,,,,,,,,,
,,,,,00104,2023-11-22_17h08.59.323,vbt_B2_day3,2022.2.4,MacIntel,24.3902439,,,,,,down,0,7.29,,-0.187777778,-0.225555556,1,0,0,0,108,108,188,1,strekken,images/br_strekken.png,images/cb_strekken.png,0,,,,,,,,,,,,,,,,,,,,,,
,,,,,00104,2023-11-22_17h08.59.323,vbt_B2_day3,2022.2.4,MacIntel,24.3902439,,,,,,down,0,18.085,,-0.187777778,-0.225555556,1,0,0,0,109,109,121,1,twijfel,images/br_twijfel.png,images/cb_twijfel.png,0,,,,,,,,,,,,,,,,,,,,,,
,,,,,00104,2023-11-22_17h08.59.323,vbt_B2_day3,2022.2.4,MacIntel,24.3902439,,,,,,down,0,2.136,,-0.187777778,-0.225555556,1,0,0,0,110,110,84,1,lokken,images/br_lokken.png,images/cb_lokken.png,0,,,,,,,,,,,,,,,,,,,,,,
,,,,,00104,2023-11-22_17h08.59.323,vbt_B2_day3,2022.2.4,MacIntel,24.3902439,,,,,,down,0,12.7,,-0.187777778,-0.225555556,1,0,0,0,111,111,196,1,nakijken,images/br_nakijken.png,images/cb_nakijken.png,0,,,,,,,,,,,,,,,,,,,,,,
,,,,,00104,2023-11-22_17h08.59.323,vbt_B2_day3,2022.2.4,MacIntel,24.3902439,,,,,,down,0,15.086,,-0.187777778,-0.225555556,1,0,0,0,112,112,172,1,weigeren,images/br_weigeren.png,images/cb_weigeren.png,0,,,,,,,,,,,,,,,,,,,,,,
,,,,,00104,2023-11-22_17h08.59.323,vbt_B2_day3,2022.2.4,MacIntel,24.3902439,,,,,,down,0,7.451,,-0.187777778,-0.225555556,1,0,0,0,113,113,120,1,klimmen,images/br_klimmen.png,images/cb_klimmen.png,0,,,,,,,,,,,,,,,,,,,,,,
,,,,,00104,2023-11-22_17h08.59.323,vbt_B2_day3,2022.2.4,MacIntel,24.3902439,,,,,,down,0,6.689,,-0.187777778,-0.225555556,1,0,0,0,114,114,166,1,strikken,images/br_strikken.png,images/cb_strikken.png,0,,,,,,,,,,,,,,,,,,,,,,
,,,,,00104,2023-11-22_17h08.59.323,vbt_B2_day3,2022.2.4,MacIntel,24.3902439,,,,,,down,0,18.287,,-0.187777778,-0.225555556,1,0,0,0,115,115,195,1,middelen,images/br_middelen.png,images/cb_middelen.png,0,,,,,,,,,,,,,,,,,,,,,,
,,,,,00104,2023-11-22_17h08.59.323,vbt_B2_day3,2022.2.4,MacIntel,24.3902439,,,,,,down,0,7.718,,-0.187777778,-0.225555556,1,0,0,0,116,116,106,1,zingen,images/br_zingen.png,images/cb_zingen.png,0,,,,,,,,,,,,,,,,,,,,,,
,,,,,00104,2023-11-22_17h08.59.323,vbt_B2_day3,2022.2.4,MacIntel,24.3902439,,,,,,down,0,16.901,,-0.187777778,-0.225555556,1,0,0,0,117,117,131,1,opzicht,images/br_opzicht.png,images/cb_opzicht.png,0,,,,,,,,,,,,,,,,,,,,,,
,,,,,00104,2023-11-22_17h08.59.323,vbt_B2_day3,2022.2.4,MacIntel,24.3902439,,,,,,down,0,3.289,,-0.187777778,-0.225555556,1,0,0,0,118,118,90,1,geluid,images/br_geluid.png,images/cb_geluid.png,0,,,,,,,,,,,,,,,,,,,,,,
,,,,,00104,2023-11-22_17h08.59.323,vbt_B2_day3,2022.2.4,MacIntel,24.3902439,,,,,,down,0,7.375,,-0.187777778,-0.225555556,1,0,0,0,119,119,139,1,stiekem,images/br_stiekem.png,images/cb_stiekem.png,0,,,,,,,,,,,,,,,,,,,,,,
,,,,,00104,2023-11-22_17h08.59.323,vbt_B2_day3,2022.2.4,MacIntel,24.3902439,,,,,,down,0,9.718,,-0.187777778,-0.225555556,1,0,0,0,120,120,155,1,gerucht,images/br_gerucht.png,images/cb_gerucht.png,0,,,,,,,,,,,,,,,,,,,,,,
,,,,,00104,2023-11-22_17h08.59.323,vbt_B2_day3,2022.2.4,MacIntel,24.3902439,,,,,,down,0,6.121,,-0.187777778,-0.225555556,1,0,0,0,121,121,46,1,jagen,images/br_jagen.png,images/cb_jagen.png,0,,,,,,,,,,,,,,,,,,,,,,
,,,,,00104,2023-11-22_17h08.59.323,vbt_B2_day3,2022.2.4,MacIntel,24.3902439,,,,,,down,0,1.336,,-0.187777778,-0.225555556,1,0,0,0,122,122,29,1,baas,images/br_baas.png,images/cb_baas.png,0,,,,,,,,,,,,,,,,,,,,,,
,,,,,00104,2023-11-22_17h08.59.323,vbt_B2_day3,2022.2.4,MacIntel,24.3902439,,,,,,down,0,2.458,,-0.187777778,-0.225555556,1,0,0,0,123,123,7,1,geld,images/br_geld.png,images/cb_geld.png,0,,,,,,,,,,,,,,,,,,,,,,
,,,,,00104,2023-11-22_17h08.59.323,vbt_B2_day3,2022.2.4,MacIntel,24.3902439,,,,,,down,0,1.966,,-0.187777778,-0.225555556,1,0,0,0,124,124,38,1,baai,images/br_baai.png,images/cb_baai.png,0,,,,,,,,,,,,,,,,,,,,,,
,,,,,00104,2023-11-22_17h08.59.323,vbt_B2_day3,2022.2.4,MacIntel,24.3902439,,,,,,down,0,7.157,,-0.187777778,-0.225555556,1,0,0,0,125,125,12,1,kust,images/br_kust.png,images/cb_kust.png,0,,,,,,,,,,,,,,,,,,,,,,
,,,,,00104,2023-11-22_17h08.59.323,vbt_B2_day3,2022.2.4,MacIntel,24.3902439,,,,,,down,0,4.117,,-0.187777778,-0.225555556,1,0,0,0,126,126,187,1,opkijken,images/br_opkijken.png,images/cb_opkijken.png,0,,,,,,,,,,,,,,,,,,,,,,
,,,,,00104,2023-11-22_17h08.59.323,vbt_B2_day3,2022.2.4,MacIntel,24.3902439,,,,,,down,0,9.983,,-0.187777778,-0.225555556,1,0,0,0,127,127,75,1,snoep,images/br_snoep.png,images/cb_snoep.png,0,,,,,,,,,,,,,,,,,,,,,,
,,,,,00104,2023-11-22_17h08.59.323,vbt_B2_day3,2022.2.4,MacIntel,24.3902439,,,,,,down,0,11.035,,-0.187777778,-0.225555556,1,0,0,0,128,128,82,1,muziek,images/br_muziek.png,images/cb_muziek.png,0,,,,,,,,,,,,,,,,,,,,,,
,,,,,00104,2023-11-22_17h08.59.323,vbt_B2_day3,2022.2.4,MacIntel,24.3902439,,,,,,down,0,9.202,,-0.187777778,-0.225555556,1,0,0,0,129,129,79,1,nodig,images/br_nodig.png,images/cb_nodig.png,0,,,,,,,,,,,,,,,,,,,,,,
,,,,,00104,2023-11-22_17h08.59.323,vbt_B2_day3,2022.2.4,MacIntel,24.3902439,,,,,,down,0,16.289,,-0.187777778,-0.225555556,1,0,0,0,130,130,41,1,maken,images/br_maken.png,images/cb_maken.png,0,,,,,,,,,,,,,,,,,,,,,,
,,,,,00104,2023-11-22_17h08.59.323,vbt_B2_day3,2022.2.4,MacIntel,24.3902439,,,,,,down,0,3.75,,-0.187777778,-0.225555556,1,0,0,0,131,131,81,1,dubbel,images/br_dubbel.png,images/cb_dubbel.png,0,,,,,,,,,,,,,,,,,,,,,,
,,,,,00104,2023-11-22_17h08.59.323,vbt_B2_day3,2022.2.4,MacIntel,24.3902439,,,,,,down,0,5.701,,-0.187777778,-0.225555556,1,0,0,0,132,132,199,1,beseffen,images/br_beseffen.png,images/cb_beseffen.png,0,,,,,,,,,,,,,,,,,,,,,,
,,,,,00104,2023-11-22_17h08.59.323,vbt_B2_day3,2022.2.4,MacIntel,24.3902439,,,,,,down,0,15.284,,-0.187777778,-0.225555556,1,0,0,0,133,133,178,1,huisdier,images/br_huisdier.png,images/cb_huisdier.png,0,,,,,,,,,,,,,,,,,,,,,,
,,,,,00104,2023-11-22_17h08.59.323,vbt_B2_day3,2022.2.4,MacIntel,24.3902439,,,,,,down,0,9.64,,-0.187777778,-0.225555556,1,0,0,0,134,134,127,1,doodmoe,images/br_doodmoe.png,images/cb_doodmoe.png,0,,,,,,,,,,,,,,,,,,,,,,
,,,,,00104,2023-11-22_17h08.59.323,vbt_B2_day3,2022.2.4,MacIntel,24.3902439,,,,,,down,0,14.507,,-0.187777778,-0.225555556,1,0,0,0,135,135,108,1,excuus,images/br_excuus.png,images/cb_excuus.png,0,,,,,,,,,,,,,,,,,,,,,,
,,,,,00104,2023-11-22_17h08.59.323,vbt_B2_day3,2022.2.4,MacIntel,24.3902439,,,,,,down,0,3.91,,-0.187777778,-0.225555556,1,0,0,0,136,136,68,1,schat,images/br_schat.png,images/cb_schat.png,0,,,,,,,,,,,,,,,,,,,,,,
,,,,,00104,2023-11-22_17h08.59.323,vbt_B2_day3,2022.2.4,MacIntel,24.3902439,,,,,,down,0,12.557,,-0.187777778,-0.225555556,1,0,0,0,137,137,154,1,aflopen,images/br_aflopen.png,images/cb_aflopen.png,0,,,,,,,,,,,,,,,,,,,,,,
,,,,,00104,2023-11-22_17h08.59.323,vbt_B2_day3,2022.2.4,MacIntel,24.3902439,,,,,,down,0,9.491,,-0.187777778,-0.225555556,1,0,0,0,138,138,40,1,schep,images/br_schep.png,images/cb_schep.png,0,,,,,,,,,,,,,,,,,,,,,,
,,,,,00104,2023-11-22_17h08.59.323,vbt_B2_day3,2022.2.4,MacIntel,24.3902439,,,,,,down,0,4.105,,-0.187777778,-0.225555556,1,0,0,0,139,139,27,1,dans,images/br_dans.png,images/cb_dans.png,0,,,,,,,,,,,,,,,,,,,,,,
,,,,,00104,2023-11-22_17h08.59.323,vbt_B2_day3,2022.2.4,MacIntel,24.3902439,,,,,,down,0,8.337,,-0.187777778,-0.225555556,1,0,0,0,140,140,146,1,opkomen,images/br_opkomen.png,images/cb_opkomen.png,0,,,,,,,,,,,,,,,,,,,,,,
,,,,,00104,2023-11-22_17h08.59.323,vbt_B2_day3,2022.2.4,MacIntel,24.3902439,,,,,,down,0,8.952,,-0.187777778,-0.225555556,1,0,0,0,141,141,148,1,smullen,images/br_smullen.png,images/cb_smullen.png,0,,,,,,,,,,,,,,,,,,,,,,
,,,,,00104,2023-11-22_17h08.59.323,vbt_B2_day3,2022.2.4,MacIntel,24.3902439,,,,,,down,0,18.257,,-0.187777778,-0.225555556,1,0,0,0,142,142,173,1,apparaat,images/br_apparaat.png,images/cb_apparaat.png,0,,,,,,,,,,,,,,,,,,,,,,
,,,,,00104,2023-11-22_17h08.59.323,vbt_B2_day3,2022.2.4,MacIntel,24.3902439,,,,,,down,0,7.803,,-0.187777778,-0.225555556,1,0,0,0,143,143,182,1,bijkomen,images/br_bijkomen.png,images/cb_bijkomen.png,1,bijkomen,,,,,,,,,,,,,,,,,,,,,
,,,,,00104,2023-11-22_17h08.59.323,vbt_B2_day3,2022.2.4,MacIntel,24.3902439,,,,,,down,0,21.019,,-0.187777778,-0.225555556,1,0,0,0,144,144,130,1,keihard,images/br_keihard.png,images/cb_keihard.png,0,,,,,,,,,,,,,,,,,,,,,,
,,,,,00104,2023-11-22_17h08.59.323,vbt_B2_day3,2022.2.4,MacIntel,24.3902439,,,,,,down,0,4.456,,-0.187777778,-0.225555556,1,0,0,0,145,145,78,1,leren,images/br_leren.png,images/cb_leren.png,0,,,,,,,,,,,,,,,,,,,,,,
,,,,,00104,2023-11-22_17h08.59.323,vbt_B2_day3,2022.2.4,MacIntel,24.3902439,,,,,,down,0,8.851,,-0.187777778,-0.225555556,1,0,0,0,146,146,134,1,geliefd,images/br_geliefd.png,images/cb_geliefd.png,0,,,,,,,,,,,,,,,,,,,,,,
,,,,,00104,2023-11-22_17h08.59.323,vbt_B2_day3,2022.2.4,MacIntel,24.3902439,,,,,,down,0,11.476,,-0.187777778,-0.225555556,1,0,0,0,147,147,161,1,attentie,images/br_attentie.png,images/cb_attentie.png,0,,,,,,,,,,,,,,,,,,,,,,
,,,,,00104,2023-11-22_17h08.59.323,vbt_B2_day3,2022.2.4,MacIntel,24.3902439,,,,,,down,0,5.366,,-0.187777778,-0.225555556,1,0,0,0,148,148,15,1,soda,images/br_soda.png,images/cb_soda.png,0,,,,,,,,,,,,,,,,,,,,,,
,,,,,00104,2023-11-22_17h08.59.323,vbt_B2_day3,2022.2.4,MacIntel,24.3902439,,,,,,down,0,14.486,,-0.187777778,-0.225555556,1,0,0,0,149,149,185,1,mijnheer,images/br_mijnheer.png,images/cb_mijnheer.png,0,,,,,,,,,,,,,,,,,,,,,,
,,,,,00104,2023-11-22_17h08.59.323,vbt_B2_day3,2022.2.4,MacIntel,24.3902439,,,,,,down,0,13.234,,-0.187777778,-0.225555556,1,0,0,0,150,150,101,1,staren,images/br_staren.png,images/cb_staren.png,1,staren,,,,,,,,,,,,,,,,,,,,,
,,,,,00104,2023-11-22_17h08.59.323,vbt_B2_day3,2022.2.4,MacIntel,24.3902439,,,,,,down,0,4.235,,-0.187777778,-0.225555556,1,0,0,0,151,151,19,1,geit,images/br_geit.png,images/cb_geit.png,0,,,,,,,,,,,,,,,,,,,,,,
,,,,,00104,2023-11-22_17h08.59.323,vbt_B2_day3,2022.2.4,MacIntel,24.3902439,,,,,,down,0,8.158,,-0.187777778,-0.225555556,1,0,0,0,152,152,190,1,goedkoop,images/br_goedkoop.png,images/cb_goedkoop.png,0,,,,,,,,,,,,,,,,,,,,,,
,,,,,00104,2023-11-22_17h08.59.323,vbt_B2_day3,2022.2.4,MacIntel,24.3902439,,,,,,down,0,8.917,,-0.187777778,-0.225555556,1,0,0,0,153,153,140,1,blijven,images/br_blijven.png,images/cb_blijven.png,1,blijven,,,,,,,,,,,,,,,,,,,,,
,,,,,00104,2023-11-22_17h08.59.323,vbt_B2_day3,2022.2.4,MacIntel,24.3902439,,,,,,down,0,5.117,,-0.187777778,-0.225555556,1,0,0,0,154,154,135,1,gedicht,images/br_gedicht.png,images/cb_gedicht.png,0,,,,,,,,,,,,,,,,,,,,,,
,,,,,00104,2023-11-22_17h08.59.323,vbt_B2_day3,2022.2.4,MacIntel,24.3902439,,,,,,down,0,5.973,,-0.187777778,-0.225555556,1,0,0,0,155,155,117,1,kennis,images/br_kennis.png,images/cb_kennis.png,0,,,,,,,,,,,,,,,,,,,,,,
,,,,,00104,2023-11-22_17h08.59.323,vbt_B2_day3,2022.2.4,MacIntel,24.3902439,,,,,,down,0,4.593,,-0.187777778,-0.225555556,1,0,0,0,156,156,54,1,gebit,images/br_gebit.png,images/cb_gebit.png,0,,,,,,,,,,,,,,,,,,,,,,
,,,,,00104,2023-11-22_17h08.59.323,vbt_B2_day3,2022.2.4,MacIntel,24.3902439,,,,,,down,0,14.79,,-0.187777778,-0.225555556,1,0,0,0,157,157,165,1,feestdag,images/br_feestdag.png,images/cb_feestdag.png,0,,,,,,,,,,,,,,,,,,,,,,
,,,,,00104,2023-11-22_17h08.59.323,vbt_B2_day3,2022.2.4,MacIntel,24.3902439,,,,,,down,0,17.335,,-0.187777778,-0.225555556,1,0,0,0,158,158,26,1,leuk,images/br_leuk.png,images/cb_leuk.png,0,,,,,,,,,,,,,,,,,,,,,,
,,,,,00104,2023-11-22_17h08.59.323,vbt_B2_day3,2022.2.4,MacIntel,24.3902439,,,,,,down,0,4.636,,-0.187777778,-0.225555556,1,0,0,0,159,159,91,1,gezond,images/br_gezond.png,images/cb_gezond.png,0,,,,,,,,,,,,,,,,,,,,,,
,,,,,00104,2023-11-22_17h08.59.323,vbt_B2_day3,2022.2.4,MacIntel,24.3902439,,,,,,down,0,2.206,,-0.187777778,-0.225555556,1,0,0,0,160,160,18,1,blik,images/br_blik.png,images/cb_blik.png,0,,,,,,,,,,,,,,,,,,,,,,
,,,,,00104,2023-11-22_17h08.59.323,vbt_B2_day3,2022.2.4,MacIntel,24.3902439,,,,,,down,0,4.626,,-0.187777778,-0.225555556,1,0,0,0,161,161,57,1,steek,images/br_steek.png,images/cb_steek.png,0,,,,,,,,,,,,,,,,,,,,,,
,,,,,00104,2023-11-22_17h08.59.323,vbt_B2_day3,2022.2.4,MacIntel,24.3902439,,,,,,down,0,3.71,,-0.187777778,-0.225555556,1,0,0,0,162,162,104,1,zweven,images/br_zweven.png,images/cb_zweven.png,0,,,,,,,,,,,,,,,,,,,,,,
,,,,,00104,2023-11-22_17h08.59.323,vbt_B2_day3,2022.2.4,MacIntel,24.3902439,,,,,,down,0,5.701,,-0.187777778,-0.225555556,1,0,0,0,163,163,73,1,volop,images/br_volop.png,images/cb_volop.png,0,,,,,,,,,,,,,,,,,,,,,,
,,,,,00104,2023-11-22_17h08.59.323,vbt_B2_day3,2022.2.4,MacIntel,24.3902439,,,,,,down,0,4.584,,-0.187777778,-0.225555556,1,0,0,0,164,164,45,1,piste,images/br_piste.png,images/cb_piste.png,0,,,,,,,,,,,,,,,,,,,,,,
,,,,,00104,2023-11-22_17h08.59.323,vbt_B2_day3,2022.2.4,MacIntel,24.3902439,,,,,,down,0,4.556,,-0.187777778,-0.225555556,1,0,0,0,165,165,160,1,daarheen,images/br_daarheen.png,images/cb_daarheen.png,0,,,,,,,,,,,,,,,,,,,,,,
,,,,,00104,2023-11-22_17h08.59.323,vbt_B2_day3,2022.2.4,MacIntel,24.3902439,,,,,,down,0,4.822,,-0.187777778,-0.225555556,1,0,0,0,166,166,59,1,kring,images/br_kring.png,images/cb_kring.png,0,,,,,,,,,,,,,,,,,,,,,,
,,,,,00104,2023-11-22_17h08.59.323,vbt_B2_day3,2022.2.4,MacIntel,24.3902439,,,,,,down,0,10.584,,-0.187777778,-0.225555556,1,0,0,0,167,167,159,1,sufferd,images/br_sufferd.png,images/cb_sufferd.png,0,,,,,,,,,,,,,,,,,,,,,,
,,,,,00104,2023-11-22_17h08.59.323,vbt_B2_day3,2022.2.4,MacIntel,24.3902439,,,,,,down,0,7.49,,-0.187777778,-0.225555556,1,0,0,0,168,168,163,1,schuilen,images/br_schuilen.png,images/cb_schuilen.png,0,,,,,,,,,,,,,,,,,,,,,,
,,,,,00104,2023-11-22_17h08.59.323,vbt_B2_day3,2022.2.4,MacIntel,24.3902439,,,,,,down,0,1.871,,-0.187777778,-0.225555556,1,0,0,0,169,169,9,1,hier,images/br_hier.png,images/cb_hier.png,0,,,,,,,,,,,,,,,,,,,,,,
,,,,,00104,2023-11-22_17h08.59.323,vbt_B2_day3,2022.2.4,MacIntel,24.3902439,,,,,,down,0,4.135,,-0.187777778,-0.225555556,1,0,0,0,170,170,151,1,aanzoek,images/br_aanzoek.png,images/cb_aanzoek.png,0,,,,,,,,,,,,,,,,,,,,,,
,,,,,00104,2023-11-22_17h08.59.323,vbt_B2_day3,2022.2.4,MacIntel,24.3902439,,,,,,down,0,4.608,,-0.187777778,-0.225555556,1,0,0,0,171,171,183,1,getuigen,images/br_getuigen.png,images/cb_getuigen.png,1,getuigen,,,,,,,,,,,,,,,,,,,,,
,,,,,00104,2023-11-22_17h08.59.323,vbt_B2_day3,2022.2.4,MacIntel,24.3902439,,,,,,down,0,9.503,,-0.187777778,-0.225555556,1,0,0,0,172,172,87,1,toeval,images/br_toeval.png,images/cb_toeval.png,0,,,,,,,,,,,,,,,,,,,,,,
,,,,,00104,2023-11-22_17h08.59.323,vbt_B2_day3,2022.2.4,MacIntel,24.3902439,,,,,,down,0,12.45,,-0.187777778,-0.225555556,1,0,0,0,173,173,14,1,rijp,images/br_rijp.png,images/cb_rijp.png,0,,,,,,,,,,,,,,,,,,,,,,
,,,,,00104,2023-11-22_17h08.59.323,vbt_B2_day3,2022.2.4,MacIntel,24.3902439,,,,,,down,0,2.374,,-0.187777778,-0.225555556,1,0,0,0,174,174,126,1,kasteel,images/br_kasteel.png,images/cb_kasteel.png,0,,,,,,,,,,,,,,,,,,,,,,
,,,,,00104,2023-11-22_17h08.59.323,vbt_B2_day3,2022.2.4,MacIntel,24.3902439,,,,,,down,0,7.551,,-0.187777778,-0.225555556,1,0,0,0,175,175,158,1,innemen,images/br_innemen.png,images/cb_innemen.png,0,,,,,,,,,,,,,,,,,,,,,,
,,,,,00104,2023-11-22_17h08.59.323,vbt_B2_day3,2022.2.4,MacIntel,24.3902439,,,,,,down,0,4.585,,-0.187777778,-0.225555556,1,0,0,0,176,176,193,1,weeshuis,images/br_weeshuis.png,images/cb_weeshuis.png,0,,,,,,,,,,,,,,,,,,,,,,
,,,,,00104,2023-11-22_17h08.59.323,vbt_B2_day3,2022.2.4,MacIntel,24.3902439,,,,,,down,0,2,,-0.187777778,-0.225555556,1,0,0,0,177,177,86,1,woning,images/br_woning.png,images/cb_woning.png,0,,,,,,,,,,,,,,,,,,,,,,
,,,,,00104,2023-11-22_17h08.59.323,vbt_B2_day3,2022.2.4,MacIntel,24.3902439,,,,,,down,0,3.001,,-0.187777778,-0.225555556,1,0,0,0,178,178,55,1,praat,images/br_praat.png,images/cb_praat.png,0,,,,,,,,,,,,,,,,,,,,,,
,,,,,00104,2023-11-22_17h08.59.323,vbt_B2_day3,2022.2.4,MacIntel,24.3902439,,,,,,down,0,1.556,,-0.187777778,-0.225555556,1,0,0,0,179,179,31,1,poes,images/br_poes.png,images/cb_poes.png,0,,,,,,,,,,,,,,,,,,,,,,
,,,,,00104,2023-11-22_17h08.59.323,vbt_B2_day3,2022.2.4,MacIntel,24.3902439,,,,,,down,0,2.737,,-0.187777778,-0.225555556,1,0,0,0,180,180,4,1,moes,images/br_moes.png,images/cb_moes.png,0,,,,,,,,,,,,,,,,,,,,,,
,,,,,00104,2023-11-22_17h08.59.323,vbt_B2_day3,2022.2.4,MacIntel,24.3902439,,,,,,down,0,3.508,,-0.187777778,-0.225555556,1,0,0,0,181,181,44,1,flits,images/br_flits.png,images/cb_flits.png,0,,,,,,,,,,,,,,,,,,,,,,
,,,,,00104,2023-11-22_17h08.59.323,vbt_B2_day3,2022.2.4,MacIntel,24.3902439,,,,,,down,0,2.26,,-0.187777778,-0.225555556,1,0,0,0,182,182,71,1,bever,images/br_bever.png,images/cb_bever.png,0,,,,,,,,,,,,,,,,,,,,,,
,,,,,00104,2023-11-22_17h08.59.323,vbt_B2_day3,2022.2.4,MacIntel,24.3902439,,,,,,down,0,5.334,,-0.187777778,-0.225555556,1,0,0,0,183,183,110,1,zuster,images/br_zuster.png,images/cb_zuster.png,0,,,,,,,,,,,,,,,,,,,,,,
,,,,,00104,2023-11-22_17h08.59.323,vbt_B2_day3,2022.2.4,MacIntel,24.3902439,,,,,,down,0,5.535,,-0.187777778,-0.225555556,1,0,0,0,184,184,175,1,heengaan,images/br_heengaan.png,images/cb_heengaan.png,0,,,,,,,,,,,,,,,,,,,,,,
,,,,,00104,2023-11-22_17h08.59.323,vbt_B2_day3,2022.2.4,MacIntel,24.3902439,,,,,,down,0,5.294,,-0.187777778,-0.225555556,1,0,0,0,185,185,98,1,kreeft,images/br_kreeft.png,images/cb_kreeft.png,0,,,,,,,,,,,,,,,,,,,,,,
,,,,,00104,2023-11-22_17h08.59.323,vbt_B2_day3,2022.2.4,MacIntel,24.3902439,,,,,,down,0,2.502,,-0.187777778,-0.225555556,1,0,0,0,186,186,176,1,techniek,images/br_techniek.png,images/cb_techniek.png,0,,,,,,,,,,,,,,,,,,,,,,
,,,,,00104,2023-11-22_17h08.59.323,vbt_B2_day3,2022.2.4,MacIntel,24.3902439,,,,,,down,0,4.125,,-0.187777778,-0.225555556,1,0,0,0,187,187,198,1,bedoelen,images/br_bedoelen.png,images/cb_bedoelen.png,0,,,,,,,,,,,,,,,,,,,,,,
,,,,,00104,2023-11-22_17h08.59.323,vbt_B2_day3,2022.2.4,MacIntel,24.3902439,,,,,,down,0,10.157,,-0.187777778,-0.225555556,1,0,0,0,188,188,111,1,ticket,images/br_ticket.png,images/cb_ticket.png,0,,,,,,,,,,,,,,,,,,,,,,
,,,,,00104,2023-11-22_17h08.59.323,vbt_B2_day3,2022.2.4,MacIntel,24.3902439,,,,,,down,0,9.186,,-0.187777778,-0.225555556,1,0,0,0,189,189,174,1,stemming,images/br_stemming.png,images/cb_stemming.png,0,,,,,,,,,,,,,,,,,,,,,,
,,,,,00104,2023-11-22_17h08.59.323,vbt_B2_day3,2022.2.4,MacIntel,24.3902439,,,,,,down,0,5.6,,-0.187777778,-0.225555556,1,0,0,0,190,190,100,1,geduld,images/br_geduld.png,images/cb_geduld.png,1,geduld,,,,,,,,,,,,,,,,,,,,,
,,,,,00104,2023-11-22_17h08.59.323,vbt_B2_day3,2022.2.4,MacIntel,24.3902439,,,,,,down,0,2.45,,-0.187777778,-0.225555556,1,0,0,0,191,191,89,1,slapen,images/br_slapen.png,images/cb_slapen.png,0,,,,,,,,,,,,,,,,,,,,,,
,,,,,00104,2023-11-22_17h08.59.323,vbt_B2_day3,2022.2.4,MacIntel,24.3902439,,,,,,down,0,1.017,,-0.187777778,-0.225555556,1,0,0,0,192,192,10,1,leek,images/br_leek.png,images/cb_leek.png,0,,,,,,,,,,,,,,,,,,,,,,
,,,,,00104,2023-11-22_17h08.59.323,vbt_B2_day3,2022.2.4,MacIntel,24.3902439,,,,,,down,0,0.227,,-0.187777778,-0.225555556,1,0,0,0,193,193,112,1,lukken,images/br_lukken.png,images/cb_lukken.png,0,,,,,,,,,,,,,,,,,,,,,,
,,,,,00104,2023-11-22_17h08.59.323,vbt_B2_day3,2022.2.4,MacIntel,24.3902439,,,,,,down,0,5.253,,-0.187777778,-0.225555556,1,0,0,0,194,194,109,1,totaal,images/br_totaal.png,images/cb_totaal.png,0,,,,,,,,,,,,,,,,,,,,,,
,,,,,00104,2023-11-22_17h08.59.323,vbt_B2_day3,2022.2.4,MacIntel,24.3902439,,,,,,down,0,3.239,,-0.187777778,-0.225555556,1,0,0,0,195,195,11,1,mode,images/br_mode.png,images/cb_mode.png,0,,,,,,,,,,,,,,,,,,,,,,
,,,,,00104,2023-11-22_17h08.59.323,vbt_B2_day3,2022.2.4,MacIntel,24.3902439,,,,,,down,0,7.261,,-0.187777778,-0.225555556,1,0,0,0,196,196,169,1,oprotten,images/br_oprotten.png,images/cb_oprotten.png,0,,,,,,,,,,,,,,,,,,,,,,
,,,,,00104,2023-11-22_17h08.59.323,vbt_B2_day3,2022.2.4,MacIntel,24.3902439,,,,,,down,0,10.024,,-0.187777778,-0.225555556,1,0,0,0,197,197,93,1,waarop,images/br_waarop.png,images/cb_waarop.png,0,,,,,,,,,,,,,,,,,,,,,,
,,,,,00104,2023-11-22_17h08.59.323,vbt_B2_day3,2022.2.4,MacIntel,24.3902439,,,,,,down,0,4.268,,-0.187777778,-0.225555556,1,0,0,0,198,198,51,1,samen,images/br_samen.png,images/cb_samen.png,0,,,,,,,,,,,,,,,,,,,,,,
,,,,,00104,2023-11-22_17h08.59.323,vbt_B2_day3,2022.2.4,MacIntel,24.3902439,,,,,,down,0,2.319,,-0.187777778,-0.225555556,1,0,0,0,199,199,145,1,invloed,images/br_invloed.png,images/cb_invloed.png,0,,,,,,,,,,,,,,,,,,,,,,
,,,,,00104,2023-11-22_17h08.59.323,vbt_B2_day3,2022.2.4,MacIntel,24.3902439,,,,,,,,,,,,,,,,,,,,,,,,,-0.187777778,-0.225555556,1,0,0,,,,,,,,,,,,,,,,
,,,,,00104,2023-11-22_17h08.59.323,vbt_B2_day3,2022.2.4,MacIntel,24.3902439,,,,,,,,,,,,,,,,,,,,,,,,,,,,,,-0.187777778,-0.225555556,1,0,0,,,,,,,,,,,
,,,,,00104,2023-11-22_17h08.59.323,vbt_B2_day3,2022.2.4,MacIntel,24.3902439,,,,,,,,,,,,,,,,,,,,uniek,images/br_uniek.png,images/cb_uniek.png,,uniek,,,,,,,,,,,-0.187777778,-0.225555556,1,0,0,uniek,0,0,0,46,1
,,,,,00104,2023-11-22_17h08.59.323,vbt_B2_day3,2022.2.4,MacIntel,24.3902439,,,,,,,,,,,,,,,,,,,,schodel,images/br_schodel.png,images/cb_schodel.png,,schodel,,,,,,,,,,,-0.187777778,-0.225555556,1,0,0,schodel,0,1,1,33,1
,,,,,00104,2023-11-22_17h08.59.323,vbt_B2_day3,2022.2.4,MacIntel,24.3902439,,,,,,,,,,,,,,,,,,,,alsof,images/br_alsof.png,images/cb_alsof.png,,alsof,,,,,,,,,,,-0.187777778,-0.225555556,1,0,0,alsof,0,2,2,44,1
,,,,,00104,2023-11-22_17h08.59.323,vbt_B2_day3,2022.2.4,MacIntel,24.3902439,,,,,,,,,,,,,,,,,,,,bevret,images/br_bevret.png,images/cb_bevret.png,,bevre.,,,,,,,,,,,-0.187777778,-0.225555556,1,0,0,bevre.,0,3,3,30,1
,,,,,00104,2023-11-22_17h08.59.323,vbt_B2_day3,2022.2.4,MacIntel,24.3902439,,,,,,,,,,,,,,,,,,,,kwaas,images/br_kwaas.png,images/cb_kwaas.png,,k.aas,,,,,,,,,,,-0.187777778,-0.225555556,1,0,0,k.aas,0,4,4,26,1
,,,,,00104,2023-11-22_17h08.59.323,vbt_B2_day3,2022.2.4,MacIntel,24.3902439,,,,,,,,,,,,,,,,,,,,invallen,images/br_invallen.png,images/cb_invallen.png,,inva....,,,,,,,,,,,-0.187777778,-0.225555556,1,0,0,inva....,0,5,5,57,1
,,,,,00104,2023-11-22_17h08.59.323,vbt_B2_day3,2022.2.4,MacIntel,24.3902439,,,,,,,,,,,,,,,,,,,,knie,images/br_knie.png,images/cb_knie.png,,knie,,,,,,,,,,,-0.187777778,-0.225555556,1,0,0,knie,0,6,6,0,1
,,,,,00104,2023-11-22_17h08.59.323,vbt_B2_day3,2022.2.4,MacIntel,24.3902439,,,,,,,,,,,,,,,,,,,,eens,images/br_eens.png,images/cb_eens.png,,eens,,,,,,,,,,,-0.187777778,-0.225555556,1,0,0,eens,0,7,7,40,1
,,,,,00104,2023-11-22_17h08.59.323,vbt_B2_day3,2022.2.4,MacIntel,24.3902439,,,,,,,,,,,,,,,,,,,,keihard,images/br_keihard.png,images/cb_keihard.png,,keihard,,,,,,,,,,,-0.187777778,-0.225555556,1,0,0,keihard,0,8,8,14,1
,,,,,00104,2023-11-22_17h08.59.323,vbt_B2_day3,2022.2.4,MacIntel,24.3902439,,,,,,,,,,,,,,,,,,,,aarzelen,images/br_aarzelen.png,images/cb_aarzelen.png,,aarzelen,,,,,,,,,,,-0.187777778,-0.225555556,1,0,0,aarzelen,0,9,9,19,1
,,,,,00104,2023-11-22_17h08.59.323,vbt_B2_day3,2022.2.4,MacIntel,24.3902439,,,,,,,,,,,,,,,,,,,,slapen,images/br_slapen.png,images/cb_slapen.png,,slapen,,,,,,,,,,,-0.187777778,-0.225555556,1,0,0,slapen,0,10,10,9,1
,,,,,00104,2023-11-22_17h08.59.323,vbt_B2_day3,2022.2.4,MacIntel,24.3902439,,,,,,,,,,,,,,,,,,,,stallen,images/br_stallen.png,images/cb_stallen.png,,stallen,,,,,,,,,,,-0.187777778,-0.225555556,1,0,0,stallen,0,11,11,52,1
,,,,,00104,2023-11-22_17h08.59.323,vbt_B2_day3,2022.2.4,MacIntel,24.3902439,,,,,,,,,,,,,,,,,,,,paken,images/br_paken.png,images/cb_paken.png,,paken,,,,,,,,,,,-0.187777778,-0.225555556,1,0,0,paken,0,12,12,27,1
,,,,,00104,2023-11-22_17h08.59.323,vbt_B2_day3,2022.2.4,MacIntel,24.3902439,,,,,,,,,,,,,,,,,,,,oprotten,images/br_oprotten.png,images/cb_oprotten.png,,opkotten,,,,,,,,,,,-0.187777778,-0.225555556,1,0,0,opkotten,0,13,13,17,1
,,,,,00104,2023-11-22_17h08.59.323,vbt_B2_day3,2022.2.4,MacIntel,24.3902439,,,,,,,,,,,,,,,,,,,,uviek,images/br_uviek.png,images/cb_uviek.png,,uviek,,,,,,,,,,,-0.187777778,-0.225555556,1,0,0,uviek,0,14,14,25,1
,,,,,00104,2023-11-22_17h08.59.323,vbt_B2_day3,2022.2.4,MacIntel,24.3902439,,,,,,,,,,,,,,,,,,,,dwang,images/br_dwang.png,images/cb_dwang.png,,dwang,,,,,,,,,,,-0.187777778,-0.225555556,1,0,0,dwang,0,15,15,47,1
,,,,,00104,2023-11-22_17h08.59.323,vbt_B2_day3,2022.2.4,MacIntel,24.3902439,,,,,,,,,,,,,,,,,,,,vlager,images/br_vlager.png,images/cb_vlager.png,,vlage.,,,,,,,,,,,-0.187777778,-0.225555556,1,0,0,vlage.,0,16,16,28,1
,,,,,00104,2023-11-22_17h08.59.323,vbt_B2_day3,2022.2.4,MacIntel,24.3902439,,,,,,,,,,,,,,,,,,,,stikken,images/br_stikken.png,images/cb_stikken.png,,stikken,,,,,,,,,,,-0.187777778,-0.225555556,1,0,0,stikken,0,17,17,54,1
,,,,,00104,2023-11-22_17h08.59.323,vbt_B2_day3,2022.2.4,MacIntel,24.3902439,,,,,,,,,,,,,,,,,,,,afbopen,images/br_afbopen.png,images/cb_afbopen.png,,afbo..n,,,,,,,,,,,-0.187777778,-0.225555556,1,0,0,afbo..n,0,18,18,34,1
,,,,,00104,2023-11-22_17h08.59.323,vbt_B2_day3,2022.2.4,MacIntel,24.3902439,,,,,,,,,,,,,,,,,,,,geluid,images/br_geluid.png,images/cb_geluid.png,,geluid,,,,,,,,,,,-0.187777778,-0.225555556,1,0,0,geluid,0,19,19,10,1
,,,,,00104,2023-11-22_17h08.59.323,vbt_B2_day3,2022.2.4,MacIntel,24.3902439,,,,,,,,,,,,,,,,,,,,verraden,images/br_verraden.png,images/cb_verraden.png,,viaal..,,,,,,,,,,,-0.187777778,-0.225555556,1,0,0,viaal..,0,20,20,58,1
,,,,,00104,2023-11-22_17h08.59.323,vbt_B2_day3,2022.2.4,MacIntel,24.3902439,,,,,,,,,,,,,,,,,,,,onrecht,images/br_onrecht.png,images/cb_onrecht.png,,onrecht,,,,,,,,,,,-0.187777778,-0.225555556,1,0,0,onrecht,0,21,21,55,1
,,,,,00104,2023-11-22_17h08.59.323,vbt_B2_day3,2022.2.4,MacIntel,24.3902439,,,,,,,,,,,,,,,,,,,,beslag,images/br_beslag.png,images/cb_beslag.png,,beslag,,,,,,,,,,,-0.187777778,-0.225555556,1,0,0,beslag,0,22,22,51,1
,,,,,00104,2023-11-22_17h08.59.323,vbt_B2_day3,2022.2.4,MacIntel,24.3902439,,,,,,,,,,,,,,,,,,,,gezond,images/br_gezond.png,images/cb_gezond.png,,gevo...,,,,,,,,,,,-0.187777778,-0.225555556,1,0,0,gevo...,0,23,23,11,1
,,,,,00104,2023-11-22_17h08.59.323,vbt_B2_day3,2022.2.4,MacIntel,24.3902439,,,,,,,,,,,,,,,,,,,,hier,images/br_hier.png,images/cb_hier.png,,hier,,,,,,,,,,,-0.187777778,-0.225555556,1,0,0,hier,0,24,24,1,1
,,,,,00104,2023-11-22_17h08.59.323,vbt_B2_day3,2022.2.4,MacIntel,24.3902439,,,,,,,,,,,,,,,,,,,,zone,images/br_zone.png,images/cb_zone.png,,zone,,,,,,,,,,,-0.187777778,-0.225555556,1,0,0,zone,0,25,25,41,1
,,,,,00104,2023-11-22_17h08.59.323,vbt_B2_day3,2022.2.4,MacIntel,24.3902439,,,,,,,,,,,,,,,,,,,,mode,images/br_mode.png,images/cb_mode.png,,mode,,,,,,,,,,,-0.187777778,-0.225555556,1,0,0,mode,0,26,26,3,1
,,,,,00104,2023-11-22_17h08.59.323,vbt_B2_day3,2022.2.4,MacIntel,24.3902439,,,,,,,,,,,,,,,,,,,,booien,images/br_booien.png,images/cb_booien.png,,boeien,,,,,,,,,,,-0.187777778,-0.225555556,1,0,0,boeien,0,27,27,31,1
,,,,,00104,2023-11-22_17h08.59.323,vbt_B2_day3,2022.2.4,MacIntel,24.3902439,,,,,,,,,,,,,,,,,,,,jongelui,images/br_jongelui.png,images/cb_jongelui.png,,jonge...,,,,,,,,,,,-0.187777778,-0.225555556,1,0,0,jonge...,0,28,28,59,1
,,,,,00104,2023-11-22_17h08.59.323,vbt_B2_day3,2022.2.4,MacIntel,24.3902439,,,,,,,,,,,,,,,,,,,,leugeren,images/br_leugeren.png,images/cb_leugeren.png,,leug..,,,,,,,,,,,-0.187777778,-0.225555556,1,0,0,leug..,0,29,29,37,1
,,,,,00104,2023-11-22_17h08.59.323,vbt_B2_day3,2022.2.4,MacIntel,24.3902439,,,,,,,,,,,,,,,,,,,,hust,images/br_hust.png,images/cb_hust.png,,hust,,,,,,,,,,,-0.187777778,-0.225555556,1,0,0,hust,0,30,30,23,1
,,,,,00104,2023-11-22_17h08.59.323,vbt_B2_day3,2022.2.4,MacIntel,24.3902439,,,,,,,,,,,,,,,,,,,,begrip,images/br_begrip.png,images/cb_begrip.png,,ber...,,,,,,,,,,,-0.187777778,-0.225555556,1,0,0,ber...,0,31,31,48,1
,,,,,00104,2023-11-22_17h08.59.323,vbt_B2_day3,2022.2.4,MacIntel,24.3902439,,,,,,,,,,,,,,,,,,,,brappen,images/br_brappen.png,images/cb_brappen.png,,brapp..,,,,,,,,,,,-0.187777778,-0.225555556,1,0,0,brapp..,0,32,32,35,1
,,,,,00104,2023-11-22_17h08.59.323,vbt_B2_day3,2022.2.4,MacIntel,24.3902439,,,,,,,,,,,,,,,,,,,,boeien,images/br_boeien.png,images/cb_boeien.png,,boeien,,,,,,,,,,,-0.187777778,-0.225555556,1,0,0,boeien,0,33,33,8,1
,,,,,00104,2023-11-22_17h08.59.323,vbt_B2_day3,2022.2.4,MacIntel,24.3902439,,,,,,,,,,,,,,,,,,,,steel,images/br_steel.png,images/cb_steel.png,,steel,,,,,,,,,,,-0.187777778,-0.225555556,1,0,0,steel,0,34,34,4,1
,,,,,00104,2023-11-22_17h08.59.323,vbt_B2_day3,2022.2.4,MacIntel,24.3902439,,,,,,,,,,,,,,,,,,,,kaas,images/br_kaas.png,images/cb_kaas.png,,kaas,,,,,,,,,,,-0.187777778,-0.225555556,1,0,0,kaas,0,35,35,42,1
,,,,,00104,2023-11-22_17h08.59.323,vbt_B2_day3,2022.2.4,MacIntel,24.3902439,,,,,,,,,,,,,,,,,,,,theeting,images/br_theeting.png,images/cb_theeting.png,,thee....,,,,,,,,,,,-0.187777778,-0.225555556,1,0,0,thee....,0,36,36,38,1
,,,,,00104,2023-11-22_17h08.59.323,vbt_B2_day3,2022.2.4,MacIntel,24.3902439,,,,,,,,,,,,,,,,,,,,verhaal,images/br_verhaal.png,images/cb_verhaal.png,,verhaal,,,,,,,,,,,-0.187777778,-0.225555556,1,0,0,verhaal,0,37,37,13,1
,,,,,00104,2023-11-22_17h08.59.323,vbt_B2_day3,2022.2.4,MacIntel,24.3902439,,,,,,,,,,,,,,,,,,,,bisschop,images/br_bisschop.png,images/cb_bisschop.png,,bisschop,,,,,,,,,,,-0.187777778,-0.225555556,1,0,0,bisschop,0,38,38,16,1
,,,,,00104,2023-11-22_17h08.59.323,vbt_B2_day3,2022.2.4,MacIntel,24.3902439,,,,,,,,,,,,,,,,,,,,stoom,images/br_stoom.png,images/cb_stoom.png,,stoom,,,,,,,,,,,-0.187777778,-0.225555556,1,0,0,stoom,0,39,39,6,1
,,,,,00104,2023-11-22_17h08.59.323,vbt_B2_day3,2022.2.4,MacIntel,24.3902439,,,,,,,,,,,,,,,,,,,,twaaf,images/br_twaaf.png,images/cb_twaaf.png,,tw...,,,,,,,,,,,-0.187777778,-0.225555556,1,0,0,tw...,0,40,40,24,1
,,,,,00104,2023-11-22_17h08.59.323,vbt_B2_day3,2022.2.4,MacIntel,24.3902439,,,,,,,,,,,,,,,,,,,,gebod,images/br_gebod.png,images/cb_gebod.png,,gebod,,,,,,,,,,,-0.187777778,-0.225555556,1,0,0,gebod,0,41,41,45,1
,,,,,00104,2023-11-22_17h08.59.323,vbt_B2_day3,2022.2.4,MacIntel,24.3902439,,,,,,,,,,,,,,,,,,,,sluier,images/br_sluier.png,images/cb_sluier.png,,sluier,,,,,,,,,,,-0.187777778,-0.225555556,1,0,0,sluier,0,42,42,50,1
,,,,,00104,2023-11-22_17h08.59.323,vbt_B2_day3,2022.2.4,MacIntel,24.3902439,,,,,,,,,,,,,,,,,,,,glijden,images/br_glijden.png,images/cb_glijden.png,,glejd..,,,,,,,,,,,-0.187777778,-0.225555556,1,0,0,glejd..,0,43,43,53,1
,,,,,00104,2023-11-22_17h08.59.323,vbt_B2_day3,2022.2.4,MacIntel,24.3902439,,,,,,,,,,,,,,,,,,,,kest,images/br_kest.png,images/cb_kest.png,,kest,,,,,,,,,,,-0.187777778,-0.225555556,1,0,0,kest,0,44,44,21,1
,,,,,00104,2023-11-22_17h08.59.323,vbt_B2_day3,2022.2.4,MacIntel,24.3902439,,,,,,,,,,,,,,,,,,,,verwoor,images/br_verwoor.png,images/cb_verwoor.png,,verhaal,,,,,,,,,,,-0.187777778,-0.225555556,1,0,0,verhaal,0,45,45,32,1
,,,,,00104,2023-11-22_17h08.59.323,vbt_B2_day3,2022.2.4,MacIntel,24.3902439,,,,,,,,,,,,,,,,,,,,leemaken,images/br_leemaken.png,images/cb_leemaken.png,,leefa..,,,,,,,,,,,-0.187777778,-0.225555556,1,0,0,leefa..,0,46,46,39,1
,,,,,00104,2023-11-22_17h08.59.323,vbt_B2_day3,2022.2.4,MacIntel,24.3902439,,,,,,,,,,,,,,,,,,,,makieren,images/br_makieren.png,images/cb_makieren.png,,zakie.e.,,,,,,,,,,,-0.187777778,-0.234444444,1,0,0,zakie.e.,0,47,47,36,1
,,,,,00104,2023-11-22_17h08.59.323,vbt_B2_day3,2022.2.4,MacIntel,24.3902439,,,,,,,,,,,,,,,,,,,,laken,images/br_laken.png,images/cb_laken.png,,laken,,,,,,,,,,,-0.187777778,-0.234444444,1,0,0,laken,0,48,48,5,1
,,,,,00104,2023-11-22_17h08.59.323,vbt_B2_day3,2022.2.4,MacIntel,24.3902439,,,,,,,,,,,,,,,,,,,,opzicht,images/br_opzicht.png,images/cb_opzicht.png,,opzicht,,,,,,,,,,,-0.187777778,-0.234444444,1,0,0,opzicht,0,49,49,15,1
,,,,,00104,2023-11-22_17h08.59.323,vbt_B2_day3,2022.2.4,MacIntel,24.3902439,,,,,,,,,,,,,,,,,,,,prikken,images/br_prikken.png,images/cb_prikken.png,,prikken,,,,,,,,,,,-0.187777778,-0.234444444,1,0,0,prikken,0,50,50,12,1
,,,,,00104,2023-11-22_17h08.59.323,vbt_B2_day3,2022.2.4,MacIntel,24.3902439,,,,,,,,,,,,,,,,,,,,schatten,images/br_schatten.png,images/cb_schatten.png,,schatten,,,,,,,,,,,-0.187777778,-0.234444444,1,0,0,schatten,0,51,51,18,1
,,,,,00104,2023-11-22_17h08.59.323,vbt_B2_day3,2022.2.4,MacIntel,24.3902439,,,,,,,,,,,,,,,,,,,,gout,images/br_gout.png,images/cb_gout.png,,go.t,,,,,,,,,,,-0.187777778,-0.234444444,1,0,0,go.t,0,52,52,20,1
,,,,,00104,2023-11-22_17h08.59.323,vbt_B2_day3,2022.2.4,MacIntel,24.3902439,,,,,,,,,,,,,,,,,,,,croo,images/br_croo.png,images/cb_croo.png,,croo,,,,,,,,,,,-0.187777778,-0.234444444,1,0,0,croo,0,53,53,22,1
,,,,,00104,2023-11-22_17h08.59.323,vbt_B2_day3,2022.2.4,MacIntel,24.3902439,,,,,,,,,,,,,,,,,,,,sultan,images/br_sultan.png,images/cb_sultan.png,,sulta.,,,,,,,,,,,-0.187777778,-0.234444444,1,0,0,sulta.,0,54,54,49,1
,,,,,00104,2023-11-22_17h08.59.323,vbt_B2_day3,2022.2.4,MacIntel,24.3902439,,,,,,,,,,,,,,,,,,,,samen,images/br_samen.png,images/cb_samen.png,,sa.i.,,,,,,,,,,,-0.187777778,-0.234444444,1,0,0,sa.i.,0,55,55,7,1
,,,,,00104,2023-11-22_17h08.59.323,vbt_B2_day3,2022.2.4,MacIntel,24.3902439,,,,,,,,,,,,,,,,,,,,opzetten,images/br_opzetten.png,images/cb_opzetten.png,,opz.tt..,,,,,,,,,,,-0.187777778,-0.234444444,1,0,0,opz.tt..,0,56,56,56,1
,,,,,00104,2023-11-22_17h08.59.323,vbt_B2_day3,2022.2.4,MacIntel,24.3902439,,,,,,,,,,,,,,,,,,,,leek,images/br_leek.png,images/cb_leek.png,,leek,,,,,,,,,,,-0.187777778,-0.234444444,1,0,0,leek,0,57,57,2,1
,,,,,00104,2023-11-22_17h08.59.323,vbt_B2_day3,2022.2.4,MacIntel,24.3902439,,,,,,,,,,,,,,,,,,,,hint,images/br_hint.png,images/cb_hint.png,,hind,,,,,,,,,,,-0.187777778,-0.234444444,1,0,0,hind,0,58,58,43,1
,,,,,00104,2023-11-22_17h08.59.323,vbt_B2_day3,2022.2.4,MacIntel,24.3902439,,,,,,,,,,,,,,,,,,,,mugeek,images/br_mugeek.png,images/cb_mugeek.png,,..gee.,,,,,,,,,,,-0.187777778,-0.234444444,1,0,0,..gee.,0,59,59,29,1
,,,,,00104,2023-11-22_17h08.59.323,vbt_B2_day3,2022.2.4,MacIntel,24.3902439,,,,,,,,,,,,,,,,,,,,,,,,,,,,,,,,,,,,,,,,,,,,,
