welcome_mouse.x,welcome_mouse.y,welcome_mouse.leftButton,welcome_mouse.midButton,welcome_mouse.rightButton,"ID",date,expName,psychopyVersion,OS,frameRate,trainInstr_mouse.x,trainInstr_mouse.y,trainInstr_mouse.leftButton,trainInstr_mouse.midButton,trainInstr_mouse.rightButton,translation_key.keys,translation_key.corr,translation_key.rt,word_rsp.text,trWrd_mouse.x,trWrd_mouse.y,trWrd_mouse.leftButton,trWrd_mouse.midButton,trWrd_mouse.rightButton,train_loop.thisRepN,train_loop.thisTrialN,train_loop.thisN,train_loop.thisIndex,train_loop.ran,nlWrd,brWrd,cbWrd,test,testResp,mouse.x,mouse.y,mouse.leftButton,mouse.midButton,mouse.rightButton,testInstr_mouse.x,testInstr_mouse.y,testInstr_mouse.leftButton,testInstr_mouse.midButton,testInstr_mouse.rightButton,test_mouse.x,test_mouse.y,test_mouse.leftButton,test_mouse.midButton,test_mouse.rightButton,test_response.text,test_loop.thisRepN,test_loop.thisTrialN,test_loop.thisN,test_loop.thisIndex,test_loop.ran
0.051851908,-0.087962977,1,0,0,00004,2023-08-02_15h04.41.517,vbt_B2_day3,2022.2.4,Win32,60.13952369,,,,,,,,,,,,,,,,,,,,,,,,,,,,,,,,,,,,,,,,,,,,,
,,,,,00004,2023-08-02_15h04.41.517,vbt_B2_day3,2022.2.4,Win32,60.13952369,0.083333333,-0.335185242,1,0,0,,,,,,,,,,,,,,,,,,,,,,,,,,,,,,,,,,,,,,,,
,,,,,00004,2023-08-02_15h04.41.517,vbt_B2_day3,2022.2.4,Win32,60.13952369,,,,,,down,0,6.2171,,0.153703732,-0.145370399,1,0,0,0,0,0,127,1,doodmoe,images/br_doodmoe.png,images/cb_doodmoe.png,0,,,,,,,,,,,,,,,,,,,,,,
,,,,,00004,2023-08-02_15h04.41.517,vbt_B2_day3,2022.2.4,Win32,60.13952369,,,,,,down,0,7.4833,,0.120370399,-0.102777778,1,0,0,0,1,1,156,1,rechten,images/br_rechten.png,images/cb_rechten.png,0,,,,,,,,,,,,,,,,,,,,,,
,,,,,00004,2023-08-02_15h04.41.517,vbt_B2_day3,2022.2.4,Win32,60.13952369,,,,,,down,0,11.8327,,0.147222222,-0.151851866,1,0,0,0,2,2,74,1,graaf,images/br_graaf.png,images/cb_graaf.png,0,,,,,,,,,,,,,,,,,,,,,,
,,,,,00004,2023-08-02_15h04.41.517,vbt_B2_day3,2022.2.4,Win32,60.13952369,,,,,,down,0,3.1615,,0.227777778,-0.054629644,1,0,0,0,3,3,92,1,geheim,images/br_geheim.png,images/cb_geheim.png,0,,,,,,,,,,,,,,,,,,,,,,
,,,,,00004,2023-08-02_15h04.41.517,vbt_B2_day3,2022.2.4,Win32,60.13952369,,,,,,down,0,2.321,,0.101851908,-0.051851866,1,0,0,0,4,4,114,1,vullen,images/br_vullen.png,images/cb_vullen.png,0,,,,,,,,,,,,,,,,,,,,,,
,,,,,00004,2023-08-02_15h04.41.517,vbt_B2_day3,2022.2.4,Win32,60.13952369,,,,,,down,0,2.3729,,0.289814843,0.056481467,1,0,0,0,5,5,146,1,opkomen,images/br_opkomen.png,images/cb_opkomen.png,0,,,,,,,,,,,,,,,,,,,,,,
,,,,,00004,2023-08-02_15h04.41.517,vbt_B2_day3,2022.2.4,Win32,60.13952369,,,,,,down,0,2.9857,,0.316666667,-0.095370399,1,0,0,0,6,6,190,1,goedkoop,images/br_goedkoop.png,images/cb_goedkoop.png,0,,,,,,,,,,,,,,,,,,,,,,
,,,,,00004,2023-08-02_15h04.41.517,vbt_B2_day3,2022.2.4,Win32,60.13952369,,,,,,down,0,12.3502,,0.525,0.124074046,1,0,0,0,7,7,185,1,mijnheer,images/br_mijnheer.png,images/cb_mijnheer.png,0,,,,,,,,,,,,,,,,,,,,,,
,,,,,00004,2023-08-02_15h04.41.517,vbt_B2_day3,2022.2.4,Win32,60.13952369,,,,,,down,0,5.6599,,0.422222222,0.211111111,1,0,0,0,8,8,70,1,ijdel,images/br_ijdel.png,images/cb_ijdel.png,0,,,,,,,,,,,,,,,,,,,,,,
,,,,,00004,2023-08-02_15h04.41.517,vbt_B2_day3,2022.2.4,Win32,60.13952369,,,,,,down,0,2.2041,,0.422222222,0.211111111,1,0,0,0,9,9,126,1,kasteel,images/br_kasteel.png,images/cb_kasteel.png,0,,,,,,,,,,,,,,,,,,,,,,
,,,,,00004,2023-08-02_15h04.41.517,vbt_B2_day3,2022.2.4,Win32,60.13952369,,,,,,down,0,6.5567,,0.422222222,0.211111111,1,0,0,0,10,10,165,1,feestdag,images/br_feestdag.png,images/cb_feestdag.png,0,,,,,,,,,,,,,,,,,,,,,,
,,,,,00004,2023-08-02_15h04.41.517,vbt_B2_day3,2022.2.4,Win32,60.13952369,,,,,,down,0,10.767,,0.422222222,0.211111111,1,0,0,0,11,11,85,1,heilig,images/br_heilig.png,images/cb_heilig.png,0,,,,,,,,,,,,,,,,,,,,,,
,,,,,00004,2023-08-02_15h04.41.517,vbt_B2_day3,2022.2.4,Win32,60.13952369,,,,,,down,0,1.818,,0.422222222,0.211111111,1,0,0,0,12,12,167,1,eenhoorn,images/br_eenhoorn.png,images/cb_eenhoorn.png,0,,,,,,,,,,,,,,,,,,,,,,
,,,,,00004,2023-08-02_15h04.41.517,vbt_B2_day3,2022.2.4,Win32,60.13952369,,,,,,down,0,1.0047,,0.422222222,0.211111111,1,0,0,0,13,13,56,1,traag,images/br_traag.png,images/cb_traag.png,0,,,,,,,,,,,,,,,,,,,,,,
,,,,,00004,2023-08-02_15h04.41.517,vbt_B2_day3,2022.2.4,Win32,60.13952369,,,,,,down,0,2.3939,,0.422222222,0.211111111,1,0,0,0,14,14,98,1,kreeft,images/br_kreeft.png,images/cb_kreeft.png,0,,,,,,,,,,,,,,,,,,,,,,
,,,,,00004,2023-08-02_15h04.41.517,vbt_B2_day3,2022.2.4,Win32,60.13952369,,,,,,down,0,2.576,,0.422222222,0.211111111,1,0,0,0,15,15,13,1,kaal,images/br_kaal.png,images/cb_kaal.png,0,,,,,,,,,,,,,,,,,,,,,,
,,,,,00004,2023-08-02_15h04.41.517,vbt_B2_day3,2022.2.4,Win32,60.13952369,,,,,,down,0,6.5376,,0.417592621,0.129629601,1,0,0,0,16,16,142,1,snuiven,images/br_snuiven.png,images/cb_snuiven.png,1,snuiven,,,,,,,,,,,,,,,,,,,,,
,,,,,00004,2023-08-02_15h04.41.517,vbt_B2_day3,2022.2.4,Win32,60.13952369,,,,,,down,0,2.2882,,0.416666667,0.12870369,1,0,0,0,17,17,78,1,leren,images/br_leren.png,images/cb_leren.png,0,,,,,,,,,,,,,,,,,,,,,,
,,,,,00004,2023-08-02_15h04.41.517,vbt_B2_day3,2022.2.4,Win32,60.13952369,,,,,,down,0,1.117,,0.416666667,0.12870369,1,0,0,0,18,18,38,1,baai,images/br_baai.png,images/cb_baai.png,0,,,,,,,,,,,,,,,,,,,,,,
,,,,,00004,2023-08-02_15h04.41.517,vbt_B2_day3,2022.2.4,Win32,60.13952369,,,,,,down,0,0.3876,,0.416666667,0.12870369,1,0,0,0,19,19,26,1,leuk,images/br_leuk.png,images/cb_leuk.png,0,,,,,,,,,,,,,,,,,,,,,,
,,,,,00004,2023-08-02_15h04.41.517,vbt_B2_day3,2022.2.4,Win32,60.13952369,,,,,,down,0,14.7508,,0.728703817,0.293518511,1,0,0,0,20,20,182,1,bijkomen,images/br_bijkomen.png,images/cb_bijkomen.png,1,bijkomen,,,,,,,,,,,,,,,,,,,,,
,,,,,00004,2023-08-02_15h04.41.517,vbt_B2_day3,2022.2.4,Win32,60.13952369,,,,,,down,0,3.6839,,0.191666667,-0.045370399,1,0,0,0,21,21,174,1,stemming,images/br_stemming.png,images/cb_stemming.png,0,,,,,,,,,,,,,,,,,,,,,,
,,,,,00004,2023-08-02_15h04.41.517,vbt_B2_day3,2022.2.4,Win32,60.13952369,,,,,,down,0,1.3601,,0.191666667,-0.045370399,1,0,0,0,22,22,40,1,schep,images/br_schep.png,images/cb_schep.png,0,,,,,,,,,,,,,,,,,,,,,,
,,,,,00004,2023-08-02_15h04.41.517,vbt_B2_day3,2022.2.4,Win32,60.13952369,,,,,,down,0,2.7405,,0.191666667,-0.045370399,1,0,0,0,23,23,58,1,tekst,images/br_tekst.png,images/cb_tekst.png,0,,,,,,,,,,,,,,,,,,,,,,
,,,,,00004,2023-08-02_15h04.41.517,vbt_B2_day3,2022.2.4,Win32,60.13952369,,,,,,down,0,4.9869,,0.191666667,-0.045370399,1,0,0,0,24,24,63,1,flirt,images/br_flirt.png,images/cb_flirt.png,1,flirt,,,,,,,,,,,,,,,,,,,,,
,,,,,00004,2023-08-02_15h04.41.517,vbt_B2_day3,2022.2.4,Win32,60.13952369,,,,,,down,0,13.5574,,0.282407464,0.188888889,1,0,0,0,25,25,123,1,hiervan,images/br_hiervan.png,images/cb_hiervan.png,0,,,,,,,,,,,,,,,,,,,,,,
,,,,,00004,2023-08-02_15h04.41.517,vbt_B2_day3,2022.2.4,Win32,60.13952369,,,,,,down,0,2.6352,,0.157407464,-0.028703732,1,0,0,0,26,26,122,1,waarvan,images/br_waarvan.png,images/cb_waarvan.png,0,,,,,,,,,,,,,,,,,,,,,,
,,,,,00004,2023-08-02_15h04.41.517,vbt_B2_day3,2022.2.4,Win32,60.13952369,,,,,,down,0,6.1259,,0.123148176,-0.04629631,1,0,0,0,27,27,83,1,mening,images/br_mening.png,images/cb_mening.png,0,,,,,,,,,,,,,,,,,,,,,,
,,,,,00004,2023-08-02_15h04.41.517,vbt_B2_day3,2022.2.4,Win32,60.13952369,,,,,,down,0,2.0202,,0.123148176,-0.04629631,1,0,0,0,28,28,34,1,vorm,images/br_vorm.png,images/cb_vorm.png,0,,,,,,,,,,,,,,,,,,,,,,
,,,,,00004,2023-08-02_15h04.41.517,vbt_B2_day3,2022.2.4,Win32,60.13952369,,,,,,down,0,0.801,,0.074074131,-0.080555556,1,0,0,0,29,29,10,1,leek,images/br_leek.png,images/cb_leek.png,0,,,,,,,,,,,,,,,,,,,,,,
,,,,,00004,2023-08-02_15h04.41.517,vbt_B2_day3,2022.2.4,Win32,60.13952369,,,,,,down,0,0.8421,,0.074074131,-0.080555556,1,0,0,0,30,30,77,1,woede,images/br_woede.png,images/cb_woede.png,0,,,,,,,,,,,,,,,,,,,,,,
,,,,,00004,2023-08-02_15h04.41.517,vbt_B2_day3,2022.2.4,Win32,60.13952369,,,,,,down,0,1.8162,,0.066666667,-0.062037065,1,0,0,0,31,31,19,1,geit,images/br_geit.png,images/cb_geit.png,0,,,,,,,,,,,,,,,,,,,,,,
,,,,,00004,2023-08-02_15h04.41.517,vbt_B2_day3,2022.2.4,Win32,60.13952369,,,,,,down,0,3.1812,,0.066666667,-0.062037065,1,0,0,0,32,32,103,1,joggen,images/br_joggen.png,images/cb_joggen.png,1,joggen,,,,,,,,,,,,,,,,,,,,,
,,,,,00004,2023-08-02_15h04.41.517,vbt_B2_day3,2022.2.4,Win32,60.13952369,,,,,,down,0,5.9373,,0.248148176,-0.017592621,1,0,0,0,33,33,145,1,invloed,images/br_invloed.png,images/cb_invloed.png,0,,,,,,,,,,,,,,,,,,,,,,
,,,,,00004,2023-08-02_15h04.41.517,vbt_B2_day3,2022.2.4,Win32,60.13952369,,,,,,down,0,1.8859,,0.199074131,0.012037023,1,0,0,0,34,34,139,1,stiekem,images/br_stiekem.png,images/cb_stiekem.png,0,,,,,,,,,,,,,,,,,,,,,,
,,,,,00004,2023-08-02_15h04.41.517,vbt_B2_day3,2022.2.4,Win32,60.13952369,,,,,,down,0,10.0648,,0.267592621,0.015740712,1,0,0,0,35,35,160,1,daarheen,images/br_daarheen.png,images/cb_daarheen.png,0,,,,,,,,,,,,,,,,,,,,,,
,,,,,00004,2023-08-02_15h04.41.517,vbt_B2_day3,2022.2.4,Win32,60.13952369,,,,,,down,0,1.2427,,0.267592621,0.015740712,1,0,0,0,36,36,64,1,wegen,images/br_wegen.png,images/cb_wegen.png,0,,,,,,,,,,,,,,,,,,,,,,
,,,,,00004,2023-08-02_15h04.41.517,vbt_B2_day3,2022.2.4,Win32,60.13952369,,,,,,down,0,5.9006,,0.559259372,0.291666667,1,0,0,0,37,37,135,1,gedicht,images/br_gedicht.png,images/cb_gedicht.png,0,,,,,,,,,,,,,,,,,,,,,,
,,,,,00004,2023-08-02_15h04.41.517,vbt_B2_day3,2022.2.4,Win32,60.13952369,,,,,,down,0,3.3002,,0.117592621,-0.033333333,1,0,0,0,38,38,128,1,prikken,images/br_prikken.png,images/cb_prikken.png,0,,,,,,,,,,,,,,,,,,,,,,
,,,,,00004,2023-08-02_15h04.41.517,vbt_B2_day3,2022.2.4,Win32,60.13952369,,,,,,down,0,0.5583,,0.037963019,-0.054629644,1,0,0,0,39,39,25,1,plek,images/br_plek.png,images/cb_plek.png,0,,,,,,,,,,,,,,,,,,,,,,
,,,,,00004,2023-08-02_15h04.41.517,vbt_B2_day3,2022.2.4,Win32,60.13952369,,,,,,down,0,3.2375,,0.344444444,0.214814801,1,0,0,0,40,40,173,1,apparaat,images/br_apparaat.png,images/cb_apparaat.png,0,,,,,,,,,,,,,,,,,,,,,,
,,,,,00004,2023-08-02_15h04.41.517,vbt_B2_day3,2022.2.4,Win32,60.13952369,,,,,,down,0,0.935,,0.120370399,-0.013888889,1,0,0,0,41,41,112,1,lukken,images/br_lukken.png,images/cb_lukken.png,0,,,,,,,,,,,,,,,,,,,,,,
,,,,,00004,2023-08-02_15h04.41.517,vbt_B2_day3,2022.2.4,Win32,60.13952369,,,,,,down,0,3.1352,,0.087037065,-0.039814843,1,0,0,0,42,42,170,1,schatten,images/br_schatten.png,images/cb_schatten.png,0,,,,,,,,,,,,,,,,,,,,,,
,,,,,00004,2023-08-02_15h04.41.517,vbt_B2_day3,2022.2.4,Win32,60.13952369,,,,,,down,0,4.6832,,0.318518575,0.024074046,1,0,0,0,43,43,133,1,seizoen,images/br_seizoen.png,images/cb_seizoen.png,0,,,,,,,,,,,,,,,,,,,,,,
,,,,,00004,2023-08-02_15h04.41.517,vbt_B2_day3,2022.2.4,Win32,60.13952369,,,,,,down,0,6.4834,,0.075,0.001851824,1,0,0,0,44,44,27,1,dans,images/br_dans.png,images/cb_dans.png,0,,,,,,,,,,,,,,,,,,,,,,
,,,,,00004,2023-08-02_15h04.41.517,vbt_B2_day3,2022.2.4,Win32,60.13952369,,,,,,down,0,2.3846,,0.145370399,-0.005555556,1,0,0,0,45,45,99,1,koffie,images/br_koffie.png,images/cb_koffie.png,0,,,,,,,,,,,,,,,,,,,,,,
,,,,,00004,2023-08-02_15h04.41.517,vbt_B2_day3,2022.2.4,Win32,60.13952369,,,,,,down,0,5.4572,,0.829629686,0.221296289,1,0,0,0,46,46,154,1,aflopen,images/br_aflopen.png,images/cb_aflopen.png,0,,,,,,,,,,,,,,,,,,,,,,
,,,,,00004,2023-08-02_15h04.41.517,vbt_B2_day3,2022.2.4,Win32,60.13952369,,,,,,down,0,7.4676,,0.20648151,-0.033333333,1,0,0,0,47,47,159,1,sufferd,images/br_sufferd.png,images/cb_sufferd.png,0,,,,,,,,,,,,,,,,,,,,,,
,,,,,00004,2023-08-02_15h04.41.517,vbt_B2_day3,2022.2.4,Win32,60.13952369,,,,,,down,0,2.4012,,0.248148176,-0.028703732,1,0,0,0,48,48,90,1,geluid,images/br_geluid.png,images/cb_geluid.png,0,,,,,,,,,,,,,,,,,,,,,,
,,,,,00004,2023-08-02_15h04.41.517,vbt_B2_day3,2022.2.4,Win32,60.13952369,,,,,,down,0,3.351,,0.123148176,-0.019444444,1,0,0,0,49,49,80,1,kanjer,images/br_kanjer.png,images/cb_kanjer.png,0,,,,,,,,,,,,,,,,,,,,,,
,,,,,00004,2023-08-02_15h04.41.517,vbt_B2_day3,2022.2.4,Win32,60.13952369,,,,,,down,0,11.9923,,0.211111111,0.073148134,1,0,0,0,50,50,95,1,vreten,images/br_vreten.png,images/cb_vreten.png,0,,,,,,,,,,,,,,,,,,,,,,
,,,,,00004,2023-08-02_15h04.41.517,vbt_B2_day3,2022.2.4,Win32,60.13952369,,,,,,down,0,1.22,,0.107407464,-0.013888889,1,0,0,0,51,51,68,1,schat,images/br_schat.png,images/cb_schat.png,0,,,,,,,,,,,,,,,,,,,,,,
,,,,,00004,2023-08-02_15h04.41.517,vbt_B2_day3,2022.2.4,Win32,60.13952369,,,,,,down,0,5.6363,,0.237963019,-0.029629644,1,0,0,0,52,52,153,1,vervoer,images/br_vervoer.png,images/cb_vervoer.png,0,,,,,,,,,,,,,,,,,,,,,,
,,,,,00004,2023-08-02_15h04.41.517,vbt_B2_day3,2022.2.4,Win32,60.13952369,,,,,,down,0,2.7025,,0.195370399,-0.037037065,1,0,0,0,53,53,108,1,excuus,images/br_excuus.png,images/cb_excuus.png,0,,,,,,,,,,,,,,,,,,,,,,
,,,,,00004,2023-08-02_15h04.41.517,vbt_B2_day3,2022.2.4,Win32,60.13952369,,,,,,down,0,2.8558,,0.092592621,-0.023148176,1,0,0,0,54,54,35,1,lust,images/br_lust.png,images/cb_lust.png,0,,,,,,,,,,,,,,,,,,,,,,
,,,,,00004,2023-08-02_15h04.41.517,vbt_B2_day3,2022.2.4,Win32,60.13952369,,,,,,down,0,2.8592,,0.224074131,-0.029629644,1,0,0,0,55,55,131,1,opzicht,images/br_opzicht.png,images/cb_opzicht.png,0,,,,,,,,,,,,,,,,,,,,,,
,,,,,00004,2023-08-02_15h04.41.517,vbt_B2_day3,2022.2.4,Win32,60.13952369,,,,,,down,0,0.6198,,0.152777778,-0.037037065,1,0,0,0,56,56,42,1,bleek,images/br_bleek.png,images/cb_bleek.png,0,,,,,,,,,,,,,,,,,,,,,,
,,,,,00004,2023-08-02_15h04.41.517,vbt_B2_day3,2022.2.4,Win32,60.13952369,,,,,,down,0,2.6014,,0.275,0.046296268,1,0,0,0,57,57,157,1,uitlaat,images/br_uitlaat.png,images/cb_uitlaat.png,0,,,,,,,,,,,,,,,,,,,,,,
,,,,,00004,2023-08-02_15h04.41.517,vbt_B2_day3,2022.2.4,Win32,60.13952369,,,,,,down,0,2.1896,,0.148148176,-0.057407422,1,0,0,0,58,58,113,1,koppen,images/br_koppen.png,images/cb_koppen.png,0,,,,,,,,,,,,,,,,,,,,,,
,,,,,00004,2023-08-02_15h04.41.517,vbt_B2_day3,2022.2.4,Win32,60.13952369,,,,,,down,0,2.5477,,0.110185242,-0.028703732,1,0,0,0,59,59,9,1,hier,images/br_hier.png,images/cb_hier.png,0,,,,,,,,,,,,,,,,,,,,,,
,,,,,00004,2023-08-02_15h04.41.517,vbt_B2_day3,2022.2.4,Win32,60.13952369,,,,,,down,0,1.1268,,0.244444444,0.044444444,1,0,0,0,60,60,45,1,piste,images/br_piste.png,images/cb_piste.png,0,,,,,,,,,,,,,,,,,,,,,,
,,,,,00004,2023-08-02_15h04.41.517,vbt_B2_day3,2022.2.4,Win32,60.13952369,,,,,,down,0,12.0734,,0.172222222,-0.083333333,1,0,0,0,61,61,181,1,toegeven,images/br_toegeven.png,images/cb_toegeven.png,1,toegeven,,,,,,,,,,,,,,,,,,,,,
,,,,,00004,2023-08-02_15h04.41.517,vbt_B2_day3,2022.2.4,Win32,60.13952369,,,,,,down,0,1.5181,,0.049074131,-0.104629644,1,0,0,0,62,62,22,1,stof,images/br_stof.png,images/cb_stof.png,1,staf,,,,,,,,,,,,,,,,,,,,,
,,,,,00004,2023-08-02_15h04.41.517,vbt_B2_day3,2022.2.4,Win32,60.13952369,,,,,,down,0,10.3362,,0.049074131,-0.104629644,1,0,0,0,63,63,121,1,twijfel,images/br_twijfel.png,images/cb_twijfel.png,0,,,,,,,,,,,,,,,,,,,,,,
,,,,,00004,2023-08-02_15h04.41.517,vbt_B2_day3,2022.2.4,Win32,60.13952369,,,,,,down,0,2.5894,,0.049074131,-0.104629644,1,0,0,0,64,64,89,1,slapen,images/br_slapen.png,images/cb_slapen.png,0,,,,,,,,,,,,,,,,,,,,,,
,,,,,00004,2023-08-02_15h04.41.517,vbt_B2_day3,2022.2.4,Win32,60.13952369,,,,,,down,0,2.5485,,0.049074131,-0.104629644,1,0,0,0,65,65,87,1,toeval,images/br_toeval.png,images/cb_toeval.png,0,,,,,,,,,,,,,,,,,,,,,,
,,,,,00004,2023-08-02_15h04.41.517,vbt_B2_day3,2022.2.4,Win32,60.13952369,,,,,,down,0,5.2176,,0.049074131,-0.104629644,1,0,0,0,66,66,158,1,innemen,images/br_innemen.png,images/cb_innemen.png,0,,,,,,,,,,,,,,,,,,,,,,
,,,,,00004,2023-08-02_15h04.41.517,vbt_B2_day3,2022.2.4,Win32,60.13952369,,,,,,down,0,7.4006,,0.049074131,-0.104629644,1,0,0,0,67,67,137,1,trekker,images/br_trekker.png,images/cb_trekker.png,0,,,,,,,,,,,,,,,,,,,,,,
,,,,,00004,2023-08-02_15h04.41.517,vbt_B2_day3,2022.2.4,Win32,60.13952369,,,,,,down,0,8.3368,,0.049074131,-0.104629644,1,0,0,0,68,68,188,1,strekken,images/br_strekken.png,images/cb_strekken.png,0,,,,,,,,,,,,,,,,,,,,,,
,,,,,00004,2023-08-02_15h04.41.517,vbt_B2_day3,2022.2.4,Win32,60.13952369,,,,,,down,0,11.766,,0.049074131,-0.104629644,1,0,0,0,69,69,194,1,driemaal,images/br_driemaal.png,images/cb_driemaal.png,0,,,,,,,,,,,,,,,,,,,,,,
,,,,,00004,2023-08-02_15h04.41.517,vbt_B2_day3,2022.2.4,Win32,60.13952369,,,,,,down,0,8.5401,,0.049074131,-0.104629644,1,0,0,0,70,70,44,1,flits,images/br_flits.png,images/cb_flits.png,0,,,,,,,,,,,,,,,,,,,,,,
,,,,,00004,2023-08-02_15h04.41.517,vbt_B2_day3,2022.2.4,Win32,60.13952369,,,,,,down,0,8.3356,,0.049074131,-0.104629644,1,0,0,0,71,71,178,1,huisdier,images/br_huisdier.png,images/cb_huisdier.png,0,,,,,,,,,,,,,,,,,,,,,,
,,,,,00004,2023-08-02_15h04.41.517,vbt_B2_day3,2022.2.4,Win32,60.13952369,,,,,,down,0,2.3335,,0.049074131,-0.104629644,1,0,0,0,72,72,16,1,ziek,images/br_ziek.png,images/cb_ziek.png,0,,,,,,,,,,,,,,,,,,,,,,
,,,,,00004,2023-08-02_15h04.41.517,vbt_B2_day3,2022.2.4,Win32,60.13952369,,,,,,down,0,6.9002,,0.049074131,-0.104629644,1,0,0,0,73,73,161,1,attentie,images/br_attentie.png,images/cb_attentie.png,0,,,,,,,,,,,,,,,,,,,,,,
,,,,,00004,2023-08-02_15h04.41.517,vbt_B2_day3,2022.2.4,Win32,60.13952369,,,,,,down,0,5.3281,,0.049074131,-0.104629644,1,0,0,0,74,74,91,1,gezond,images/br_gezond.png,images/cb_gezond.png,0,,,,,,,,,,,,,,,,,,,,,,
,,,,,00004,2023-08-02_15h04.41.517,vbt_B2_day3,2022.2.4,Win32,60.13952369,,,,,,down,0,5.3006,,0.049074131,-0.104629644,1,0,0,0,75,75,32,1,palm,images/br_palm.png,images/cb_palm.png,0,,,,,,,,,,,,,,,,,,,,,,
,,,,,00004,2023-08-02_15h04.41.517,vbt_B2_day3,2022.2.4,Win32,60.13952369,,,,,,down,0,6.4866,,0.049074131,-0.104629644,1,0,0,0,76,76,2,1,jaar,images/br_jaar.png,images/cb_jaar.png,0,,,,,,,,,,,,,,,,,,,,,,
,,,,,00004,2023-08-02_15h04.41.517,vbt_B2_day3,2022.2.4,Win32,60.13952369,,,,,,down,0,4.9078,,0.049074131,-0.104629644,1,0,0,0,77,77,15,1,soda,images/br_soda.png,images/cb_soda.png,0,,,,,,,,,,,,,,,,,,,,,,
,,,,,00004,2023-08-02_15h04.41.517,vbt_B2_day3,2022.2.4,Win32,60.13952369,,,,,,down,0,0.4422,,0.049074131,-0.104629644,1,0,0,0,78,78,48,1,steel,images/br_steel.png,images/cb_steel.png,0,,,,,,,,,,,,,,,,,,,,,,
,,,,,00004,2023-08-02_15h04.41.517,vbt_B2_day3,2022.2.4,Win32,60.13952369,,,,,,down,0,1.314,,0.049074131,-0.104629644,1,0,0,0,79,79,31,1,poes,images/br_poes.png,images/cb_poes.png,0,,,,,,,,,,,,,,,,,,,,,,
,,,,,00004,2023-08-02_15h04.41.517,vbt_B2_day3,2022.2.4,Win32,60.13952369,,,,,,down,0,2.4475,,0.049074131,-0.104629644,1,0,0,0,80,80,86,1,woning,images/br_woning.png,images/cb_woning.png,0,,,,,,,,,,,,,,,,,,,,,,
,,,,,00004,2023-08-02_15h04.41.517,vbt_B2_day3,2022.2.4,Win32,60.13952369,,,,,,down,0,2.4676,,0.049074131,-0.104629644,1,0,0,0,81,81,61,1,groen,images/br_groen.png,images/cb_groen.png,1,groen,,,,,,,,,,,,,,,,,,,,,
,,,,,00004,2023-08-02_15h04.41.517,vbt_B2_day3,2022.2.4,Win32,60.13952369,,,,,,down,0,4.9637,,0.202777778,-0.002777778,1,0,0,0,82,82,148,1,smullen,images/br_smullen.png,images/cb_smullen.png,0,,,,,,,,,,,,,,,,,,,,,,
,,,,,00004,2023-08-02_15h04.41.517,vbt_B2_day3,2022.2.4,Win32,60.13952369,,,,,,down,0,7.0664,,0.693518575,0.339814811,1,0,0,0,83,83,198,1,bedoelen,images/br_bedoelen.png,images/cb_bedoelen.png,0,,,,,,,,,,,,,,,,,,,,,,
,,,,,00004,2023-08-02_15h04.41.517,vbt_B2_day3,2022.2.4,Win32,60.13952369,,,,,,down,0,2.4502,,-0.006481425,0.205555556,1,0,0,0,84,84,117,1,kennis,images/br_kennis.png,images/cb_kennis.png,0,,,,,,,,,,,,,,,,,,,,,,
,,,,,00004,2023-08-02_15h04.41.517,vbt_B2_day3,2022.2.4,Win32,60.13952369,,,,,,down,0,16.449,,-0.006481425,0.205555556,1,0,0,0,85,85,71,1,bever,images/br_bever.png,images/cb_bever.png,0,,,,,,,,,,,,,,,,,,,,,,
,,,,,00004,2023-08-02_15h04.41.517,vbt_B2_day3,2022.2.4,Win32,60.13952369,,,,,,down,0,3.2864,,-0.006481425,0.205555556,1,0,0,0,86,86,101,1,staren,images/br_staren.png,images/cb_staren.png,1,staren,,,,,,,,,,,,,,,,,,,,,
,,,,,00004,2023-08-02_15h04.41.517,vbt_B2_day3,2022.2.4,Win32,60.13952369,,,,,,down,0,2.7087,,0.557407464,-0.016666667,1,0,0,0,87,87,175,1,heengaan,images/br_heengaan.png,images/cb_heengaan.png,0,,,,,,,,,,,,,,,,,,,,,,
,,,,,00004,2023-08-02_15h04.41.517,vbt_B2_day3,2022.2.4,Win32,60.13952369,,,,,,down,0,3.4715,,0.337963019,0.008333333,1,0,0,0,88,88,105,1,wijlen,images/br_wijlen.png,images/cb_wijlen.png,0,,,,,,,,,,,,,,,,,,,,,,
,,,,,00004,2023-08-02_15h04.41.517,vbt_B2_day3,2022.2.4,Win32,60.13952369,,,,,,down,0,5.4545,,0.443518575,0.136111111,1,0,0,0,89,89,43,1,klauw,images/br_klauw.png,images/cb_klauw.png,0,,,,,,,,,,,,,,,,,,,,,,
,,,,,00004,2023-08-02_15h04.41.517,vbt_B2_day3,2022.2.4,Win32,60.13952369,,,,,,down,0,10.0824,,0.045370399,-0.114814843,1,0,0,0,90,90,76,1,afval,images/br_afval.png,images/cb_afval.png,0,,,,,,,,,,,,,,,,,,,,,,
,,,,,00004,2023-08-02_15h04.41.517,vbt_B2_day3,2022.2.4,Win32,60.13952369,,,,,,down,0,9.6492,,0.122222222,-0.086111111,1,0,0,0,91,91,51,1,samen,images/br_samen.png,images/cb_samen.png,0,,,,,,,,,,,,,,,,,,,,,,
,,,,,00004,2023-08-02_15h04.41.517,vbt_B2_day3,2022.2.4,Win32,60.13952369,,,,,,down,0,7.3667,,0.415740797,0.072222222,1,0,0,0,92,92,12,1,kust,images/br_kust.png,images/cb_kust.png,0,,,,,,,,,,,,,,,,,,,,,,
,,,,,00004,2023-08-02_15h04.41.517,vbt_B2_day3,2022.2.4,Win32,60.13952369,,,,,,down,0,9.4866,,0.415740797,0.072222222,1,0,0,0,93,93,41,1,maken,images/br_maken.png,images/cb_maken.png,0,,,,,,,,,,,,,,,,,,,,,,
,,,,,00004,2023-08-02_15h04.41.517,vbt_B2_day3,2022.2.4,Win32,60.13952369,,,,,,down,0,5.5673,,0.415740797,0.072222222,1,0,0,0,94,94,119,1,liefje,images/br_liefje.png,images/cb_liefje.png,0,,,,,,,,,,,,,,,,,,,,,,
,,,,,00004,2023-08-02_15h04.41.517,vbt_B2_day3,2022.2.4,Win32,60.13952369,,,,,,down,0,4.9527,,0.415740797,0.074074046,1,0,0,0,95,95,189,1,aanraden,images/br_aanraden.png,images/cb_aanraden.png,0,,,,,,,,,,,,,,,,,,,,,,
,,,,,00004,2023-08-02_15h04.41.517,vbt_B2_day3,2022.2.4,Win32,60.13952369,,,,,,down,0,0.5007,,0.415740797,0.074074046,1,0,0,0,96,96,0,1,slak,images/br_slak.png,images/cb_slak.png,0,,,,,,,,,,,,,,,,,,,,,,
,,,,,00004,2023-08-02_15h04.41.517,vbt_B2_day3,2022.2.4,Win32,60.13952369,,,,,,down,0,16.0526,,0.415740797,0.074074046,1,0,0,0,97,97,196,1,nakijken,images/br_nakijken.png,images/cb_nakijken.png,0,,,,,,,,,,,,,,,,,,,,,,
,,,,,00004,2023-08-02_15h04.41.517,vbt_B2_day3,2022.2.4,Win32,60.13952369,,,,,,down,0,10.1996,,0.415740797,0.071296268,1,0,0,0,98,98,191,1,opheffen,images/br_opheffen.png,images/cb_opheffen.png,0,,,,,,,,,,,,,,,,,,,,,,
,,,,,00004,2023-08-02_15h04.41.517,vbt_B2_day3,2022.2.4,Win32,60.13952369,,,,,,down,0,3.0841,,0.412037065,0.065740712,1,0,0,0,99,99,109,1,totaal,images/br_totaal.png,images/cb_totaal.png,0,,,,,,,,,,,,,,,,,,,,,,
,,,,,00004,2023-08-02_15h04.41.517,vbt_B2_day3,2022.2.4,Win32,60.13952369,,,,,,down,0,1.4531,,0.412037065,0.065740712,1,0,0,0,100,100,18,1,blik,images/br_blik.png,images/cb_blik.png,0,,,,,,,,,,,,,,,,,,,,,,
,,,,,00004,2023-08-02_15h04.41.517,vbt_B2_day3,2022.2.4,Win32,60.13952369,,,,,,down,0,5.0758,,0.412037065,0.065740712,1,0,0,0,101,101,184,1,aandelen,images/br_aandelen.png,images/cb_aandelen.png,0,,,,,,,,,,,,,,,,,,,,,,
,,,,,00004,2023-08-02_15h04.41.517,vbt_B2_day3,2022.2.4,Win32,60.13952369,,,,,,down,0,0.6206,,0.412037065,0.065740712,1,0,0,0,102,102,39,1,laag,images/br_laag.png,images/cb_laag.png,0,,,,,,,,,,,,,,,,,,,,,,
,,,,,00004,2023-08-02_15h04.41.517,vbt_B2_day3,2022.2.4,Win32,60.13952369,,,,,,down,0,5.6755,,0.412037065,0.065740712,1,0,0,0,103,103,67,1,zwart,images/br_zwart.png,images/cb_zwart.png,0,,,,,,,,,,,,,,,,,,,,,,
,,,,,00004,2023-08-02_15h04.41.517,vbt_B2_day3,2022.2.4,Win32,60.13952369,,,,,,down,0,3.7173,,0.412037065,0.065740712,1,0,0,0,104,104,47,1,kabel,images/br_kabel.png,images/cb_kabel.png,0,,,,,,,,,,,,,,,,,,,,,,
,,,,,00004,2023-08-02_15h04.41.517,vbt_B2_day3,2022.2.4,Win32,60.13952369,,,,,,down,0,2.8045,,0.412037065,0.065740712,1,0,0,0,105,105,120,1,klimmen,images/br_klimmen.png,images/cb_klimmen.png,0,,,,,,,,,,,,,,,,,,,,,,
,,,,,00004,2023-08-02_15h04.41.517,vbt_B2_day3,2022.2.4,Win32,60.13952369,,,,,,down,0,3.3505,,0.412037065,0.065740712,1,0,0,0,106,106,118,1,vinger,images/br_vinger.png,images/cb_vinger.png,0,,,,,,,,,,,,,,,,,,,,,,
,,,,,00004,2023-08-02_15h04.41.517,vbt_B2_day3,2022.2.4,Win32,60.13952369,,,,,,down,0,7.167,,0.364814843,0.033333333,1,0,0,0,107,107,75,1,snoep,images/br_snoep.png,images/cb_snoep.png,0,,,,,,,,,,,,,,,,,,,,,,
,,,,,00004,2023-08-02_15h04.41.517,vbt_B2_day3,2022.2.4,Win32,60.13952369,,,,,,down,0,11.5525,,0.364814843,0.033333333,1,0,0,0,108,108,8,1,knie,images/br_knie.png,images/cb_knie.png,0,,,,,,,,,,,,,,,,,,,,,,
,,,,,00004,2023-08-02_15h04.41.517,vbt_B2_day3,2022.2.4,Win32,60.13952369,,,,,,down,0,8.5924,,0.364814843,0.033333333,1,0,0,0,109,109,164,1,anarchie,images/br_anarchie.png,images/cb_anarchie.png,0,,,,,,,,,,,,,,,,,,,,,,
,,,,,00004,2023-08-02_15h04.41.517,vbt_B2_day3,2022.2.4,Win32,60.13952369,,,,,,down,0,5.4561,,0.364814843,0.033333333,1,0,0,0,110,110,88,1,boeien,images/br_boeien.png,images/cb_boeien.png,0,,,,,,,,,,,,,,,,,,,,,,
,,,,,00004,2023-08-02_15h04.41.517,vbt_B2_day3,2022.2.4,Win32,60.13952369,,,,,,down,0,10.5579,,0.364814843,0.033333333,1,0,0,0,111,111,186,1,voorraad,images/br_voorraad.png,images/cb_voorraad.png,0,,,,,,,,,,,,,,,,,,,,,,
,,,,,00004,2023-08-02_15h04.41.517,vbt_B2_day3,2022.2.4,Win32,60.13952369,,,,,,down,0,0.7843,,0.364814843,0.023148134,1,0,0,0,112,112,84,1,lokken,images/br_lokken.png,images/cb_lokken.png,0,,,,,,,,,,,,,,,,,,,,,,
,,,,,00004,2023-08-02_15h04.41.517,vbt_B2_day3,2022.2.4,Win32,60.13952369,,,,,,down,0,4.6364,,0.619444444,0.174074067,1,0,0,0,113,113,125,1,aanzien,images/br_aanzien.png,images/cb_aanzien.png,0,,,,,,,,,,,,,,,,,,,,,,
,,,,,00004,2023-08-02_15h04.41.517,vbt_B2_day3,2022.2.4,Win32,60.13952369,,,,,,down,0,2.0521,,0.619444444,0.174074067,1,0,0,0,114,114,21,1,mist,images/br_mist.png,images/cb_mist.png,1,mist,,,,,,,,,,,,,,,,,,,,,
,,,,,00004,2023-08-02_15h04.41.517,vbt_B2_day3,2022.2.4,Win32,60.13952369,,,,,,down,0,8.1841,,0.619444444,0.174074067,1,0,0,0,115,115,152,1,afnemen,images/br_afnemen.png,images/cb_afnemen.png,0,,,,,,,,,,,,,,,,,,,,,,
,,,,,00004,2023-08-02_15h04.41.517,vbt_B2_day3,2022.2.4,Win32,60.13952369,,,,,,down,0,1.8737,,0.619444444,0.174074067,1,0,0,0,116,116,171,1,aarzelen,images/br_aarzelen.png,images/cb_aarzelen.png,0,,,,,,,,,,,,,,,,,,,,,,
,,,,,00004,2023-08-02_15h04.41.517,vbt_B2_day3,2022.2.4,Win32,60.13952369,,,,,,down,0,8.5838,,0.619444444,0.174074067,1,0,0,0,117,117,130,1,keihard,images/br_keihard.png,images/cb_keihard.png,0,,,,,,,,,,,,,,,,,,,,,,
,,,,,00004,2023-08-02_15h04.41.517,vbt_B2_day3,2022.2.4,Win32,60.13952369,,,,,,down,0,3.566,,0.619444444,0.174074067,1,0,0,0,118,118,81,1,dubbel,images/br_dubbel.png,images/cb_dubbel.png,0,,,,,,,,,,,,,,,,,,,,,,
,,,,,00004,2023-08-02_15h04.41.517,vbt_B2_day3,2022.2.4,Win32,60.13952369,,,,,,down,0,5.1655,,0.619444444,0.174074067,1,0,0,0,119,119,140,1,blijven,images/br_blijven.png,images/cb_blijven.png,1,blijven,,,,,,,,,,,,,,,,,,,,,
,,,,,00004,2023-08-02_15h04.41.517,vbt_B2_day3,2022.2.4,Win32,60.13952369,,,,,,down,0,0.4766,,0.614814928,0.172222222,1,0,0,0,120,120,5,1,blad,images/br_blad.png,images/cb_blad.png,0,,,,,,,,,,,,,,,,,,,,,,
,,,,,00004,2023-08-02_15h04.41.517,vbt_B2_day3,2022.2.4,Win32,60.13952369,,,,,,down,0,2.0506,,0.609259372,0.169444444,1,0,0,0,121,121,65,1,parel,images/br_parel.png,images/cb_parel.png,0,,,,,,,,,,,,,,,,,,,,,,
,,,,,00004,2023-08-02_15h04.41.517,vbt_B2_day3,2022.2.4,Win32,60.13952369,,,,,,down,0,7.9004,,0.609259372,0.169444444,1,0,0,0,122,122,104,1,zweven,images/br_zweven.png,images/cb_zweven.png,0,,,,,,,,,,,,,,,,,,,,,,
,,,,,00004,2023-08-02_15h04.41.517,vbt_B2_day3,2022.2.4,Win32,60.13952369,,,,,,down,0,3.5865,,0.609259372,0.169444444,1,0,0,0,123,123,193,1,weeshuis,images/br_weeshuis.png,images/cb_weeshuis.png,0,,,,,,,,,,,,,,,,,,,,,,
,,,,,00004,2023-08-02_15h04.41.517,vbt_B2_day3,2022.2.4,Win32,60.13952369,,,,,,down,0,3.0174,,0.609259372,0.169444444,1,0,0,0,124,124,134,1,geliefd,images/br_geliefd.png,images/cb_geliefd.png,0,,,,,,,,,,,,,,,,,,,,,,
,,,,,00004,2023-08-02_15h04.41.517,vbt_B2_day3,2022.2.4,Win32,60.13952369,,,,,,down,0,1.1187,,0.609259372,0.169444444,1,0,0,0,125,125,169,1,oprotten,images/br_oprotten.png,images/cb_oprotten.png,0,,,,,,,,,,,,,,,,,,,,,,
,,,,,00004,2023-08-02_15h04.41.517,vbt_B2_day3,2022.2.4,Win32,60.13952369,,,,,,down,0,1.7842,,0.609259372,0.169444444,1,0,0,0,126,126,49,1,laken,images/br_laken.png,images/cb_laken.png,0,,,,,,,,,,,,,,,,,,,,,,
,,,,,00004,2023-08-02_15h04.41.517,vbt_B2_day3,2022.2.4,Win32,60.13952369,,,,,,down,0,0.7577,,0.609259372,0.169444444,1,0,0,0,127,127,96,1,slagen,images/br_slagen.png,images/cb_slagen.png,0,,,,,,,,,,,,,,,,,,,,,,
,,,,,00004,2023-08-02_15h04.41.517,vbt_B2_day3,2022.2.4,Win32,60.13952369,,,,,,down,0,10.4168,,0.489814843,0.148148134,1,0,0,0,128,128,180,1,openbaar,images/br_openbaar.png,images/cb_openbaar.png,1,openbaar,,,,,,,,,,,,,,,,,,,,,
,,,,,00004,2023-08-02_15h04.41.517,vbt_B2_day3,2022.2.4,Win32,60.13952369,,,,,,down,0,4.3322,,0.486111111,0.140740712,1,0,0,0,129,129,115,1,kleren,images/br_kleren.png,images/cb_kleren.png,0,,,,,,,,,,,,,,,,,,,,,,
,,,,,00004,2023-08-02_15h04.41.517,vbt_B2_day3,2022.2.4,Win32,60.13952369,,,,,,down,0,5.7675,,0.486111111,0.138888889,1,0,0,0,130,130,147,1,komisch,images/br_komisch.png,images/cb_komisch.png,0,,,,,,,,,,,,,,,,,,,,,,
,,,,,00004,2023-08-02_15h04.41.517,vbt_B2_day3,2022.2.4,Win32,60.13952369,,,,,,down,0,20.8384,,0.487037065,0.137037023,1,0,0,0,131,131,24,1,jurk,images/br_jurk.png,images/cb_jurk.png,0,,,,,,,,,,,,,,,,,,,,,,
,,,,,00004,2023-08-02_15h04.41.517,vbt_B2_day3,2022.2.4,Win32,60.13952369,,,,,,down,0,3.184,,0.487963019,0.137037023,1,0,0,0,132,132,69,1,waken,images/br_waken.png,images/cb_waken.png,0,,,,,,,,,,,,,,,,,,,,,,
,,,,,00004,2023-08-02_15h04.41.517,vbt_B2_day3,2022.2.4,Win32,60.13952369,,,,,,down,0,3.1172,,0.487963019,0.137037023,1,0,0,0,133,133,3,1,mand,images/br_mand.png,images/cb_mand.png,0,,,,,,,,,,,,,,,,,,,,,,
,,,,,00004,2023-08-02_15h04.41.517,vbt_B2_day3,2022.2.4,Win32,60.13952369,,,,,,down,0,0.7851,,0.487963019,0.137037023,1,0,0,0,134,134,33,1,vlek,images/br_vlek.png,images/cb_vlek.png,0,,,,,,,,,,,,,,,,,,,,,,
,,,,,00004,2023-08-02_15h04.41.517,vbt_B2_day3,2022.2.4,Win32,60.13952369,,,,,,down,0,3.7423,,0.487963019,0.137037023,1,0,0,0,135,135,106,1,zingen,images/br_zingen.png,images/cb_zingen.png,0,,,,,,,,,,,,,,,,,,,,,,
,,,,,00004,2023-08-02_15h04.41.517,vbt_B2_day3,2022.2.4,Win32,60.13952369,,,,,,down,0,0.8008,,0.487963019,0.137037023,1,0,0,0,136,136,4,1,moes,images/br_moes.png,images/cb_moes.png,0,,,,,,,,,,,,,,,,,,,,,,
,,,,,00004,2023-08-02_15h04.41.517,vbt_B2_day3,2022.2.4,Win32,60.13952369,,,,,,down,0,4.0506,,0.487963019,0.137037023,1,0,0,0,137,137,53,1,baron,images/br_baron.png,images/cb_baron.png,0,,,,,,,,,,,,,,,,,,,,,,
,,,,,00004,2023-08-02_15h04.41.517,vbt_B2_day3,2022.2.4,Win32,60.13952369,,,,,,down,0,3.7006,,0.487963019,0.137037023,1,0,0,0,138,138,52,1,wagon,images/br_wagon.png,images/cb_wagon.png,0,,,,,,,,,,,,,,,,,,,,,,
,,,,,00004,2023-08-02_15h04.41.517,vbt_B2_day3,2022.2.4,Win32,60.13952369,,,,,,down,0,2.368,,0.487963019,0.137037023,1,0,0,0,139,139,7,1,geld,images/br_geld.png,images/cb_geld.png,0,,,,,,,,,,,,,,,,,,,,,,
,,,,,00004,2023-08-02_15h04.41.517,vbt_B2_day3,2022.2.4,Win32,60.13952369,,,,,,down,0,7.2504,,0.487963019,0.137037023,1,0,0,0,140,140,107,1,maling,images/br_maling.png,images/cb_maling.png,0,,,,,,,,,,,,,,,,,,,,,,
,,,,,00004,2023-08-02_15h04.41.517,vbt_B2_day3,2022.2.4,Win32,60.13952369,,,,,,down,0,3.2511,,0.487963019,0.137037023,1,0,0,0,141,141,166,1,strikken,images/br_strikken.png,images/cb_strikken.png,0,,,,,,,,,,,,,,,,,,,,,,
,,,,,00004,2023-08-02_15h04.41.517,vbt_B2_day3,2022.2.4,Win32,60.13952369,,,,,,down,0,8.3832,,0.487963019,0.137037023,1,0,0,0,142,142,172,1,weigeren,images/br_weigeren.png,images/cb_weigeren.png,0,,,,,,,,,,,,,,,,,,,,,,
,,,,,00004,2023-08-02_15h04.41.517,vbt_B2_day3,2022.2.4,Win32,60.13952369,,,,,,down,0,1.0382,,0.487963019,0.137037023,1,0,0,0,143,143,66,1,lever,images/br_lever.png,images/cb_lever.png,0,,,,,,,,,,,,,,,,,,,,,,
,,,,,00004,2023-08-02_15h04.41.517,vbt_B2_day3,2022.2.4,Win32,60.13952369,,,,,,down,0,0.8749,,0.486111111,0.133333333,1,0,0,0,144,144,57,1,steek,images/br_steek.png,images/cb_steek.png,0,,,,,,,,,,,,,,,,,,,,,,
,,,,,00004,2023-08-02_15h04.41.517,vbt_B2_day3,2022.2.4,Win32,60.13952369,,,,,,down,0,0.3042,,0.486111111,0.133333333,1,0,0,0,145,145,28,1,stal,images/br_stal.png,images/cb_stal.png,0,,,,,,,,,,,,,,,,,,,,,,
,,,,,00004,2023-08-02_15h04.41.517,vbt_B2_day3,2022.2.4,Win32,60.13952369,,,,,,down,0,2.1849,,0.486111111,0.133333333,1,0,0,0,146,146,14,1,rijp,images/br_rijp.png,images/cb_rijp.png,0,,,,,,,,,,,,,,,,,,,,,,
,,,,,00004,2023-08-02_15h04.41.517,vbt_B2_day3,2022.2.4,Win32,60.13952369,,,,,,down,0,2.634,,0.486111111,0.133333333,1,0,0,0,147,147,93,1,waarop,images/br_waarop.png,images/cb_waarop.png,0,,,,,,,,,,,,,,,,,,,,,,
,,,,,00004,2023-08-02_15h04.41.517,vbt_B2_day3,2022.2.4,Win32,60.13952369,,,,,,down,0,7.5663,,0.486111111,0.133333333,1,0,0,0,148,148,162,1,uitdelen,images/br_uitdelen.png,images/cb_uitdelen.png,0,,,,,,,,,,,,,,,,,,,,,,
,,,,,00004,2023-08-02_15h04.41.517,vbt_B2_day3,2022.2.4,Win32,60.13952369,,,,,,down,0,9.7667,,0.486111111,0.133333333,1,0,0,0,149,149,179,1,woestijn,images/br_woestijn.png,images/cb_woestijn.png,0,,,,,,,,,,,,,,,,,,,,,,
,,,,,00004,2023-08-02_15h04.41.517,vbt_B2_day3,2022.2.4,Win32,60.13952369,,,,,,down,0,2.5676,,0.486111111,0.133333333,1,0,0,0,150,150,82,1,muziek,images/br_muziek.png,images/cb_muziek.png,0,,,,,,,,,,,,,,,,,,,,,,
,,,,,00004,2023-08-02_15h04.41.517,vbt_B2_day3,2022.2.4,Win32,60.13952369,,,,,,down,0,3.8682,,0.486111111,0.133333333,1,0,0,0,151,151,111,1,ticket,images/br_ticket.png,images/cb_ticket.png,0,,,,,,,,,,,,,,,,,,,,,,
,,,,,00004,2023-08-02_15h04.41.517,vbt_B2_day3,2022.2.4,Win32,60.13952369,,,,,,down,0,9.773,,0.486111111,0.133333333,1,0,0,0,152,152,116,1,besmet,images/br_besmet.png,images/cb_besmet.png,0,,,,,,,,,,,,,,,,,,,,,,
,,,,,00004,2023-08-02_15h04.41.517,vbt_B2_day3,2022.2.4,Win32,60.13952369,,,,,,down,0,4.2009,,0.486111111,0.133333333,1,0,0,0,153,153,195,1,middelen,images/br_middelen.png,images/cb_middelen.png,0,,,,,,,,,,,,,,,,,,,,,,
,,,,,00004,2023-08-02_15h04.41.517,vbt_B2_day3,2022.2.4,Win32,60.13952369,,,,,,down,0,2.8678,,0.486111111,0.133333333,1,0,0,0,154,154,20,1,site,images/br_site.png,images/cb_site.png,1,site,,,,,,,,,,,,,,,,,,,,,
,,,,,00004,2023-08-02_15h04.41.517,vbt_B2_day3,2022.2.4,Win32,60.13952369,,,,,,down,0,4.0665,,0.486111111,0.133333333,1,0,0,0,155,155,151,1,aanzoek,images/br_aanzoek.png,images/cb_aanzoek.png,0,,,,,,,,,,,,,,,,,,,,,,
,,,,,00004,2023-08-02_15h04.41.517,vbt_B2_day3,2022.2.4,Win32,60.13952369,,,,,,down,0,0.7877,,0.486111111,0.133333333,1,0,0,0,156,156,36,1,vuur,images/br_vuur.png,images/cb_vuur.png,0,,,,,,,,,,,,,,,,,,,,,,
,,,,,00004,2023-08-02_15h04.41.517,vbt_B2_day3,2022.2.4,Win32,60.13952369,,,,,,down,0,2.3582,,0.486111111,0.133333333,1,0,0,0,157,157,54,1,gebit,images/br_gebit.png,images/cb_gebit.png,0,,,,,,,,,,,,,,,,,,,,,,
,,,,,00004,2023-08-02_15h04.41.517,vbt_B2_day3,2022.2.4,Win32,60.13952369,,,,,,down,0,5.5683,,0.486111111,0.133333333,1,0,0,0,158,158,60,1,jasje,images/br_jasje.png,images/cb_jasje.png,1,jasje,,,,,,,,,,,,,,,,,,,,,
,,,,,00004,2023-08-02_15h04.41.517,vbt_B2_day3,2022.2.4,Win32,60.13952369,,,,,,down,0,8.5544,,0.486111111,0.133333333,1,0,0,0,159,159,110,1,zuster,images/br_zuster.png,images/cb_zuster.png,0,,,,,,,,,,,,,,,,,,,,,,
,,,,,00004,2023-08-02_15h04.41.517,vbt_B2_day3,2022.2.4,Win32,60.13952369,,,,,,down,0,0.6239,,0.486111111,0.133333333,1,0,0,0,160,160,11,1,mode,images/br_mode.png,images/cb_mode.png,0,,,,,,,,,,,,,,,,,,,,,,
,,,,,00004,2023-08-02_15h04.41.517,vbt_B2_day3,2022.2.4,Win32,60.13952369,,,,,,down,0,4.7218,,0.483333333,0.133333333,1,0,0,0,161,161,149,1,redding,images/br_redding.png,images/cb_redding.png,0,,,,,,,,,,,,,,,,,,,,,,
,,,,,00004,2023-08-02_15h04.41.517,vbt_B2_day3,2022.2.4,Win32,60.13952369,,,,,,down,0,6.5855,,0.483333333,0.133333333,1,0,0,0,162,162,46,1,jagen,images/br_jagen.png,images/cb_jagen.png,0,,,,,,,,,,,,,,,,,,,,,,
,,,,,00004,2023-08-02_15h04.41.517,vbt_B2_day3,2022.2.4,Win32,60.13952369,,,,,,down,0,5.535,,0.483333333,0.133333333,1,0,0,0,163,163,183,1,getuigen,images/br_getuigen.png,images/cb_getuigen.png,1,getuigen,,,,,,,,,,,,,,,,,,,,,
,,,,,00004,2023-08-02_15h04.41.517,vbt_B2_day3,2022.2.4,Win32,60.13952369,,,,,,down,0,7.1709,,0.483333333,0.133333333,1,0,0,0,164,164,79,1,nodig,images/br_nodig.png,images/cb_nodig.png,0,,,,,,,,,,,,,,,,,,,,,,
,,,,,00004,2023-08-02_15h04.41.517,vbt_B2_day3,2022.2.4,Win32,60.13952369,,,,,,down,0,4.917,,0.483333333,0.133333333,1,0,0,0,165,165,197,1,spanning,images/br_spanning.png,images/cb_spanning.png,0,,,,,,,,,,,,,,,,,,,,,,
,,,,,00004,2023-08-02_15h04.41.517,vbt_B2_day3,2022.2.4,Win32,60.13952369,,,,,,down,0,11.2563,,0.483333333,0.133333333,1,0,0,0,166,166,176,1,techniek,images/br_techniek.png,images/cb_techniek.png,0,,,,,,,,,,,,,,,,,,,,,,
,,,,,00004,2023-08-02_15h04.41.517,vbt_B2_day3,2022.2.4,Win32,60.13952369,,,,,,down,0,5.055,,0.483333333,0.133333333,1,0,0,0,167,167,141,1,knielen,images/br_knielen.png,images/cb_knielen.png,1,knielen,,,,,,,,,,,,,,,,,,,,,
,,,,,00004,2023-08-02_15h04.41.517,vbt_B2_day3,2022.2.4,Win32,60.13952369,,,,,,down,0,1.3171,,0.483333333,0.133333333,1,0,0,0,168,168,72,1,strak,images/br_strak.png,images/cb_strak.png,0,,,,,,,,,,,,,,,,,,,,,,
,,,,,00004,2023-08-02_15h04.41.517,vbt_B2_day3,2022.2.4,Win32,60.13952369,,,,,,down,0,3.5836,,0.483333333,0.133333333,1,0,0,0,169,169,144,1,eetlust,images/br_eetlust.png,images/cb_eetlust.png,0,,,,,,,,,,,,,,,,,,,,,,
,,,,,00004,2023-08-02_15h04.41.517,vbt_B2_day3,2022.2.4,Win32,60.13952369,,,,,,down,0,3.4345,,0.483333333,0.133333333,1,0,0,0,170,170,168,1,bisschop,images/br_bisschop.png,images/cb_bisschop.png,0,,,,,,,,,,,,,,,,,,,,,,
,,,,,00004,2023-08-02_15h04.41.517,vbt_B2_day3,2022.2.4,Win32,60.13952369,,,,,,down,0,2.118,,0.483333333,0.133333333,1,0,0,0,171,171,23,1,zout,images/br_zout.png,images/cb_zout.png,1,zout,,,,,,,,,,,,,,,,,,,,,
,,,,,00004,2023-08-02_15h04.41.517,vbt_B2_day3,2022.2.4,Win32,60.13952369,,,,,,down,0,5.0338,,0.038888889,-0.024074088,1,0,0,0,172,172,97,1,loyaal,images/br_loyaal.png,images/cb_loyaal.png,0,,,,,,,,,,,,,,,,,,,,,,
,,,,,00004,2023-08-02_15h04.41.517,vbt_B2_day3,2022.2.4,Win32,60.13952369,,,,,,down,0,0.9423,,0.442592621,0.284259245,1,0,0,0,173,173,55,1,praat,images/br_praat.png,images/cb_praat.png,0,,,,,,,,,,,,,,,,,,,,,,
,,,,,00004,2023-08-02_15h04.41.517,vbt_B2_day3,2022.2.4,Win32,60.13952369,,,,,,down,0,1.0839,,0.248148176,-0.004629644,1,0,0,0,174,174,37,1,mijn,images/br_mijn.png,images/cb_mijn.png,0,,,,,,,,,,,,,,,,,,,,,,
,,,,,00004,2023-08-02_15h04.41.517,vbt_B2_day3,2022.2.4,Win32,60.13952369,,,,,,down,0,2.7728,,0.262963019,-0.001851866,1,0,0,0,175,175,100,1,geduld,images/br_geduld.png,images/cb_geduld.png,1,geduld,,,,,,,,,,,,,,,,,,,,,
,,,,,00004,2023-08-02_15h04.41.517,vbt_B2_day3,2022.2.4,Win32,60.13952369,,,,,,down,0,3.2672,,0.334259288,0.016666667,1,0,0,0,176,176,59,1,kring,images/br_kring.png,images/cb_kring.png,0,,,,,,,,,,,,,,,,,,,,,,
,,,,,00004,2023-08-02_15h04.41.517,vbt_B2_day3,2022.2.4,Win32,60.13952369,,,,,,down,0,2.0357,,0.195370399,-0.037037065,0,0,1,0,177,177,150,1,gegeven,images/br_gegeven.png,images/cb_gegeven.png,0,,,,,,,,,,,,,,,,,,,,,,
,,,,,00004,2023-08-02_15h04.41.517,vbt_B2_day3,2022.2.4,Win32,60.13952369,,,,,,down,0,4.5851,,0.117592621,-0.026851866,1,0,0,0,178,178,163,1,schuilen,images/br_schuilen.png,images/cb_schuilen.png,0,,,,,,,,,,,,,,,,,,,,,,
,,,,,00004,2023-08-02_15h04.41.517,vbt_B2_day3,2022.2.4,Win32,60.13952369,,,,,,down,0,2.5919,,0.546296353,0.025,1,0,0,0,179,179,124,1,bloeien,images/br_bloeien.png,images/cb_bloeien.png,0,,,,,,,,,,,,,,,,,,,,,,
,,,,,00004,2023-08-02_15h04.41.517,vbt_B2_day3,2022.2.4,Win32,60.13952369,,,,,,down,0,1.0357,,0.262037065,0.039814801,1,0,0,0,180,180,29,1,baas,images/br_baas.png,images/cb_baas.png,0,,,,,,,,,,,,,,,,,,,,,,
,,,,,00004,2023-08-02_15h04.41.517,vbt_B2_day3,2022.2.4,Win32,60.13952369,,,,,,down,0,0.6339,,0.164814843,-0.058333333,1,0,0,0,181,181,50,1,stoom,images/br_stoom.png,images/cb_stoom.png,0,,,,,,,,,,,,,,,,,,,,,,
,,,,,00004,2023-08-02_15h04.41.517,vbt_B2_day3,2022.2.4,Win32,60.13952369,,,,,,down,0,1.8631,,0.216666667,-0.097222222,1,0,0,0,182,182,62,1,knaap,images/br_knaap.png,images/cb_knaap.png,1,knaap,,,,,,,,,,,,,,,,,,,,,
,,,,,00004,2023-08-02_15h04.41.517,vbt_B2_day3,2022.2.4,Win32,60.13952369,,,,,,down,0,2.7473,,0.187963019,-0.04629631,1,0,0,0,183,183,129,1,verhaal,images/br_verhaal.png,images/cb_verhaal.png,0,,,,,,,,,,,,,,,,,,,,,,
,,,,,00004,2023-08-02_15h04.41.517,vbt_B2_day3,2022.2.4,Win32,60.13952369,,,,,,down,0,4.1432,,0.034259288,-0.040740755,1,0,0,0,184,184,1,1,zaal,images/br_zaal.png,images/cb_zaal.png,0,,,,,,,,,,,,,,,,,,,,,,
,,,,,00004,2023-08-02_15h04.41.517,vbt_B2_day3,2022.2.4,Win32,60.13952369,,,,,,down,0,2.6342,,0.066666667,-0.087962977,1,0,0,0,185,185,187,1,opkijken,images/br_opkijken.png,images/cb_opkijken.png,0,,,,,,,,,,,,,,,,,,,,,,
,,,,,00004,2023-08-02_15h04.41.517,vbt_B2_day3,2022.2.4,Win32,60.13952369,,,,,,down,0,6.7721,,0.569444444,0.323148145,1,0,0,0,186,186,155,1,gerucht,images/br_gerucht.png,images/cb_gerucht.png,0,,,,,,,,,,,,,,,,,,,,,,
,,,,,00004,2023-08-02_15h04.41.517,vbt_B2_day3,2022.2.4,Win32,60.13952369,,,,,,down,0,4.7518,,0.303703732,-0.020370399,1,0,0,0,187,187,177,1,maaltijd,images/br_maaltijd.png,images/cb_maaltijd.png,0,,,,,,,,,,,,,,,,,,,,,,
,,,,,00004,2023-08-02_15h04.41.517,vbt_B2_day3,2022.2.4,Win32,60.13952369,,,,,,down,0,11.0673,,0.052777778,-0.109259288,1,0,0,0,188,188,143,1,hechten,images/br_hechten.png,images/cb_hechten.png,1,hechten,,,,,,,,,,,,,,,,,,,,,
,,,,,00004,2023-08-02_15h04.41.517,vbt_B2_day3,2022.2.4,Win32,60.13952369,,,,,,down,0,12.934,,0.047222222,-0.126851866,1,0,0,0,189,189,102,1,legaal,images/br_legaal.png,images/cb_legaal.png,1,legaal,,,,,,,,,,,,,,,,,,,,,
,,,,,00004,2023-08-02_15h04.41.517,vbt_B2_day3,2022.2.4,Win32,60.13952369,,,,,,down,0,0.5621,,0.204629686,-0.052777778,1,0,0,0,190,190,17,1,taal,images/br_taal.png,images/cb_taal.png,0,,,,,,,,,,,,,,,,,,,,,,
,,,,,00004,2023-08-02_15h04.41.517,vbt_B2_day3,2022.2.4,Win32,60.13952369,,,,,,down,0,1.5223,,0.273148176,-0.05,1,0,0,0,191,191,6,1,diep,images/br_diep.png,images/cb_diep.png,0,,,,,,,,,,,,,,,,,,,,,,
,,,,,00004,2023-08-02_15h04.41.517,vbt_B2_day3,2022.2.4,Win32,60.13952369,,,,,,down,0,7.5498,,0.136111111,-0.043518533,1,0,0,0,192,192,138,1,akkoord,images/br_akkoord.png,images/cb_akkoord.png,0,,,,,,,,,,,,,,,,,,,,,,
,,,,,00004,2023-08-02_15h04.41.517,vbt_B2_day3,2022.2.4,Win32,60.13952369,,,,,,down,0,1.8268,,0.198148176,-0.070370399,1,0,0,0,193,193,199,1,beseffen,images/br_beseffen.png,images/cb_beseffen.png,0,,,,,,,,,,,,,,,,,,,,,,
,,,,,00004,2023-08-02_15h04.41.517,vbt_B2_day3,2022.2.4,Win32,60.13952369,,,,,,down,0,2.9684,,0.151851908,-0.045370399,1,0,0,0,194,194,192,1,schaamte,images/br_schaamte.png,images/cb_schaamte.png,0,,,,,,,,,,,,,,,,,,,,,,
,,,,,00004,2023-08-02_15h04.41.517,vbt_B2_day3,2022.2.4,Win32,60.13952369,,,,,,down,0,4.7677,,0.137963019,-0.022222222,1,0,0,0,195,195,136,1,waarbij,images/br_waarbij.png,images/cb_waarbij.png,0,,,,,,,,,,,,,,,,,,,,,,
,,,,,00004,2023-08-02_15h04.41.517,vbt_B2_day3,2022.2.4,Win32,60.13952369,,,,,,down,0,1.4395,,0.137963019,-0.022222222,1,0,0,0,196,196,73,1,volop,images/br_volop.png,images/cb_volop.png,0,,,,,,,,,,,,,,,,,,,,,,
,,,,,00004,2023-08-02_15h04.41.517,vbt_B2_day3,2022.2.4,Win32,60.13952369,,,,,,down,0,5.1248,,0.05,-0.045370399,1,0,0,0,197,197,94,1,oceaan,images/br_oceaan.png,images/cb_oceaan.png,0,,,,,,,,,,,,,,,,,,,,,,
,,,,,00004,2023-08-02_15h04.41.517,vbt_B2_day3,2022.2.4,Win32,60.13952369,,,,,,down,0,0.9727,,0.348148176,-0.00648151,1,0,0,0,198,198,132,1,grappen,images/br_grappen.png,images/cb_grappen.png,0,,,,,,,,,,,,,,,,,,,,,,
,,,,,00004,2023-08-02_15h04.41.517,vbt_B2_day3,2022.2.4,Win32,60.13952369,,,,,,down,0,1.1545,,0.477777778,0.012962935,1,0,0,0,199,199,30,1,uien,images/br_uien.png,images/cb_uien.png,0,,,,,,,,,,,,,,,,,,,,,,
,,,,,00004,2023-08-02_15h04.41.517,vbt_B2_day3,2022.2.4,Win32,60.13952369,,,,,,,,,,,,,,,,,,,,,,,,,0.628703817,0.199074067,1,0,0,,,,,,,,,,,,,,,,
,,,,,00004,2023-08-02_15h04.41.517,vbt_B2_day3,2022.2.4,Win32,60.13952369,,,,,,,,,,,,,,,,,,,,,,,,,,,,,,0.592592706,0.075925912,1,0,0,,,,,,,,,,,
,,,,,00004,2023-08-02_15h04.41.517,vbt_B2_day3,2022.2.4,Win32,60.13952369,,,,,,,,,,,,,,,,,,,,uviek,images/br_uviek.png,images/cb_uviek.png,,uviek,,,,,,,,,,,0.111111111,-0.025,1,0,0,uviek,0,0,0,25,1
,,,,,00004,2023-08-02_15h04.41.517,vbt_B2_day3,2022.2.4,Win32,60.13952369,,,,,,,,,,,,,,,,,,,,booien,images/br_booien.png,images/cb_booien.png,,booien,,,,,,,,,,,0.066666667,-0.022222222,1,0,0,booien,0,1,1,31,1
,,,,,00004,2023-08-02_15h04.41.517,vbt_B2_day3,2022.2.4,Win32,60.13952369,,,,,,,,,,,,,,,,,,,,samen,images/br_samen.png,images/cb_samen.png,,samen,,,,,,,,,,,0.08148151,-0.027777778,1,0,0,samen,0,2,2,7,1
,,,,,00004,2023-08-02_15h04.41.517,vbt_B2_day3,2022.2.4,Win32,60.13952369,,,,,,,,,,,,,,,,,,,,alsof,images/br_alsof.png,images/cb_alsof.png,,alsof,,,,,,,,,,,0.112963019,-0.026851866,1,0,0,alsof,0,3,3,44,1
,,,,,00004,2023-08-02_15h04.41.517,vbt_B2_day3,2022.2.4,Win32,60.13952369,,,,,,,,,,,,,,,,,,,,kest,images/br_kest.png,images/cb_kest.png,,kist,,,,,,,,,,,0.182407464,-0.074074088,1,0,0,kist,0,4,4,21,1
,,,,,00004,2023-08-02_15h04.41.517,vbt_B2_day3,2022.2.4,Win32,60.13952369,,,,,,,,,,,,,,,,,,,,beslag,images/br_beslag.png,images/cb_beslag.png,,beslag,,,,,,,,,,,0.299074131,-0.038888889,1,0,0,beslag,0,5,5,51,1
,,,,,00004,2023-08-02_15h04.41.517,vbt_B2_day3,2022.2.4,Win32,60.13952369,,,,,,,,,,,,,,,,,,,,stallen,images/br_stallen.png,images/cb_stallen.png,,stallen,,,,,,,,,,,0.214814843,-0.027777778,1,0,0,stallen,0,6,6,52,1
,,,,,00004,2023-08-02_15h04.41.517,vbt_B2_day3,2022.2.4,Win32,60.13952369,,,,,,,,,,,,,,,,,,,,steel,images/br_steel.png,images/cb_steel.png,,steel,,,,,,,,,,,0.195370399,-0.040740755,1,0,0,steel,0,7,7,4,1
,,,,,00004,2023-08-02_15h04.41.517,vbt_B2_day3,2022.2.4,Win32,60.13952369,,,,,,,,,,,,,,,,,,,,gezond,images/br_gezond.png,images/cb_gezond.png,,gezond,,,,,,,,,,,0.249074131,-0.027777778,1,0,0,gezond,0,8,8,11,1
,,,,,00004,2023-08-02_15h04.41.517,vbt_B2_day3,2022.2.4,Win32,60.13952369,,,,,,,,,,,,,,,,,,,,mode,images/br_mode.png,images/cb_mode.png,,mode,,,,,,,,,,,0.287963019,-0.082407422,1,0,0,mode,0,9,9,3,1
,,,,,00004,2023-08-02_15h04.41.517,vbt_B2_day3,2022.2.4,Win32,60.13952369,,,,,,,,,,,,,,,,,,,,uniek,images/br_uniek.png,images/cb_uniek.png,,uniek,,,,,,,,,,,0.274074131,-0.126851866,1,0,0,uniek,0,10,10,46,1
,,,,,00004,2023-08-02_15h04.41.517,vbt_B2_day3,2022.2.4,Win32,60.13952369,,,,,,,,,,,,,,,,,,,,gebod,images/br_gebod.png,images/cb_gebod.png,,gelod,,,,,,,,,,,0.159259288,0.013888889,1,0,0,gelod,0,11,11,45,1
,,,,,00004,2023-08-02_15h04.41.517,vbt_B2_day3,2022.2.4,Win32,60.13952369,,,,,,,,,,,,,,,,,,,,croo,images/br_croo.png,images/cb_croo.png,,croo,,,,,,,,,,,0.150925954,-0.082407422,1,0,0,croo,0,12,12,22,1
,,,,,00004,2023-08-02_15h04.41.517,vbt_B2_day3,2022.2.4,Win32,60.13952369,,,,,,,,,,,,,,,,,,,,begrip,images/br_begrip.png,images/cb_begrip.png,,begr,,,,,,,,,,,0.034259288,-0.037037065,1,0,0,begr,0,13,13,48,1
,,,,,00004,2023-08-02_15h04.41.517,vbt_B2_day3,2022.2.4,Win32,60.13952369,,,,,,,,,,,,,,,,,,,,sultan,images/br_sultan.png,images/cb_sultan.png,,sultan,,,,,,,,,,,0.123148176,-0.036111111,1,0,0,sultan,0,14,14,49,1
,,,,,00004,2023-08-02_15h04.41.517,vbt_B2_day3,2022.2.4,Win32,60.13952369,,,,,,,,,,,,,,,,,,,,schodel,images/br_schodel.png,images/cb_schodel.png,,schedel,,,,,,,,,,,0.116666667,-0.036111111,1,0,0,schedel,0,15,15,33,1
,,,,,00004,2023-08-02_15h04.41.517,vbt_B2_day3,2022.2.4,Win32,60.13952369,,,,,,,,,,,,,,,,,,,,stoom,images/br_stoom.png,images/cb_stoom.png,,stoom,,,,,,,,,,,0.129629686,-0.052777778,1,0,0,stoom,0,16,16,6,1
,,,,,00004,2023-08-02_15h04.41.517,vbt_B2_day3,2022.2.4,Win32,60.13952369,,,,,,,,,,,,,,,,,,,,theeting,images/br_theeting.png,images/cb_theeting.png,,sheet,,,,,,,,,,,0.012963019,-0.00648151,1,0,0,sheet,0,17,17,38,1
,,,,,00004,2023-08-02_15h04.41.517,vbt_B2_day3,2022.2.4,Win32,60.13952369,,,,,,,,,,,,,,,,,,,,hust,images/br_hust.png,images/cb_hust.png,,hust,,,,,,,,,,,-0.113888889,0.006481467,1,0,0,hust,0,18,18,23,1
,,,,,00004,2023-08-02_15h04.41.517,vbt_B2_day3,2022.2.4,Win32,60.13952369,,,,,,,,,,,,,,,,,,,,jongelui,images/br_jongelui.png,images/cb_jongelui.png,,jongel,,,,,,,,,,,0.077777778,-0.035185199,1,0,0,jongel,0,19,19,59,1
,,,,,00004,2023-08-02_15h04.41.517,vbt_B2_day3,2022.2.4,Win32,60.13952369,,,,,,,,,,,,,,,,,,,,bevret,images/br_bevret.png,images/cb_bevret.png,,bevre,,,,,,,,,,,0.086111111,-0.037037065,1,0,0,bevre,0,20,20,30,1
,,,,,00004,2023-08-02_15h04.41.517,vbt_B2_day3,2022.2.4,Win32,60.13952369,,,,,,,,,,,,,,,,,,,,hint,images/br_hint.png,images/cb_hint.png,,hint,,,,,,,,,,,0.092592621,-0.035185199,1,0,0,hint,0,21,21,43,1
,,,,,00004,2023-08-02_15h04.41.517,vbt_B2_day3,2022.2.4,Win32,60.13952369,,,,,,,,,,,,,,,,,,,,keihard,images/br_keihard.png,images/cb_keihard.png,,keij,,,,,,,,,,,-0.113888889,-0.016666667,1,0,0,keij,0,22,22,14,1
,,,,,00004,2023-08-02_15h04.41.517,vbt_B2_day3,2022.2.4,Win32,60.13952369,,,,,,,,,,,,,,,,,,,,oprotten,images/br_oprotten.png,images/cb_oprotten.png,,oprotten,,,,,,,,,,,0.325,-0.042592621,1,0,0,oprotten,0,23,23,17,1
,,,,,00004,2023-08-02_15h04.41.517,vbt_B2_day3,2022.2.4,Win32,60.13952369,,,,,,,,,,,,,,,,,,,,verraden,images/br_verraden.png,images/cb_verraden.png,,verraden,,,,,,,,,,,0.149074131,-0.034259288,1,0,0,verraden,0,24,24,58,1
,,,,,00004,2023-08-02_15h04.41.517,vbt_B2_day3,2022.2.4,Win32,60.13952369,,,,,,,,,,,,,,,,,,,,invallen,images/br_invallen.png,images/cb_invallen.png,,invallen,,,,,,,,,,,0.20648151,-0.025925954,1,0,0,invallen,0,25,25,57,1
,,,,,00004,2023-08-02_15h04.41.517,vbt_B2_day3,2022.2.4,Win32,60.13952369,,,,,,,,,,,,,,,,,,,,stikken,images/br_stikken.png,images/cb_stikken.png,,stikken,,,,,,,,,,,0.227777778,-0.037037065,1,0,0,stikken,0,26,26,54,1
,,,,,00004,2023-08-02_15h04.41.517,vbt_B2_day3,2022.2.4,Win32,60.13952369,,,,,,,,,,,,,,,,,,,,leugeren,images/br_leugeren.png,images/cb_leugeren.png,,leuge,,,,,,,,,,,0.046296353,-0.018518533,1,0,0,leuge,0,27,27,37,1
,,,,,00004,2023-08-02_15h04.41.517,vbt_B2_day3,2022.2.4,Win32,60.13952369,,,,,,,,,,,,,,,,,,,,onrecht,images/br_onrecht.png,images/cb_onrecht.png,,onrecht,,,,,,,,,,,0.464814843,0.011111111,1,0,0,onrecht,0,28,28,55,1
,,,,,00004,2023-08-02_15h04.41.517,vbt_B2_day3,2022.2.4,Win32,60.13952369,,,,,,,,,,,,,,,,,,,,sluier,images/br_sluier.png,images/cb_sluier.png,,sluier,,,,,,,,,,,0.199074131,-0.029629644,1,0,0,sluier,0,29,29,50,1
,,,,,00004,2023-08-02_15h04.41.517,vbt_B2_day3,2022.2.4,Win32,60.13952369,,,,,,,,,,,,,,,,,,,,gout,images/br_gout.png,images/cb_gout.png,,gout,,,,,,,,,,,0.15648151,-0.016666667,1,0,0,gout,0,30,30,20,1
,,,,,00004,2023-08-02_15h04.41.517,vbt_B2_day3,2022.2.4,Win32,60.13952369,,,,,,,,,,,,,,,,,,,,twaaf,images/br_twaaf.png,images/cb_twaaf.png,,twaaf,,,,,,,,,,,0.107407464,-0.018518533,1,0,0,twaaf,0,31,31,24,1
,,,,,00004,2023-08-02_15h04.41.517,vbt_B2_day3,2022.2.4,Win32,60.13952369,,,,,,,,,,,,,,,,,,,,laken,images/br_laken.png,images/cb_laken.png,,laken,,,,,,,,,,,0.182407464,-0.043518533,1,0,0,laken,0,32,32,5,1
,,,,,00004,2023-08-02_15h04.41.517,vbt_B2_day3,2022.2.4,Win32,60.13952369,,,,,,,,,,,,,,,,,,,,paken,images/br_paken.png,images/cb_paken.png,,paken,,,,,,,,,,,0.088888889,-0.012962977,1,0,0,paken,0,33,33,27,1
,,,,,00004,2023-08-02_15h04.41.517,vbt_B2_day3,2022.2.4,Win32,60.13952369,,,,,,,,,,,,,,,,,,,,leek,images/br_leek.png,images/cb_leek.png,,leek,,,,,,,,,,,0.192592621,-0.038888889,1,0,0,leek,0,34,34,2,1
,,,,,00004,2023-08-02_15h04.41.517,vbt_B2_day3,2022.2.4,Win32,60.13952369,,,,,,,,,,,,,,,,,,,,verwoor,images/br_verwoor.png,images/cb_verwoor.png,,verwoor,,,,,,,,,,,0.034259288,-0.020370399,1,0,0,verwoor,0,35,35,32,1
,,,,,00004,2023-08-02_15h04.41.517,vbt_B2_day3,2022.2.4,Win32,60.13952369,,,,,,,,,,,,,,,,,,,,opzicht,images/br_opzicht.png,images/cb_opzicht.png,,opzicht,,,,,,,,,,,0.297222222,-0.016666667,1,0,0,opzicht,0,36,36,15,1
,,,,,00004,2023-08-02_15h04.41.517,vbt_B2_day3,2022.2.4,Win32,60.13952369,,,,,,,,,,,,,,,,,,,,opzetten,images/br_opzetten.png,images/cb_opzetten.png,,opzetten,,,,,,,,,,,-0.055555556,-0.025925954,1,0,0,opzetten,0,37,37,56,1
,,,,,00004,2023-08-02_15h04.41.517,vbt_B2_day3,2022.2.4,Win32,60.13952369,,,,,,,,,,,,,,,,,,,,kaas,images/br_kaas.png,images/cb_kaas.png,,kaas,,,,,,,,,,,0.162963019,-0.045370399,1,0,0,kaas,0,38,38,42,1
,,,,,00004,2023-08-02_15h04.41.517,vbt_B2_day3,2022.2.4,Win32,60.13952369,,,,,,,,,,,,,,,,,,,,glijden,images/br_glijden.png,images/cb_glijden.png,,glijden,,,,,,,,,,,0.073148176,-0.019444444,1,0,0,glijden,0,39,39,53,1
,,,,,00004,2023-08-02_15h04.41.517,vbt_B2_day3,2022.2.4,Win32,60.13952369,,,,,,,,,,,,,,,,,,,,hier,images/br_hier.png,images/cb_hier.png,,hier,,,,,,,,,,,0.120370399,-0.022222222,1,0,0,hier,0,40,40,1,1
,,,,,00004,2023-08-02_15h04.41.517,vbt_B2_day3,2022.2.4,Win32,60.13952369,,,,,,,,,,,,,,,,,,,,kwaas,images/br_kwaas.png,images/cb_kwaas.png,,kwaas,,,,,,,,,,,0.343518575,-0.120370399,1,0,0,kwaas,0,41,41,26,1
,,,,,00004,2023-08-02_15h04.41.517,vbt_B2_day3,2022.2.4,Win32,60.13952369,,,,,,,,,,,,,,,,,,,,verhaal,images/br_verhaal.png,images/cb_verhaal.png,,verhaal,,,,,,,,,,,0.276851908,0,1,0,0,verhaal,0,42,42,13,1
,,,,,00004,2023-08-02_15h04.41.517,vbt_B2_day3,2022.2.4,Win32,60.13952369,,,,,,,,,,,,,,,,,,,,leemaken,images/br_leemaken.png,images/cb_leemaken.png,,leemaken,,,,,,,,,,,0.143518575,-0.025925954,1,0,0,leemaken,0,43,43,39,1
,,,,,00004,2023-08-02_15h04.41.517,vbt_B2_day3,2022.2.4,Win32,60.13952369,,,,,,,,,,,,,,,,,,,,geluid,images/br_geluid.png,images/cb_geluid.png,,geluid,,,,,,,,,,,0.223148176,-0.00648151,1,0,0,geluid,0,44,44,10,1
,,,,,00004,2023-08-02_15h04.41.517,vbt_B2_day3,2022.2.4,Win32,60.13952369,,,,,,,,,,,,,,,,,,,,schatten,images/br_schatten.png,images/cb_schatten.png,,schatten,,,,,,,,,,,0.276851908,-0.025925954,1,0,0,schatten,0,45,45,18,1
,,,,,00004,2023-08-02_15h04.41.517,vbt_B2_day3,2022.2.4,Win32,60.13952369,,,,,,,,,,,,,,,,,,,,mugeek,images/br_mugeek.png,images/cb_mugeek.png,,mugeek,,,,,,,,,,,0.241666667,-0.037037065,1,0,0,mugeek,0,46,46,29,1
,,,,,00004,2023-08-02_15h04.41.517,vbt_B2_day3,2022.2.4,Win32,60.13952369,,,,,,,,,,,,,,,,,,,,knie,images/br_knie.png,images/cb_knie.png,,knie,,,,,,,,,,,0.046296353,-0.035185199,1,0,0,knie,0,47,47,0,1
,,,,,00004,2023-08-02_15h04.41.517,vbt_B2_day3,2022.2.4,Win32,60.13952369,,,,,,,,,,,,,,,,,,,,eens,images/br_eens.png,images/cb_eens.png,,eens,,,,,,,,,,,0.155555556,-0.010185199,1,0,0,eens,0,48,48,40,1
,,,,,00004,2023-08-02_15h04.41.517,vbt_B2_day3,2022.2.4,Win32,60.13952369,,,,,,,,,,,,,,,,,,,,slapen,images/br_slapen.png,images/cb_slapen.png,,slapen,,,,,,,,,,,0.208333333,-0.023148176,1,0,0,slapen,0,49,49,9,1
,,,,,00004,2023-08-02_15h04.41.517,vbt_B2_day3,2022.2.4,Win32,60.13952369,,,,,,,,,,,,,,,,,,,,prikken,images/br_prikken.png,images/cb_prikken.png,,prikken,,,,,,,,,,,0.120370399,-0.018518533,1,0,0,prikken,0,50,50,12,1
,,,,,00004,2023-08-02_15h04.41.517,vbt_B2_day3,2022.2.4,Win32,60.13952369,,,,,,,,,,,,,,,,,,,,dwang,images/br_dwang.png,images/cb_dwang.png,,dwang,,,,,,,,,,,0.262963019,-0.020370399,1,0,0,dwang,0,51,51,47,1
,,,,,00004,2023-08-02_15h04.41.517,vbt_B2_day3,2022.2.4,Win32,60.13952369,,,,,,,,,,,,,,,,,,,,afbopen,images/br_afbopen.png,images/cb_afbopen.png,,afbop,,,,,,,,,,,0.067592621,-0.015740755,1,0,0,afbop,0,52,52,34,1
,,,,,00004,2023-08-02_15h04.41.517,vbt_B2_day3,2022.2.4,Win32,60.13952369,,,,,,,,,,,,,,,,,,,,brappen,images/br_brappen.png,images/cb_brappen.png,,larrben,,,,,,,,,,,0.142592621,-0.015740755,1,0,0,larrben,0,53,53,35,1
,,,,,00004,2023-08-02_15h04.41.517,vbt_B2_day3,2022.2.4,Win32,60.13952369,,,,,,,,,,,,,,,,,,,,aarzelen,images/br_aarzelen.png,images/cb_aarzelen.png,,aarzelen,,,,,,,,,,,0.064814843,-0.016666667,1,0,0,aarzelen,0,54,54,19,1
,,,,,00004,2023-08-02_15h04.41.517,vbt_B2_day3,2022.2.4,Win32,60.13952369,,,,,,,,,,,,,,,,,,,,zone,images/br_zone.png,images/cb_zone.png,,zone,,,,,,,,,,,0.191666667,-0.029629644,1,0,0,zone,0,55,55,41,1
,,,,,00004,2023-08-02_15h04.41.517,vbt_B2_day3,2022.2.4,Win32,60.13952369,,,,,,,,,,,,,,,,,,,,vlager,images/br_vlager.png,images/cb_vlager.png,,vlage,,,,,,,,,,,0.120370399,-0.009259288,1,0,0,vlage,0,56,56,28,1
,,,,,00004,2023-08-02_15h04.41.517,vbt_B2_day3,2022.2.4,Win32,60.13952369,,,,,,,,,,,,,,,,,,,,makieren,images/br_makieren.png,images/cb_makieren.png,,makie,,,,,,,,,,,-0.027777778,0.004629601,1,0,0,makie,0,57,57,36,1
,,,,,00004,2023-08-02_15h04.41.517,vbt_B2_day3,2022.2.4,Win32,60.13952369,,,,,,,,,,,,,,,,,,,,bisschop,images/br_bisschop.png,images/cb_bisschop.png,,bisschop,,,,,,,,,,,-0.066666667,-0.024074088,1,0,0,bisschop,0,58,58,16,1
,,,,,00004,2023-08-02_15h04.41.517,vbt_B2_day3,2022.2.4,Win32,60.13952369,,,,,,,,,,,,,,,,,,,,boeien,images/br_boeien.png,images/cb_boeien.png,,boeien,,,,,,,,,,,0.269444444,-0.044444444,1,0,0,boeien,0,59,59,8,1
,,,,,00004,2023-08-02_15h04.41.517,vbt_B2_day3,2022.2.4,Win32,60.13952369,,,,,,,,,,,,,,,,,,,,,,,,,,,,,,,,,,,,,,,,,,,,,
