welcome_mouse.x,welcome_mouse.y,welcome_mouse.leftButton,welcome_mouse.midButton,welcome_mouse.rightButton,"ID",date,expName,psychopyVersion,OS,frameRate,participant,trainInstr_mouse.x,trainInstr_mouse.y,trainInstr_mouse.leftButton,trainInstr_mouse.midButton,trainInstr_mouse.rightButton,translation_key.keys,translation_key.corr,translation_key.rt,word_rsp.text,trWrd_mouse.x,trWrd_mouse.y,trWrd_mouse.leftButton,trWrd_mouse.midButton,trWrd_mouse.rightButton,train_loop.thisRepN,train_loop.thisTrialN,train_loop.thisN,train_loop.thisIndex,train_loop.ran,nlWrd,brWrd,cbWrd,test,testResp,mouse.x,mouse.y,mouse.leftButton,mouse.midButton,mouse.rightButton,testInstr_mouse.x,testInstr_mouse.y,testInstr_mouse.leftButton,testInstr_mouse.midButton,testInstr_mouse.rightButton,test_mouse.x,test_mouse.y,test_mouse.leftButton,test_mouse.midButton,test_mouse.rightButton,test_response.text,test_loop.thisRepN,test_loop.thisTrialN,test_loop.thisN,test_loop.thisIndex,test_loop.ran
0.026851852,-0.096296296,1,0,0,,2023-09-27_20h52.27.941,vbt_B2_day3,2022.2.4,Win32,59.13310863,55978,,,,,,,,,,,,,,,,,,,,,,,,,,,,,,,,,,,,,,,,,,,,,
,,,,,,2023-09-27_20h52.27.941,vbt_B2_day3,2022.2.4,Win32,59.13310863,55978,0.026851852,-0.096296296,1,0,0,,,,,,,,,,,,,,,,,,,,,,,,,,,,,,,,,,,,,,,,
,,,,,,2023-09-27_20h52.27.941,vbt_B2_day3,2022.2.4,Win32,59.13310863,55978,,,,,,down,0,14.7391,,0.026851852,-0.096296296,1,0,0,0,0,0,145,1,invloed,images/br_invloed.png,images/cb_invloed.png,0,,,,,,,,,,,,,,,,,,,,,,
,,,,,,2023-09-27_20h52.27.941,vbt_B2_day3,2022.2.4,Win32,59.13310863,55978,,,,,,down,0,2.9187,,0.026851852,-0.096296296,1,0,0,0,1,1,177,1,maaltijd,images/br_maaltijd.png,images/cb_maaltijd.png,0,,,,,,,,,,,,,,,,,,,,,,
,,,,,,2023-09-27_20h52.27.941,vbt_B2_day3,2022.2.4,Win32,59.13310863,55978,,,,,,down,0,2.1259,,0.026851852,-0.096296296,1,0,0,0,2,2,107,1,maling,images/br_maling.png,images/cb_maling.png,0,,,,,,,,,,,,,,,,,,,,,,
,,,,,,2023-09-27_20h52.27.941,vbt_B2_day3,2022.2.4,Win32,59.13310863,55978,,,,,,down,0,3.8841,,0.026851852,-0.096296296,1,0,0,0,3,3,147,1,komisch,images/br_komisch.png,images/cb_komisch.png,0,,,,,,,,,,,,,,,,,,,,,,
,,,,,,2023-09-27_20h52.27.941,vbt_B2_day3,2022.2.4,Win32,59.13310863,55978,,,,,,down,0,3.9365,,0.026851852,-0.096296296,1,0,0,0,4,4,85,1,heilig,images/br_heilig.png,images/cb_heilig.png,0,,,,,,,,,,,,,,,,,,,,,,
,,,,,,2023-09-27_20h52.27.941,vbt_B2_day3,2022.2.4,Win32,59.13310863,55978,,,,,,down,0,1.6681,,0.026851852,-0.096296296,1,0,0,0,5,5,158,1,innemen,images/br_innemen.png,images/cb_innemen.png,0,,,,,,,,,,,,,,,,,,,,,,
,,,,,,2023-09-27_20h52.27.941,vbt_B2_day3,2022.2.4,Win32,59.13310863,55978,,,,,,down,0,2.4428,,0.026851852,-0.096296296,1,0,0,0,6,6,173,1,apparaat,images/br_apparaat.png,images/cb_apparaat.png,0,,,,,,,,,,,,,,,,,,,,,,
,,,,,,2023-09-27_20h52.27.941,vbt_B2_day3,2022.2.4,Win32,59.13310863,55978,,,,,,down,0,1.8604,,0.026851852,-0.096296296,1,0,0,0,7,7,174,1,stemming,images/br_stemming.png,images/cb_stemming.png,0,,,,,,,,,,,,,,,,,,,,,,
,,,,,,2023-09-27_20h52.27.941,vbt_B2_day3,2022.2.4,Win32,59.13310863,55978,,,,,,down,0,0.1509,,0.026851852,-0.096296296,1,0,0,0,8,8,28,1,stal,images/br_stal.png,images/cb_stal.png,0,,,,,,,,,,,,,,,,,,,,,,
,,,,,,2023-09-27_20h52.27.941,vbt_B2_day3,2022.2.4,Win32,59.13310863,55978,,,,,,down,0,1.2703,,0.026851852,-0.096296296,1,0,0,0,9,9,164,1,anarchie,images/br_anarchie.png,images/cb_anarchie.png,0,,,,,,,,,,,,,,,,,,,,,,
,,,,,,2023-09-27_20h52.27.941,vbt_B2_day3,2022.2.4,Win32,59.13310863,55978,,,,,,down,0,3.4327,,0.026851852,-0.096296296,1,0,0,0,10,10,184,1,aandelen,images/br_aandelen.png,images/cb_aandelen.png,0,,,,,,,,,,,,,,,,,,,,,,
,,,,,,2023-09-27_20h52.27.941,vbt_B2_day3,2022.2.4,Win32,59.13310863,55978,,,,,,down,0,1.3737,,0.026851852,-0.096296296,1,0,0,0,11,11,58,1,tekst,images/br_tekst.png,images/cb_tekst.png,0,,,,,,,,,,,,,,,,,,,,,,
,,,,,,2023-09-27_20h52.27.941,vbt_B2_day3,2022.2.4,Win32,59.13310863,55978,,,,,,down,0,1.7689,,0.02962963,-0.098148148,1,0,0,0,12,12,139,1,stiekem,images/br_stiekem.png,images/cb_stiekem.png,0,,,,,,,,,,,,,,,,,,,,,,
,,,,,,2023-09-27_20h52.27.941,vbt_B2_day3,2022.2.4,Win32,59.13310863,55978,,,,,,down,0,1.8553,,0.02962963,-0.098148148,1,0,0,0,13,13,194,1,driemaal,images/br_driemaal.png,images/cb_driemaal.png,0,,,,,,,,,,,,,,,,,,,,,,
,,,,,,2023-09-27_20h52.27.941,vbt_B2_day3,2022.2.4,Win32,59.13310863,55978,,,,,,down,0,2.5218,,0.02962963,-0.098148148,1,0,0,0,14,14,166,1,strikken,images/br_strikken.png,images/cb_strikken.png,0,,,,,,,,,,,,,,,,,,,,,,
,,,,,,2023-09-27_20h52.27.941,vbt_B2_day3,2022.2.4,Win32,59.13310863,55978,,,,,,down,0,2.0929,,0.02962963,-0.098148148,1,0,0,0,15,15,197,1,spanning,images/br_spanning.png,images/cb_spanning.png,0,,,,,,,,,,,,,,,,,,,,,,
,,,,,,2023-09-27_20h52.27.941,vbt_B2_day3,2022.2.4,Win32,59.13310863,55978,,,,,,down,0,1.835,,0.02962963,-0.099074074,1,0,0,0,16,16,151,1,aanzoek,images/br_aanzoek.png,images/cb_aanzoek.png,0,,,,,,,,,,,,,,,,,,,,,,
,,,,,,2023-09-27_20h52.27.941,vbt_B2_day3,2022.2.4,Win32,59.13310863,55978,,,,,,down,0,0.0077,,0.02962963,-0.099074074,1,0,0,0,17,17,50,1,stoom,images/br_stoom.png,images/cb_stoom.png,0,,,,,,,,,,,,,,,,,,,,,,
,,,,,,2023-09-27_20h52.27.941,vbt_B2_day3,2022.2.4,Win32,59.13310863,55978,,,,,,down,0,0.7861,,0.02962963,-0.102777778,1,0,0,0,18,18,11,1,mode,images/br_mode.png,images/cb_mode.png,0,,,,,,,,,,,,,,,,,,,,,,
,,,,,,2023-09-27_20h52.27.941,vbt_B2_day3,2022.2.4,Win32,59.13310863,55978,,,,,,down,0,2.2018,,0.02962963,-0.102777778,1,0,0,0,19,19,98,1,kreeft,images/br_kreeft.png,images/cb_kreeft.png,0,,,,,,,,,,,,,,,,,,,,,,
,,,,,,2023-09-27_20h52.27.941,vbt_B2_day3,2022.2.4,Win32,59.13310863,55978,,,,,,down,0,2.7244,,0.030555556,-0.105555556,1,0,0,0,20,20,92,1,geheim,images/br_geheim.png,images/cb_geheim.png,0,,,,,,,,,,,,,,,,,,,,,,
,,,,,,2023-09-27_20h52.27.941,vbt_B2_day3,2022.2.4,Win32,59.13310863,55978,,,,,,down,0,1.4357,,0.036111111,-0.112037037,1,0,0,0,21,21,52,1,wagon,images/br_wagon.png,images/cb_wagon.png,0,,,,,,,,,,,,,,,,,,,,,,
,,,,,,2023-09-27_20h52.27.941,vbt_B2_day3,2022.2.4,Win32,59.13310863,55978,,,,,,down,0,0.599,,0.035185185,-0.114814815,1,0,0,0,22,22,65,1,parel,images/br_parel.png,images/cb_parel.png,0,,,,,,,,,,,,,,,,,,,,,,
,,,,,,2023-09-27_20h52.27.941,vbt_B2_day3,2022.2.4,Win32,59.13310863,55978,,,,,,down,0,2.7681,,0.015740741,-0.147222222,1,0,0,0,23,23,44,1,flits,images/br_flits.png,images/cb_flits.png,0,,,,,,,,,,,,,,,,,,,,,,
,,,,,,2023-09-27_20h52.27.941,vbt_B2_day3,2022.2.4,Win32,59.13310863,55978,,,,,,down,0,0.8826,,0.018518519,-0.149074074,1,0,0,0,24,24,78,1,leren,images/br_leren.png,images/cb_leren.png,0,,,,,,,,,,,,,,,,,,,,,,
,,,,,,2023-09-27_20h52.27.941,vbt_B2_day3,2022.2.4,Win32,59.13310863,55978,,,,,,down,0,3.7192,,0.018518519,-0.149074074,1,0,0,0,25,25,22,1,stof,images/br_stof.png,images/cb_stof.png,1,stof,,,,,,,,,,,,,,,,,,,,,
,,,,,,2023-09-27_20h52.27.941,vbt_B2_day3,2022.2.4,Win32,59.13310863,55978,,,,,,down,0,0.7666,,0.060185185,-0.062037037,1,0,0,0,26,26,7,1,geld,images/br_geld.png,images/cb_geld.png,0,,,,,,,,,,,,,,,,,,,,,,
,,,,,,2023-09-27_20h52.27.941,vbt_B2_day3,2022.2.4,Win32,59.13310863,55978,,,,,,down,0,4.2614,,0.013888889,-0.093518519,1,0,0,0,27,27,14,1,rijp,images/br_rijp.png,images/cb_rijp.png,0,,,,,,,,,,,,,,,,,,,,,,
,,,,,,2023-09-27_20h52.27.941,vbt_B2_day3,2022.2.4,Win32,59.13310863,55978,,,,,,down,0,7.337,,0.000925926,-0.137962963,1,0,0,0,28,28,182,1,bijkomen,images/br_bijkomen.png,images/cb_bijkomen.png,1,bijkomen,,,,,,,,,,,,,,,,,,,,,
,,,,,,2023-09-27_20h52.27.941,vbt_B2_day3,2022.2.4,Win32,59.13310863,55978,,,,,,down,0,0.3555,,0.000925926,-0.137962963,1,0,0,0,29,29,42,1,bleek,images/br_bleek.png,images/cb_bleek.png,0,,,,,,,,,,,,,,,,,,,,,,
,,,,,,2023-09-27_20h52.27.941,vbt_B2_day3,2022.2.4,Win32,59.13310863,55978,,,,,,down,0,1.8577,,0.000925926,-0.137962963,1,0,0,0,30,30,69,1,waken,images/br_waken.png,images/cb_waken.png,0,,,,,,,,,,,,,,,,,,,,,,
,,,,,,2023-09-27_20h52.27.941,vbt_B2_day3,2022.2.4,Win32,59.13310863,55978,,,,,,down,0,2.5158,,0.000925926,-0.137962963,1,0,0,0,31,31,106,1,zingen,images/br_zingen.png,images/cb_zingen.png,0,,,,,,,,,,,,,,,,,,,,,,
,,,,,,2023-09-27_20h52.27.941,vbt_B2_day3,2022.2.4,Win32,59.13310863,55978,,,,,,down,0,4.1186,,0.000925926,-0.137962963,1,0,0,0,32,32,16,1,ziek,images/br_ziek.png,images/cb_ziek.png,0,,,,,,,,,,,,,,,,,,,,,,
,,,,,,2023-09-27_20h52.27.941,vbt_B2_day3,2022.2.4,Win32,59.13310863,55978,,,,,,down,0,4.154,,0.000925926,-0.137962963,1,0,0,0,33,33,125,1,aanzien,images/br_aanzien.png,images/cb_aanzien.png,0,,,,,,,,,,,,,,,,,,,,,,
,,,,,,2023-09-27_20h52.27.941,vbt_B2_day3,2022.2.4,Win32,59.13310863,55978,,,,,,down,0,3.2358,,0.036111111,-0.130555556,1,0,0,0,34,34,129,1,verhaal,images/br_verhaal.png,images/cb_verhaal.png,0,,,,,,,,,,,,,,,,,,,,,,
,,,,,,2023-09-27_20h52.27.941,vbt_B2_day3,2022.2.4,Win32,59.13310863,55978,,,,,,down,0,0.4855,,0.036111111,-0.130555556,1,0,0,0,35,35,36,1,vuur,images/br_vuur.png,images/cb_vuur.png,0,,,,,,,,,,,,,,,,,,,,,,
,,,,,,2023-09-27_20h52.27.941,vbt_B2_day3,2022.2.4,Win32,59.13310863,55978,,,,,,down,0,2.8736,,0.036111111,-0.133333333,1,0,0,0,36,36,105,1,wijlen,images/br_wijlen.png,images/cb_wijlen.png,0,,,,,,,,,,,,,,,,,,,,,,
,,,,,,2023-09-27_20h52.27.941,vbt_B2_day3,2022.2.4,Win32,59.13310863,55978,,,,,,down,0,0.4253,,0.040740741,-0.142592593,1,0,0,0,37,37,0,1,slak,images/br_slak.png,images/cb_slak.png,0,,,,,,,,,,,,,,,,,,,,,,
,,,,,,2023-09-27_20h52.27.941,vbt_B2_day3,2022.2.4,Win32,59.13310863,55978,,,,,,down,0,5.9566,,0.047222222,-0.119444444,1,0,0,0,38,38,15,1,soda,images/br_soda.png,images/cb_soda.png,0,,,,,,,,,,,,,,,,,,,,,,
,,,,,,2023-09-27_20h52.27.941,vbt_B2_day3,2022.2.4,Win32,59.13310863,55978,,,,,,down,0,1.8539,,0.048148148,-0.122222222,1,0,0,0,39,39,110,1,zuster,images/br_zuster.png,images/cb_zuster.png,0,,,,,,,,,,,,,,,,,,,,,,
,,,,,,2023-09-27_20h52.27.941,vbt_B2_day3,2022.2.4,Win32,59.13310863,55978,,,,,,down,0,0.919,,0.048148148,-0.122222222,1,0,0,0,40,40,112,1,lukken,images/br_lukken.png,images/cb_lukken.png,0,,,,,,,,,,,,,,,,,,,,,,
,,,,,,2023-09-27_20h52.27.941,vbt_B2_day3,2022.2.4,Win32,59.13310863,55978,,,,,,down,0,1.3392,,0.048148148,-0.122222222,1,0,0,0,41,41,64,1,wegen,images/br_wegen.png,images/cb_wegen.png,0,,,,,,,,,,,,,,,,,,,,,,
,,,,,,2023-09-27_20h52.27.941,vbt_B2_day3,2022.2.4,Win32,59.13310863,55978,,,,,,down,0,7.4838,,0.048148148,-0.121296296,1,0,0,0,42,42,143,1,hechten,images/br_hechten.png,images/cb_hechten.png,1,hechten,,,,,,,,,,,,,,,,,,,,,
,,,,,,2023-09-27_20h52.27.941,vbt_B2_day3,2022.2.4,Win32,59.13310863,55978,,,,,,down,0,2.3086,,0.048148148,-0.121296296,1,0,0,0,43,43,156,1,rechten,images/br_rechten.png,images/cb_rechten.png,0,,,,,,,,,,,,,,,,,,,,,,
,,,,,,2023-09-27_20h52.27.941,vbt_B2_day3,2022.2.4,Win32,59.13310863,55978,,,,,,down,0,2.2858,,0.048148148,-0.121296296,1,0,0,0,44,44,181,1,toegeven,images/br_toegeven.png,images/cb_toegeven.png,1,,,,,,,,,,,,,,,,,,,,,,
,,,,,,2023-09-27_20h52.27.941,vbt_B2_day3,2022.2.4,Win32,59.13310863,55978,,,,,,down,0,3.2691,,0.048148148,-0.121296296,1,0,0,0,45,45,46,1,jagen,images/br_jagen.png,images/cb_jagen.png,0,,,,,,,,,,,,,,,,,,,,,,
,,,,,,2023-09-27_20h52.27.941,vbt_B2_day3,2022.2.4,Win32,59.13310863,55978,,,,,,down,0,6.2051,,0.048148148,-0.121296296,1,0,0,0,46,46,63,1,flirt,images/br_flirt.png,images/cb_flirt.png,1,,,,,,,,,,,,,,,,,,,,,,
,,,,,,2023-09-27_20h52.27.941,vbt_B2_day3,2022.2.4,Win32,59.13310863,55978,,,,,,down,0,6.5732,,0.048148148,-0.121296296,1,0,0,0,47,47,126,1,kasteel,images/br_kasteel.png,images/cb_kasteel.png,0,,,,,,,,,,,,,,,,,,,,,,
,,,,,,2023-09-27_20h52.27.941,vbt_B2_day3,2022.2.4,Win32,59.13310863,55978,,,,,,down,0,5.0023,,0.032407407,-0.15,1,0,0,0,48,48,141,1,knielen,images/br_knielen.png,images/cb_knielen.png,1,knielen,,,,,,,,,,,,,,,,,,,,,
,,,,,,2023-09-27_20h52.27.941,vbt_B2_day3,2022.2.4,Win32,59.13310863,55978,,,,,,down,0,1.2062,,0.032407407,-0.15,1,0,0,0,49,49,97,1,loyaal,images/br_loyaal.png,images/cb_loyaal.png,0,,,,,,,,,,,,,,,,,,,,,,
,,,,,,2023-09-27_20h52.27.941,vbt_B2_day3,2022.2.4,Win32,59.13310863,55978,,,,,,down,0,6.7172,,0.032407407,-0.15,1,0,0,0,50,50,20,1,site,images/br_site.png,images/cb_site.png,1,site,,,,,,,,,,,,,,,,,,,,,
,,,,,,2023-09-27_20h52.27.941,vbt_B2_day3,2022.2.4,Win32,59.13310863,55978,,,,,,down,0,7.2105,,0.032407407,-0.15,1,0,0,0,51,51,178,1,huisdier,images/br_huisdier.png,images/cb_huisdier.png,0,,,,,,,,,,,,,,,,,,,,,,
,,,,,,2023-09-27_20h52.27.941,vbt_B2_day3,2022.2.4,Win32,59.13310863,55978,,,,,,down,0,2.5838,,0.032407407,-0.15,1,0,0,0,52,52,144,1,eetlust,images/br_eetlust.png,images/cb_eetlust.png,0,,,,,,,,,,,,,,,,,,,,,,
,,,,,,2023-09-27_20h52.27.941,vbt_B2_day3,2022.2.4,Win32,59.13310863,55978,,,,,,down,0,5.5918,,0.032407407,-0.15,1,0,0,0,53,53,163,1,schuilen,images/br_schuilen.png,images/cb_schuilen.png,0,,,,,,,,,,,,,,,,,,,,,,
,,,,,,2023-09-27_20h52.27.941,vbt_B2_day3,2022.2.4,Win32,59.13310863,55978,,,,,,down,0,4.1847,,0.032407407,-0.15,1,0,0,0,54,54,118,1,vinger,images/br_vinger.png,images/cb_vinger.png,0,,,,,,,,,,,,,,,,,,,,,,
,,,,,,2023-09-27_20h52.27.941,vbt_B2_day3,2022.2.4,Win32,59.13310863,55978,,,,,,down,0,1.3683,,0.032407407,-0.15,1,0,0,0,55,55,34,1,vorm,images/br_vorm.png,images/cb_vorm.png,0,,,,,,,,,,,,,,,,,,,,,,
,,,,,,2023-09-27_20h52.27.941,vbt_B2_day3,2022.2.4,Win32,59.13310863,55978,,,,,,down,0,1.0686,,0.032407407,-0.15,1,0,0,0,56,56,43,1,klauw,images/br_klauw.png,images/cb_klauw.png,0,,,,,,,,,,,,,,,,,,,,,,
,,,,,,2023-09-27_20h52.27.941,vbt_B2_day3,2022.2.4,Win32,59.13310863,55978,,,,,,down,0,3.6346,,0.032407407,-0.15,1,0,0,0,57,57,103,1,joggen,images/br_joggen.png,images/cb_joggen.png,1,joggen,,,,,,,,,,,,,,,,,,,,,
,,,,,,2023-09-27_20h52.27.941,vbt_B2_day3,2022.2.4,Win32,59.13310863,55978,,,,,,down,0,2.6513,,0.032407407,-0.15,1,0,0,0,58,58,172,1,weigeren,images/br_weigeren.png,images/cb_weigeren.png,0,,,,,,,,,,,,,,,,,,,,,,
,,,,,,2023-09-27_20h52.27.941,vbt_B2_day3,2022.2.4,Win32,59.13310863,55978,,,,,,down,0,2.1508,,0.032407407,-0.15,1,0,0,0,59,59,84,1,lokken,images/br_lokken.png,images/cb_lokken.png,0,,,,,,,,,,,,,,,,,,,,,,
,,,,,,2023-09-27_20h52.27.941,vbt_B2_day3,2022.2.4,Win32,59.13310863,55978,,,,,,down,0,1.4018,,0.032407407,-0.15,1,0,0,0,60,60,169,1,oprotten,images/br_oprotten.png,images/cb_oprotten.png,0,,,,,,,,,,,,,,,,,,,,,,
,,,,,,2023-09-27_20h52.27.941,vbt_B2_day3,2022.2.4,Win32,59.13310863,55978,,,,,,down,0,4.1678,,0.032407407,-0.15,1,0,0,0,61,61,30,1,uien,images/br_uien.png,images/cb_uien.png,0,,,,,,,,,,,,,,,,,,,,,,
,,,,,,2023-09-27_20h52.27.941,vbt_B2_day3,2022.2.4,Win32,59.13310863,55978,,,,,,down,0,0.6182,,0.032407407,-0.15,1,0,0,0,62,62,32,1,palm,images/br_palm.png,images/cb_palm.png,0,,,,,,,,,,,,,,,,,,,,,,
,,,,,,2023-09-27_20h52.27.941,vbt_B2_day3,2022.2.4,Win32,59.13310863,55978,,,,,,down,0,7.3362,,0.032407407,-0.15,1,0,0,0,63,63,60,1,jasje,images/br_jasje.png,images/cb_jasje.png,1,jasje,,,,,,,,,,,,,,,,,,,,,
,,,,,,2023-09-27_20h52.27.941,vbt_B2_day3,2022.2.4,Win32,59.13310863,55978,,,,,,down,0,3.2418,,0.032407407,-0.15,1,0,0,0,64,64,134,1,geliefd,images/br_geliefd.png,images/cb_geliefd.png,0,,,,,,,,,,,,,,,,,,,,,,
,,,,,,2023-09-27_20h52.27.941,vbt_B2_day3,2022.2.4,Win32,59.13310863,55978,,,,,,down,0,3.1176,,0.032407407,-0.15,1,0,0,0,65,65,82,1,muziek,images/br_muziek.png,images/cb_muziek.png,0,,,,,,,,,,,,,,,,,,,,,,
,,,,,,2023-09-27_20h52.27.941,vbt_B2_day3,2022.2.4,Win32,59.13310863,55978,,,,,,down,0,1.4013,,0.032407407,-0.15,1,0,0,0,66,66,27,1,dans,images/br_dans.png,images/cb_dans.png,0,,,,,,,,,,,,,,,,,,,,,,
,,,,,,2023-09-27_20h52.27.941,vbt_B2_day3,2022.2.4,Win32,59.13310863,55978,,,,,,down,0,2.1176,,0.032407407,-0.15,1,0,0,0,67,67,76,1,afval,images/br_afval.png,images/cb_afval.png,0,,,,,,,,,,,,,,,,,,,,,,
,,,,,,2023-09-27_20h52.27.941,vbt_B2_day3,2022.2.4,Win32,59.13310863,55978,,,,,,down,0,1.9845,,0.032407407,-0.15,1,0,0,0,68,68,9,1,hier,images/br_hier.png,images/cb_hier.png,0,,,,,,,,,,,,,,,,,,,,,,
,,,,,,2023-09-27_20h52.27.941,vbt_B2_day3,2022.2.4,Win32,59.13310863,55978,,,,,,down,0,7.4871,,0.032407407,-0.15,1,0,0,0,69,69,100,1,geduld,images/br_geduld.png,images/cb_geduld.png,1,geduld,,,,,,,,,,,,,,,,,,,,,
,,,,,,2023-09-27_20h52.27.941,vbt_B2_day3,2022.2.4,Win32,59.13310863,55978,,,,,,down,0,1.0015,,0.032407407,-0.15,1,0,0,0,70,70,29,1,baas,images/br_baas.png,images/cb_baas.png,0,,,,,,,,,,,,,,,,,,,,,,
,,,,,,2023-09-27_20h52.27.941,vbt_B2_day3,2022.2.4,Win32,59.13310863,55978,,,,,,down,0,2.31,,0.032407407,-0.15,1,0,0,0,71,71,81,1,dubbel,images/br_dubbel.png,images/cb_dubbel.png,0,,,,,,,,,,,,,,,,,,,,,,
,,,,,,2023-09-27_20h52.27.941,vbt_B2_day3,2022.2.4,Win32,59.13310863,55978,,,,,,down,0,1.0676,,0.032407407,-0.15,1,0,0,0,72,72,114,1,vullen,images/br_vullen.png,images/cb_vullen.png,0,,,,,,,,,,,,,,,,,,,,,,
,,,,,,2023-09-27_20h52.27.941,vbt_B2_day3,2022.2.4,Win32,59.13310863,55978,,,,,,down,0,1.951,,0.032407407,-0.15,1,0,0,0,73,73,188,1,strekken,images/br_strekken.png,images/cb_strekken.png,0,,,,,,,,,,,,,,,,,,,,,,
,,,,,,2023-09-27_20h52.27.941,vbt_B2_day3,2022.2.4,Win32,59.13310863,55978,,,,,,down,0,1.9246,,0.032407407,-0.15,1,0,0,0,74,74,40,1,schep,images/br_schep.png,images/cb_schep.png,0,,,,,,,,,,,,,,,,,,,,,,
,,,,,,2023-09-27_20h52.27.941,vbt_B2_day3,2022.2.4,Win32,59.13310863,55978,,,,,,down,0,4.7689,,0.032407407,-0.15,1,0,0,0,75,75,62,1,knaap,images/br_knaap.png,images/cb_knaap.png,1,knaap,,,,,,,,,,,,,,,,,,,,,
,,,,,,2023-09-27_20h52.27.941,vbt_B2_day3,2022.2.4,Win32,59.13310863,55978,,,,,,down,0,5.6526,,0.032407407,-0.15,1,0,0,0,76,76,140,1,blijven,images/br_blijven.png,images/cb_blijven.png,1,blijven,,,,,,,,,,,,,,,,,,,,,
,,,,,,2023-09-27_20h52.27.941,vbt_B2_day3,2022.2.4,Win32,59.13310863,55978,,,,,,down,0,4.9511,,0.032407407,-0.15,1,0,0,0,77,77,167,1,eenhoorn,images/br_eenhoorn.png,images/cb_eenhoorn.png,0,,,,,,,,,,,,,,,,,,,,,,
,,,,,,2023-09-27_20h52.27.941,vbt_B2_day3,2022.2.4,Win32,59.13310863,55978,,,,,,down,0,4.6134,,0.032407407,-0.15,1,0,0,0,78,78,23,1,zout,images/br_zout.png,images/cb_zout.png,1,zout,,,,,,,,,,,,,,,,,,,,,
,,,,,,2023-09-27_20h52.27.941,vbt_B2_day3,2022.2.4,Win32,59.13310863,55978,,,,,,down,0,1.3094,,0.032407407,-0.15,1,0,0,0,79,79,87,1,toeval,images/br_toeval.png,images/cb_toeval.png,0,,,,,,,,,,,,,,,,,,,,,,
,,,,,,2023-09-27_20h52.27.941,vbt_B2_day3,2022.2.4,Win32,59.13310863,55978,,,,,,down,0,5.5405,,0.032407407,-0.15,1,0,0,0,80,80,86,1,woning,images/br_woning.png,images/cb_woning.png,0,,,,,,,,,,,,,,,,,,,,,,
,,,,,,2023-09-27_20h52.27.941,vbt_B2_day3,2022.2.4,Win32,59.13310863,55978,,,,,,down,0,6.3523,,0.032407407,-0.15,1,0,0,0,81,81,171,1,aarzelen,images/br_aarzelen.png,images/cb_aarzelen.png,0,,,,,,,,,,,,,,,,,,,,,,
,,,,,,2023-09-27_20h52.27.941,vbt_B2_day3,2022.2.4,Win32,59.13310863,55978,,,,,,down,0,3.9217,,0.032407407,-0.15,1,0,0,0,82,82,155,1,gerucht,images/br_gerucht.png,images/cb_gerucht.png,0,,,,,,,,,,,,,,,,,,,,,,
,,,,,,2023-09-27_20h52.27.941,vbt_B2_day3,2022.2.4,Win32,59.13310863,55978,,,,,,down,0,1.6186,,0.032407407,-0.15,1,0,0,0,83,83,74,1,graaf,images/br_graaf.png,images/cb_graaf.png,0,,,,,,,,,,,,,,,,,,,,,,
,,,,,,2023-09-27_20h52.27.941,vbt_B2_day3,2022.2.4,Win32,59.13310863,55978,,,,,,down,0,1.871,,0.032407407,-0.15,1,0,0,0,84,84,122,1,waarvan,images/br_waarvan.png,images/cb_waarvan.png,0,,,,,,,,,,,,,,,,,,,,,,
,,,,,,2023-09-27_20h52.27.941,vbt_B2_day3,2022.2.4,Win32,59.13310863,55978,,,,,,down,0,1.4412,,0.032407407,-0.15,1,0,0,0,85,85,192,1,schaamte,images/br_schaamte.png,images/cb_schaamte.png,0,,,,,,,,,,,,,,,,,,,,,,
,,,,,,2023-09-27_20h52.27.941,vbt_B2_day3,2022.2.4,Win32,59.13310863,55978,,,,,,down,0,1.8232,,0.032407407,-0.15,1,0,0,0,86,86,93,1,waarop,images/br_waarop.png,images/cb_waarop.png,0,,,,,,,,,,,,,,,,,,,,,,
,,,,,,2023-09-27_20h52.27.941,vbt_B2_day3,2022.2.4,Win32,59.13310863,55978,,,,,,down,0,1.1949,,0.032407407,-0.15,1,0,0,0,87,87,96,1,slagen,images/br_slagen.png,images/cb_slagen.png,0,,,,,,,,,,,,,,,,,,,,,,
,,,,,,2023-09-27_20h52.27.941,vbt_B2_day3,2022.2.4,Win32,59.13310863,55978,,,,,,down,0,1.3636,,0.032407407,-0.15,1,0,0,0,88,88,59,1,kring,images/br_kring.png,images/cb_kring.png,0,,,,,,,,,,,,,,,,,,,,,,
,,,,,,2023-09-27_20h52.27.941,vbt_B2_day3,2022.2.4,Win32,59.13310863,55978,,,,,,down,0,0.949,,0.032407407,-0.15,1,0,0,0,89,89,37,1,mijn,images/br_mijn.png,images/cb_mijn.png,0,,,,,,,,,,,,,,,,,,,,,,
,,,,,,2023-09-27_20h52.27.941,vbt_B2_day3,2022.2.4,Win32,59.13310863,55978,,,,,,down,0,0.6783,,0.032407407,-0.15,1,0,0,0,90,90,4,1,moes,images/br_moes.png,images/cb_moes.png,0,,,,,,,,,,,,,,,,,,,,,,
,,,,,,2023-09-27_20h52.27.941,vbt_B2_day3,2022.2.4,Win32,59.13310863,55978,,,,,,down,0,3.5499,,0.032407407,-0.15,1,0,0,0,91,91,152,1,afnemen,images/br_afnemen.png,images/cb_afnemen.png,0,,,,,,,,,,,,,,,,,,,,,,
,,,,,,2023-09-27_20h52.27.941,vbt_B2_day3,2022.2.4,Win32,59.13310863,55978,,,,,,down,0,11.9419,,0.032407407,-0.15,1,0,0,0,92,92,189,1,aanraden,images/br_aanraden.png,images/cb_aanraden.png,0,,,,,,,,,,,,,,,,,,,,,,
,,,,,,2023-09-27_20h52.27.941,vbt_B2_day3,2022.2.4,Win32,59.13310863,55978,,,,,,down,0,2.5338,,0.032407407,-0.15,1,0,0,0,93,93,132,1,grappen,images/br_grappen.png,images/cb_grappen.png,0,,,,,,,,,,,,,,,,,,,,,,
,,,,,,2023-09-27_20h52.27.941,vbt_B2_day3,2022.2.4,Win32,59.13310863,55978,,,,,,down,0,1.1522,,0.032407407,-0.15,1,0,0,0,94,94,19,1,geit,images/br_geit.png,images/cb_geit.png,0,,,,,,,,,,,,,,,,,,,,,,
,,,,,,2023-09-27_20h52.27.941,vbt_B2_day3,2022.2.4,Win32,59.13310863,55978,,,,,,down,0,2.8673,,0.032407407,-0.15,1,0,0,0,95,95,170,1,schatten,images/br_schatten.png,images/cb_schatten.png,0,,,,,,,,,,,,,,,,,,,,,,
,,,,,,2023-09-27_20h52.27.941,vbt_B2_day3,2022.2.4,Win32,59.13310863,55978,,,,,,down,0,3.1006,,0.032407407,-0.15,1,0,0,0,96,96,121,1,twijfel,images/br_twijfel.png,images/cb_twijfel.png,0,,,,,,,,,,,,,,,,,,,,,,
,,,,,,2023-09-27_20h52.27.941,vbt_B2_day3,2022.2.4,Win32,59.13310863,55978,,,,,,down,0,1.5925,,0.124074074,0.164814815,1,0,0,0,97,97,67,1,zwart,images/br_zwart.png,images/cb_zwart.png,0,,,,,,,,,,,,,,,,,,,,,,
,,,,,,2023-09-27_20h52.27.941,vbt_B2_day3,2022.2.4,Win32,59.13310863,55978,,,,,,down,0,3.3389,,0.124074074,0.164814815,1,0,0,0,98,98,45,1,piste,images/br_piste.png,images/cb_piste.png,0,,,,,,,,,,,,,,,,,,,,,,
,,,,,,2023-09-27_20h52.27.941,vbt_B2_day3,2022.2.4,Win32,59.13310863,55978,,,,,,down,0,1.1378,,0.124074074,0.164814815,1,0,0,0,99,99,25,1,plek,images/br_plek.png,images/cb_plek.png,0,,,,,,,,,,,,,,,,,,,,,,
,,,,,,2023-09-27_20h52.27.941,vbt_B2_day3,2022.2.4,Win32,59.13310863,55978,,,,,,down,0,2.2513,,0.124074074,0.164814815,1,0,0,0,100,100,146,1,opkomen,images/br_opkomen.png,images/cb_opkomen.png,0,,,,,,,,,,,,,,,,,,,,,,
,,,,,,2023-09-27_20h52.27.941,vbt_B2_day3,2022.2.4,Win32,59.13310863,55978,,,,,,down,0,0.3894,,0.124074074,0.164814815,1,0,0,0,101,101,48,1,steel,images/br_steel.png,images/cb_steel.png,0,,,,,,,,,,,,,,,,,,,,,,
,,,,,,2023-09-27_20h52.27.941,vbt_B2_day3,2022.2.4,Win32,59.13310863,55978,,,,,,down,0,6.8238,,0.124074074,0.164814815,1,0,0,0,102,102,179,1,woestijn,images/br_woestijn.png,images/cb_woestijn.png,0,,,,,,,,,,,,,,,,,,,,,,
,,,,,,2023-09-27_20h52.27.941,vbt_B2_day3,2022.2.4,Win32,59.13310863,55978,,,,,,down,0,0.0368,,0.124074074,0.164814815,1,0,0,0,103,103,73,1,volop,images/br_volop.png,images/cb_volop.png,0,,,,,,,,,,,,,,,,,,,,,,
,,,,,,2023-09-27_20h52.27.941,vbt_B2_day3,2022.2.4,Win32,59.13310863,55978,,,,,,down,0,0.3675,,0.124074074,0.164814815,1,0,0,0,104,104,5,1,blad,images/br_blad.png,images/cb_blad.png,0,,,,,,,,,,,,,,,,,,,,,,
,,,,,,2023-09-27_20h52.27.941,vbt_B2_day3,2022.2.4,Win32,59.13310863,55978,,,,,,down,0,4.8267,,0.124074074,0.164814815,1,0,0,0,105,105,168,1,bisschop,images/br_bisschop.png,images/cb_bisschop.png,0,,,,,,,,,,,,,,,,,,,,,,
,,,,,,2023-09-27_20h52.27.941,vbt_B2_day3,2022.2.4,Win32,59.13310863,55978,,,,,,down,0,0.752,,0.124074074,0.164814815,1,0,0,0,106,106,39,1,laag,images/br_laag.png,images/cb_laag.png,0,,,,,,,,,,,,,,,,,,,,,,
,,,,,,2023-09-27_20h52.27.941,vbt_B2_day3,2022.2.4,Win32,59.13310863,55978,,,,,,down,0,6.9829,,0.124074074,0.164814815,1,0,0,0,107,107,193,1,weeshuis,images/br_weeshuis.png,images/cb_weeshuis.png,0,,,,,,,,,,,,,,,,,,,,,,
,,,,,,2023-09-27_20h52.27.941,vbt_B2_day3,2022.2.4,Win32,59.13310863,55978,,,,,,down,0,2.2849,,0.124074074,0.164814815,1,0,0,0,108,108,108,1,excuus,images/br_excuus.png,images/cb_excuus.png,0,,,,,,,,,,,,,,,,,,,,,,
,,,,,,2023-09-27_20h52.27.941,vbt_B2_day3,2022.2.4,Win32,59.13310863,55978,,,,,,down,0,4.7354,,0.124074074,0.164814815,1,0,0,0,109,109,176,1,techniek,images/br_techniek.png,images/cb_techniek.png,0,,,,,,,,,,,,,,,,,,,,,,
,,,,,,2023-09-27_20h52.27.941,vbt_B2_day3,2022.2.4,Win32,59.13310863,55978,,,,,,down,0,7.9848,,0.124074074,0.164814815,1,0,0,0,110,110,185,1,mijnheer,images/br_mijnheer.png,images/cb_mijnheer.png,0,,,,,,,,,,,,,,,,,,,,,,
,,,,,,2023-09-27_20h52.27.941,vbt_B2_day3,2022.2.4,Win32,59.13310863,55978,,,,,,down,0,1.389,,0.124074074,0.164814815,1,0,0,0,111,111,148,1,smullen,images/br_smullen.png,images/cb_smullen.png,0,,,,,,,,,,,,,,,,,,,,,,
,,,,,,2023-09-27_20h52.27.941,vbt_B2_day3,2022.2.4,Win32,59.13310863,55978,,,,,,down,0,6.2733,,0.124074074,0.164814815,1,0,0,0,112,112,160,1,daarheen,images/br_daarheen.png,images/cb_daarheen.png,0,,,,,,,,,,,,,,,,,,,,,,
,,,,,,2023-09-27_20h52.27.941,vbt_B2_day3,2022.2.4,Win32,59.13310863,55978,,,,,,down,0,2.2859,,0.124074074,0.164814815,1,0,0,0,113,113,154,1,aflopen,images/br_aflopen.png,images/cb_aflopen.png,0,,,,,,,,,,,,,,,,,,,,,,
,,,,,,2023-09-27_20h52.27.941,vbt_B2_day3,2022.2.4,Win32,59.13310863,55978,,,,,,down,0,1.6027,,0.124074074,0.164814815,1,0,0,0,114,114,135,1,gedicht,images/br_gedicht.png,images/cb_gedicht.png,0,,,,,,,,,,,,,,,,,,,,,,
,,,,,,2023-09-27_20h52.27.941,vbt_B2_day3,2022.2.4,Win32,59.13310863,55978,,,,,,down,0,2.4177,,0.124074074,0.164814815,1,0,0,0,115,115,111,1,ticket,images/br_ticket.png,images/cb_ticket.png,0,,,,,,,,,,,,,,,,,,,,,,
,,,,,,2023-09-27_20h52.27.941,vbt_B2_day3,2022.2.4,Win32,59.13310863,55978,,,,,,down,0,2.001,,0.124074074,0.164814815,1,0,0,0,116,116,53,1,baron,images/br_baron.png,images/cb_baron.png,0,,,,,,,,,,,,,,,,,,,,,,
,,,,,,2023-09-27_20h52.27.941,vbt_B2_day3,2022.2.4,Win32,59.13310863,55978,,,,,,down,0,3.0411,,0.124074074,0.164814815,1,0,0,0,117,117,21,1,mist,images/br_mist.png,images/cb_mist.png,1,mist,,,,,,,,,,,,,,,,,,,,,
,,,,,,2023-09-27_20h52.27.941,vbt_B2_day3,2022.2.4,Win32,59.13310863,55978,,,,,,down,0,6.1171,,0.094444444,0.091666667,1,0,0,0,118,118,142,1,snuiven,images/br_snuiven.png,images/cb_snuiven.png,1,snuiven,,,,,,,,,,,,,,,,,,,,,
,,,,,,2023-09-27_20h52.27.941,vbt_B2_day3,2022.2.4,Win32,59.13310863,55978,,,,,,down,0,5.3863,,0.094444444,0.091666667,1,0,0,0,119,119,175,1,heengaan,images/br_heengaan.png,images/cb_heengaan.png,0,,,,,,,,,,,,,,,,,,,,,,
,,,,,,2023-09-27_20h52.27.941,vbt_B2_day3,2022.2.4,Win32,59.13310863,55978,,,,,,down,0,12.751,,0.094444444,0.091666667,1,0,0,0,120,120,153,1,vervoer,images/br_vervoer.png,images/cb_vervoer.png,0,,,,,,,,,,,,,,,,,,,,,,
,,,,,,2023-09-27_20h52.27.941,vbt_B2_day3,2022.2.4,Win32,59.13310863,55978,,,,,,down,0,3.8214,,0.256481481,0.436111111,1,0,0,0,121,121,159,1,sufferd,images/br_sufferd.png,images/cb_sufferd.png,0,,,,,,,,,,,,,,,,,,,,,,
,,,,,,2023-09-27_20h52.27.941,vbt_B2_day3,2022.2.4,Win32,59.13310863,55978,,,,,,down,0,2.5089,,-0.07962963,-0.193518519,1,0,0,0,122,122,2,1,jaar,images/br_jaar.png,images/cb_jaar.png,0,,,,,,,,,,,,,,,,,,,,,,
,,,,,,2023-09-27_20h52.27.941,vbt_B2_day3,2022.2.4,Win32,59.13310863,55978,,,,,,down,0,8.6442,,-0.07962963,-0.193518519,1,0,0,0,123,123,88,1,boeien,images/br_boeien.png,images/cb_boeien.png,0,,,,,,,,,,,,,,,,,,,,,,
,,,,,,2023-09-27_20h52.27.941,vbt_B2_day3,2022.2.4,Win32,59.13310863,55978,,,,,,down,0,2.7671,,-0.07962963,-0.193518519,1,0,0,0,124,124,104,1,zweven,images/br_zweven.png,images/cb_zweven.png,0,,,,,,,,,,,,,,,,,,,,,,
,,,,,,2023-09-27_20h52.27.941,vbt_B2_day3,2022.2.4,Win32,59.13310863,55978,,,,,,down,0,3.4457,,-0.07962963,-0.193518519,1,0,0,0,125,125,117,1,kennis,images/br_kennis.png,images/cb_kennis.png,0,,,,,,,,,,,,,,,,,,,,,,
,,,,,,2023-09-27_20h52.27.941,vbt_B2_day3,2022.2.4,Win32,59.13310863,55978,,,,,,down,0,7.1191,,-0.07962963,-0.193518519,1,0,0,0,126,126,89,1,slapen,images/br_slapen.png,images/cb_slapen.png,0,,,,,,,,,,,,,,,,,,,,,,
,,,,,,2023-09-27_20h52.27.941,vbt_B2_day3,2022.2.4,Win32,59.13310863,55978,,,,,,down,0,1.5582,,-0.07962963,-0.193518519,1,0,0,0,127,127,116,1,besmet,images/br_besmet.png,images/cb_besmet.png,0,,,,,,,,,,,,,,,,,,,,,,
,,,,,,2023-09-27_20h52.27.941,vbt_B2_day3,2022.2.4,Win32,59.13310863,55978,,,,,,down,0,2.389,,-0.07962963,-0.193518519,1,0,0,0,128,128,91,1,gezond,images/br_gezond.png,images/cb_gezond.png,0,,,,,,,,,,,,,,,,,,,,,,
,,,,,,2023-09-27_20h52.27.941,vbt_B2_day3,2022.2.4,Win32,59.13310863,55978,,,,,,down,0,3.4086,,-0.07962963,-0.193518519,1,0,0,0,129,129,131,1,opzicht,images/br_opzicht.png,images/cb_opzicht.png,0,,,,,,,,,,,,,,,,,,,,,,
,,,,,,2023-09-27_20h52.27.941,vbt_B2_day3,2022.2.4,Win32,59.13310863,55978,,,,,,down,0,0.4405,,-0.07962963,-0.193518519,1,0,0,0,130,130,13,1,kaal,images/br_kaal.png,images/cb_kaal.png,0,,,,,,,,,,,,,,,,,,,,,,
,,,,,,2023-09-27_20h52.27.941,vbt_B2_day3,2022.2.4,Win32,59.13310863,55978,,,,,,down,0,1.9659,,-0.07962963,-0.193518519,1,0,0,0,131,131,195,1,middelen,images/br_middelen.png,images/cb_middelen.png,0,,,,,,,,,,,,,,,,,,,,,,
,,,,,,2023-09-27_20h52.27.941,vbt_B2_day3,2022.2.4,Win32,59.13310863,55978,,,,,,down,0,1.6338,,-0.07962963,-0.193518519,1,0,0,0,132,132,199,1,beseffen,images/br_beseffen.png,images/cb_beseffen.png,0,,,,,,,,,,,,,,,,,,,,,,
,,,,,,2023-09-27_20h52.27.941,vbt_B2_day3,2022.2.4,Win32,59.13310863,55978,,,,,,down,0,2.3282,,-0.07962963,-0.193518519,1,0,0,0,133,133,95,1,vreten,images/br_vreten.png,images/cb_vreten.png,0,,,,,,,,,,,,,,,,,,,,,,
,,,,,,2023-09-27_20h52.27.941,vbt_B2_day3,2022.2.4,Win32,59.13310863,55978,,,,,,down,0,11.3165,,-0.059259259,-0.165740741,1,0,0,0,134,134,94,1,oceaan,images/br_oceaan.png,images/cb_oceaan.png,0,,,,,,,,,,,,,,,,,,,,,,
,,,,,,2023-09-27_20h52.27.941,vbt_B2_day3,2022.2.4,Win32,59.13310863,55978,,,,,,down,0,0.4524,,-0.059259259,-0.165740741,1,0,0,0,135,135,17,1,taal,images/br_taal.png,images/cb_taal.png,0,,,,,,,,,,,,,,,,,,,,,,
,,,,,,2023-09-27_20h52.27.941,vbt_B2_day3,2022.2.4,Win32,59.13310863,55978,,,,,,down,0,0.6578,,-0.059259259,-0.165740741,1,0,0,0,136,136,6,1,diep,images/br_diep.png,images/cb_diep.png,0,,,,,,,,,,,,,,,,,,,,,,
,,,,,,2023-09-27_20h52.27.941,vbt_B2_day3,2022.2.4,Win32,59.13310863,55978,,,,,,down,0,4.1173,,-0.05462963,-0.160185185,1,0,0,0,137,137,113,1,koppen,images/br_koppen.png,images/cb_koppen.png,0,,,,,,,,,,,,,,,,,,,,,,
,,,,,,2023-09-27_20h52.27.941,vbt_B2_day3,2022.2.4,Win32,59.13310863,55978,,,,,,down,0,13.3664,,-0.05462963,-0.160185185,1,0,0,0,138,138,41,1,maken,images/br_maken.png,images/cb_maken.png,0,,,,,,,,,,,,,,,,,,,,,,
,,,,,,2023-09-27_20h52.27.941,vbt_B2_day3,2022.2.4,Win32,59.13310863,55978,,,,,,down,0,1.5029,,-0.05462963,-0.160185185,1,0,0,0,139,139,71,1,bever,images/br_bever.png,images/cb_bever.png,0,,,,,,,,,,,,,,,,,,,,,,
,,,,,,2023-09-27_20h52.27.941,vbt_B2_day3,2022.2.4,Win32,59.13310863,55978,,,,,,down,0,0.2961,,-0.05462963,-0.160185185,1,0,0,0,140,140,8,1,knie,images/br_knie.png,images/cb_knie.png,0,,,,,,,,,,,,,,,,,,,,,,
,,,,,,2023-09-27_20h52.27.941,vbt_B2_day3,2022.2.4,Win32,59.13310863,55978,,,,,,down,0,3.1336,,-0.05462963,-0.160185185,1,0,0,0,141,141,149,1,redding,images/br_redding.png,images/cb_redding.png,0,,,,,,,,,,,,,,,,,,,,,,
,,,,,,2023-09-27_20h52.27.941,vbt_B2_day3,2022.2.4,Win32,59.13310863,55978,,,,,,down,0,0.307,,-0.05462963,-0.160185185,1,0,0,0,142,142,57,1,steek,images/br_steek.png,images/cb_steek.png,0,,,,,,,,,,,,,,,,,,,,,,
,,,,,,2023-09-27_20h52.27.941,vbt_B2_day3,2022.2.4,Win32,59.13310863,55978,,,,,,down,0,2.3326,,-0.05462963,-0.160185185,1,0,0,0,143,143,83,1,mening,images/br_mening.png,images/cb_mening.png,0,,,,,,,,,,,,,,,,,,,,,,
,,,,,,2023-09-27_20h52.27.941,vbt_B2_day3,2022.2.4,Win32,59.13310863,55978,,,,,,down,0,4.2001,,-0.05462963,-0.160185185,1,0,0,0,144,144,190,1,goedkoop,images/br_goedkoop.png,images/cb_goedkoop.png,0,,,,,,,,,,,,,,,,,,,,,,
,,,,,,2023-09-27_20h52.27.941,vbt_B2_day3,2022.2.4,Win32,59.13310863,55978,,,,,,down,0,11.8915,,-0.05462963,-0.160185185,1,0,0,0,145,145,38,1,baai,images/br_baai.png,images/cb_baai.png,0,,,,,,,,,,,,,,,,,,,,,,
,,,,,,2023-09-27_20h52.27.941,vbt_B2_day3,2022.2.4,Win32,59.13310863,55978,,,,,,down,0,0.4703,,-0.05462963,-0.160185185,1,0,0,0,146,146,109,1,totaal,images/br_totaal.png,images/cb_totaal.png,0,,,,,,,,,,,,,,,,,,,,,,
,,,,,,2023-09-27_20h52.27.941,vbt_B2_day3,2022.2.4,Win32,59.13310863,55978,,,,,,down,0,0.9681,,-0.05462963,-0.160185185,1,0,0,0,147,147,31,1,poes,images/br_poes.png,images/cb_poes.png,0,,,,,,,,,,,,,,,,,,,,,,
,,,,,,2023-09-27_20h52.27.941,vbt_B2_day3,2022.2.4,Win32,59.13310863,55978,,,,,,down,0,1.9836,,-0.05462963,-0.160185185,1,0,0,0,148,148,127,1,doodmoe,images/br_doodmoe.png,images/cb_doodmoe.png,0,,,,,,,,,,,,,,,,,,,,,,
,,,,,,2023-09-27_20h52.27.941,vbt_B2_day3,2022.2.4,Win32,59.13310863,55978,,,,,,down,0,3.0964,,-0.05462963,-0.160185185,1,0,0,0,149,149,162,1,uitdelen,images/br_uitdelen.png,images/cb_uitdelen.png,0,,,,,,,,,,,,,,,,,,,,,,
,,,,,,2023-09-27_20h52.27.941,vbt_B2_day3,2022.2.4,Win32,59.13310863,55978,,,,,,down,0,2.4338,,-0.05462963,-0.160185185,1,0,0,0,150,150,51,1,samen,images/br_samen.png,images/cb_samen.png,0,,,,,,,,,,,,,,,,,,,,,,
,,,,,,2023-09-27_20h52.27.941,vbt_B2_day3,2022.2.4,Win32,59.13310863,55978,,,,,,down,0,0.735,,-0.05462963,-0.160185185,1,0,0,0,151,151,10,1,leek,images/br_leek.png,images/cb_leek.png,0,,,,,,,,,,,,,,,,,,,,,,
,,,,,,2023-09-27_20h52.27.941,vbt_B2_day3,2022.2.4,Win32,59.13310863,55978,,,,,,down,0,0.3668,,-0.05462963,-0.160185185,1,0,0,0,152,152,66,1,lever,images/br_lever.png,images/cb_lever.png,0,,,,,,,,,,,,,,,,,,,,,,
,,,,,,2023-09-27_20h52.27.941,vbt_B2_day3,2022.2.4,Win32,59.13310863,55978,,,,,,down,0,1.5345,,-0.05462963,-0.160185185,1,0,0,0,153,153,56,1,traag,images/br_traag.png,images/cb_traag.png,0,,,,,,,,,,,,,,,,,,,,,,
,,,,,,2023-09-27_20h52.27.941,vbt_B2_day3,2022.2.4,Win32,59.13310863,55978,,,,,,down,0,0.6213,,-0.05462963,-0.160185185,1,0,0,0,154,154,68,1,schat,images/br_schat.png,images/cb_schat.png,0,,,,,,,,,,,,,,,,,,,,,,
,,,,,,2023-09-27_20h52.27.941,vbt_B2_day3,2022.2.4,Win32,59.13310863,55978,,,,,,down,0,2.1144,,-0.05462963,-0.160185185,1,0,0,0,155,155,133,1,seizoen,images/br_seizoen.png,images/cb_seizoen.png,0,,,,,,,,,,,,,,,,,,,,,,
,,,,,,2023-09-27_20h52.27.941,vbt_B2_day3,2022.2.4,Win32,59.13310863,55978,,,,,,down,0,0.9738,,-0.05462963,-0.160185185,1,0,0,0,156,156,49,1,laken,images/br_laken.png,images/cb_laken.png,0,,,,,,,,,,,,,,,,,,,,,,
,,,,,,2023-09-27_20h52.27.941,vbt_B2_day3,2022.2.4,Win32,59.13310863,55978,,,,,,down,0,2.0231,,-0.05462963,-0.160185185,1,0,0,0,157,157,120,1,klimmen,images/br_klimmen.png,images/cb_klimmen.png,0,,,,,,,,,,,,,,,,,,,,,,
,,,,,,2023-09-27_20h52.27.941,vbt_B2_day3,2022.2.4,Win32,59.13310863,55978,,,,,,down,0,2.8232,,-0.052777778,-0.162037037,1,0,0,0,158,158,35,1,lust,images/br_lust.png,images/cb_lust.png,0,,,,,,,,,,,,,,,,,,,,,,
,,,,,,2023-09-27_20h52.27.941,vbt_B2_day3,2022.2.4,Win32,59.13310863,55978,,,,,,down,0,2.7627,,-0.052777778,-0.162037037,1,0,0,0,159,159,165,1,feestdag,images/br_feestdag.png,images/cb_feestdag.png,0,,,,,,,,,,,,,,,,,,,,,,
,,,,,,2023-09-27_20h52.27.941,vbt_B2_day3,2022.2.4,Win32,59.13310863,55978,,,,,,down,0,1.0841,,-0.052777778,-0.162037037,1,0,0,0,160,160,75,1,snoep,images/br_snoep.png,images/cb_snoep.png,0,,,,,,,,,,,,,,,,,,,,,,
,,,,,,2023-09-27_20h52.27.941,vbt_B2_day3,2022.2.4,Win32,59.13310863,55978,,,,,,down,0,5.5297,,-0.052777778,-0.162037037,1,0,0,0,161,161,191,1,opheffen,images/br_opheffen.png,images/cb_opheffen.png,0,,,,,,,,,,,,,,,,,,,,,,
,,,,,,2023-09-27_20h52.27.941,vbt_B2_day3,2022.2.4,Win32,59.13310863,55978,,,,,,down,0,0.21,,-0.052777778,-0.162037037,1,0,0,0,162,162,26,1,leuk,images/br_leuk.png,images/cb_leuk.png,0,,,,,,,,,,,,,,,,,,,,,,
,,,,,,2023-09-27_20h52.27.941,vbt_B2_day3,2022.2.4,Win32,59.13310863,55978,,,,,,down,0,4.1727,,-0.052777778,-0.162037037,1,0,0,0,163,163,157,1,uitlaat,images/br_uitlaat.png,images/cb_uitlaat.png,0,,,,,,,,,,,,,,,,,,,,,,
,,,,,,2023-09-27_20h52.27.941,vbt_B2_day3,2022.2.4,Win32,59.13310863,55978,,,,,,down,0,2.9112,,-0.052777778,-0.162037037,1,0,0,0,164,164,130,1,keihard,images/br_keihard.png,images/cb_keihard.png,0,,,,,,,,,,,,,,,,,,,,,,
,,,,,,2023-09-27_20h52.27.941,vbt_B2_day3,2022.2.4,Win32,59.13310863,55978,,,,,,down,0,1.5218,,-0.052777778,-0.162037037,1,0,0,0,165,165,99,1,koffie,images/br_koffie.png,images/cb_koffie.png,0,,,,,,,,,,,,,,,,,,,,,,
,,,,,,2023-09-27_20h52.27.941,vbt_B2_day3,2022.2.4,Win32,59.13310863,55978,,,,,,down,0,21.5499,,-0.052777778,-0.162037037,1,0,0,0,166,166,198,1,bedoelen,images/br_bedoelen.png,images/cb_bedoelen.png,0,,,,,,,,,,,,,,,,,,,,,,
,,,,,,2023-09-27_20h52.27.941,vbt_B2_day3,2022.2.4,Win32,59.13310863,55978,,,,,,down,0,0.8068,,-0.052777778,-0.162037037,1,0,0,0,167,167,150,1,gegeven,images/br_gegeven.png,images/cb_gegeven.png,0,,,,,,,,,,,,,,,,,,,,,,
,,,,,,2023-09-27_20h52.27.941,vbt_B2_day3,2022.2.4,Win32,59.13310863,55978,,,,,,down,0,4.3244,,-0.058333333,-0.190740741,1,0,0,0,168,168,61,1,groen,images/br_groen.png,images/cb_groen.png,1,groen,,,,,,,,,,,,,,,,,,,,,
,,,,,,2023-09-27_20h52.27.941,vbt_B2_day3,2022.2.4,Win32,59.13310863,55978,,,,,,down,0,3.2334,,-0.058333333,-0.190740741,1,0,0,0,169,169,102,1,legaal,images/br_legaal.png,images/cb_legaal.png,1,legaal,,,,,,,,,,,,,,,,,,,,,
,,,,,,2023-09-27_20h52.27.941,vbt_B2_day3,2022.2.4,Win32,59.13310863,55978,,,,,,down,0,1.3098,,-0.058333333,-0.190740741,1,0,0,0,170,170,115,1,kleren,images/br_kleren.png,images/cb_kleren.png,0,,,,,,,,,,,,,,,,,,,,,,
,,,,,,2023-09-27_20h52.27.941,vbt_B2_day3,2022.2.4,Win32,59.13310863,55978,,,,,,down,0,2.034,,-0.058333333,-0.190740741,1,0,0,0,171,171,187,1,opkijken,images/br_opkijken.png,images/cb_opkijken.png,0,,,,,,,,,,,,,,,,,,,,,,
,,,,,,2023-09-27_20h52.27.941,vbt_B2_day3,2022.2.4,Win32,59.13310863,55978,,,,,,down,0,2.0165,,-0.058333333,-0.190740741,1,0,0,0,172,172,79,1,nodig,images/br_nodig.png,images/cb_nodig.png,0,,,,,,,,,,,,,,,,,,,,,,
,,,,,,2023-09-27_20h52.27.941,vbt_B2_day3,2022.2.4,Win32,59.13310863,55978,,,,,,down,0,2.3271,,-0.058333333,-0.190740741,1,0,0,0,173,173,161,1,attentie,images/br_attentie.png,images/cb_attentie.png,0,,,,,,,,,,,,,,,,,,,,,,
,,,,,,2023-09-27_20h52.27.941,vbt_B2_day3,2022.2.4,Win32,59.13310863,55978,,,,,,down,0,0.8751,,-0.058333333,-0.190740741,1,0,0,0,174,174,138,1,akkoord,images/br_akkoord.png,images/cb_akkoord.png,0,,,,,,,,,,,,,,,,,,,,,,
,,,,,,2023-09-27_20h52.27.941,vbt_B2_day3,2022.2.4,Win32,59.13310863,55978,,,,,,down,0,2.545,,-0.058333333,-0.190740741,1,0,0,0,175,175,54,1,gebit,images/br_gebit.png,images/cb_gebit.png,0,,,,,,,,,,,,,,,,,,,,,,
,,,,,,2023-09-27_20h52.27.941,vbt_B2_day3,2022.2.4,Win32,59.13310863,55978,,,,,,down,0,2.413,,-0.058333333,-0.190740741,1,0,0,0,176,176,70,1,ijdel,images/br_ijdel.png,images/cb_ijdel.png,0,,,,,,,,,,,,,,,,,,,,,,
,,,,,,2023-09-27_20h52.27.941,vbt_B2_day3,2022.2.4,Win32,59.13310863,55978,,,,,,down,0,0.1678,,-0.058333333,-0.190740741,1,0,0,0,177,177,12,1,kust,images/br_kust.png,images/cb_kust.png,0,,,,,,,,,,,,,,,,,,,,,,
,,,,,,2023-09-27_20h52.27.941,vbt_B2_day3,2022.2.4,Win32,59.13310863,55978,,,,,,down,0,0.7766,,0.048148148,-0.217592593,1,0,0,0,178,178,186,1,voorraad,images/br_voorraad.png,images/cb_voorraad.png,0,,,,,,,,,,,,,,,,,,,,,,
,,,,,,2023-09-27_20h52.27.941,vbt_B2_day3,2022.2.4,Win32,59.13310863,55978,,,,,,down,0,1.4987,,0.048148148,-0.217592593,1,0,0,0,179,179,128,1,prikken,images/br_prikken.png,images/cb_prikken.png,0,,,,,,,,,,,,,,,,,,,,,,
,,,,,,2023-09-27_20h52.27.941,vbt_B2_day3,2022.2.4,Win32,59.13310863,55978,,,,,,down,0,0.7862,,0.048148148,-0.217592593,1,0,0,0,180,180,55,1,praat,images/br_praat.png,images/cb_praat.png,0,,,,,,,,,,,,,,,,,,,,,,
,,,,,,2023-09-27_20h52.27.941,vbt_B2_day3,2022.2.4,Win32,59.13310863,55978,,,,,,down,0,2.4836,,0.048148148,-0.217592593,1,0,0,0,181,181,24,1,jurk,images/br_jurk.png,images/cb_jurk.png,0,,,,,,,,,,,,,,,,,,,,,,
,,,,,,2023-09-27_20h52.27.941,vbt_B2_day3,2022.2.4,Win32,59.13310863,55978,,,,,,down,0,3.5977,,0.048148148,-0.217592593,1,0,0,0,182,182,80,1,kanjer,images/br_kanjer.png,images/cb_kanjer.png,0,,,,,,,,,,,,,,,,,,,,,,
,,,,,,2023-09-27_20h52.27.941,vbt_B2_day3,2022.2.4,Win32,59.13310863,55978,,,,,,down,0,2.5831,,0.048148148,-0.217592593,1,0,0,0,183,183,123,1,hiervan,images/br_hiervan.png,images/cb_hiervan.png,0,,,,,,,,,,,,,,,,,,,,,,
,,,,,,2023-09-27_20h52.27.941,vbt_B2_day3,2022.2.4,Win32,59.13310863,55978,,,,,,down,0,1.5542,,0.048148148,-0.217592593,1,0,0,0,184,184,77,1,woede,images/br_woede.png,images/cb_woede.png,0,,,,,,,,,,,,,,,,,,,,,,
,,,,,,2023-09-27_20h52.27.941,vbt_B2_day3,2022.2.4,Win32,59.13310863,55978,,,,,,down,0,0.2353,,0.048148148,-0.217592593,1,0,0,0,185,185,1,1,zaal,images/br_zaal.png,images/cb_zaal.png,0,,,,,,,,,,,,,,,,,,,,,,
,,,,,,2023-09-27_20h52.27.941,vbt_B2_day3,2022.2.4,Win32,59.13310863,55978,,,,,,down,0,4.0426,,0.048148148,-0.217592593,1,0,0,0,186,186,101,1,staren,images/br_staren.png,images/cb_staren.png,1,staren,,,,,,,,,,,,,,,,,,,,,
,,,,,,2023-09-27_20h52.27.941,vbt_B2_day3,2022.2.4,Win32,59.13310863,55978,,,,,,down,0,1.2005,,0.048148148,-0.217592593,1,0,0,0,187,187,124,1,bloeien,images/br_bloeien.png,images/cb_bloeien.png,0,,,,,,,,,,,,,,,,,,,,,,
,,,,,,2023-09-27_20h52.27.941,vbt_B2_day3,2022.2.4,Win32,59.13310863,55978,,,,,,down,0,2.4603,,0.048148148,-0.217592593,1,0,0,0,188,188,119,1,liefje,images/br_liefje.png,images/cb_liefje.png,0,,,,,,,,,,,,,,,,,,,,,,
,,,,,,2023-09-27_20h52.27.941,vbt_B2_day3,2022.2.4,Win32,59.13310863,55978,,,,,,down,0,0.3149,,0.048148148,-0.217592593,1,0,0,0,189,189,33,1,vlek,images/br_vlek.png,images/cb_vlek.png,0,,,,,,,,,,,,,,,,,,,,,,
,,,,,,2023-09-27_20h52.27.941,vbt_B2_day3,2022.2.4,Win32,59.13310863,55978,,,,,,down,0,0.5076,,0.048148148,-0.217592593,1,0,0,0,190,190,3,1,mand,images/br_mand.png,images/cb_mand.png,0,,,,,,,,,,,,,,,,,,,,,,
,,,,,,2023-09-27_20h52.27.941,vbt_B2_day3,2022.2.4,Win32,59.13310863,55978,,,,,,down,0,1.7129,,0.048148148,-0.217592593,1,0,0,0,191,191,47,1,kabel,images/br_kabel.png,images/cb_kabel.png,0,,,,,,,,,,,,,,,,,,,,,,
,,,,,,2023-09-27_20h52.27.941,vbt_B2_day3,2022.2.4,Win32,59.13310863,55978,,,,,,down,0,1.3848,,0.048148148,-0.217592593,1,0,0,0,192,192,136,1,waarbij,images/br_waarbij.png,images/cb_waarbij.png,0,,,,,,,,,,,,,,,,,,,,,,
,,,,,,2023-09-27_20h52.27.941,vbt_B2_day3,2022.2.4,Win32,59.13310863,55978,,,,,,down,0,2.1572,,0.048148148,-0.217592593,1,0,0,0,193,193,137,1,trekker,images/br_trekker.png,images/cb_trekker.png,0,,,,,,,,,,,,,,,,,,,,,,
,,,,,,2023-09-27_20h52.27.941,vbt_B2_day3,2022.2.4,Win32,59.13310863,55978,,,,,,down,0,7.3703,,0.048148148,-0.217592593,1,0,0,0,194,194,180,1,openbaar,images/br_openbaar.png,images/cb_openbaar.png,1,openbaar,,,,,,,,,,,,,,,,,,,,,
,,,,,,2023-09-27_20h52.27.941,vbt_B2_day3,2022.2.4,Win32,59.13310863,55978,,,,,,down,0,2.1666,,0.036111111,-0.225925926,1,0,0,0,195,195,90,1,geluid,images/br_geluid.png,images/cb_geluid.png,0,,,,,,,,,,,,,,,,,,,,,,
,,,,,,2023-09-27_20h52.27.941,vbt_B2_day3,2022.2.4,Win32,59.13310863,55978,,,,,,down,0,8.9001,,0.036111111,-0.225925926,1,0,0,0,196,196,183,1,getuigen,images/br_getuigen.png,images/cb_getuigen.png,1,getuigen,,,,,,,,,,,,,,,,,,,,,
,,,,,,2023-09-27_20h52.27.941,vbt_B2_day3,2022.2.4,Win32,59.13310863,55978,,,,,,down,0,10.0963,,0.036111111,-0.225925926,1,0,0,0,197,197,18,1,blik,images/br_blik.png,images/cb_blik.png,0,,,,,,,,,,,,,,,,,,,,,,
,,,,,,2023-09-27_20h52.27.941,vbt_B2_day3,2022.2.4,Win32,59.13310863,55978,,,,,,down,0,1.166,,0.036111111,-0.225925926,1,0,0,0,198,198,72,1,strak,images/br_strak.png,images/cb_strak.png,0,,,,,,,,,,,,,,,,,,,,,,
,,,,,,2023-09-27_20h52.27.941,vbt_B2_day3,2022.2.4,Win32,59.13310863,55978,,,,,,down,0,2.4853,,0.036111111,-0.225925926,1,0,0,0,199,199,196,1,nakijken,images/br_nakijken.png,images/cb_nakijken.png,0,,,,,,,,,,,,,,,,,,,,,,
,,,,,,2023-09-27_20h52.27.941,vbt_B2_day3,2022.2.4,Win32,59.13310863,55978,,,,,,,,,,,,,,,,,,,,,,,,,-0.188888889,-0.22962963,1,0,0,,,,,,,,,,,,,,,,
,,,,,,2023-09-27_20h52.27.941,vbt_B2_day3,2022.2.4,Win32,59.13310863,55978,,,,,,,,,,,,,,,,,,,,,,,,,,,,,,-0.194444444,-0.287037037,1,0,0,,,,,,,,,,,
,,,,,,2023-09-27_20h52.27.941,vbt_B2_day3,2022.2.4,Win32,59.13310863,55978,,,,,,,,,,,,,,,,,,,,hint,images/br_hint.png,images/cb_hint.png,,hint,,,,,,,,,,,-0.194444444,-0.287037037,1,0,0,hint,0,0,0,43,1
,,,,,,2023-09-27_20h52.27.941,vbt_B2_day3,2022.2.4,Win32,59.13310863,55978,,,,,,,,,,,,,,,,,,,,onrecht,images/br_onrecht.png,images/cb_onrecht.png,,onricht,,,,,,,,,,,-0.194444444,-0.287037037,1,0,0,onricht,0,1,1,55,1
,,,,,,2023-09-27_20h52.27.941,vbt_B2_day3,2022.2.4,Win32,59.13310863,55978,,,,,,,,,,,,,,,,,,,,croo,images/br_croo.png,images/cb_croo.png,,croo,,,,,,,,,,,-0.194444444,-0.287037037,1,0,0,croo,0,2,2,22,1
,,,,,,2023-09-27_20h52.27.941,vbt_B2_day3,2022.2.4,Win32,59.13310863,55978,,,,,,,,,,,,,,,,,,,,bevret,images/br_bevret.png,images/cb_bevret.png,,bevret,,,,,,,,,,,-0.194444444,-0.287037037,1,0,0,bevret,0,3,3,30,1
,,,,,,2023-09-27_20h52.27.941,vbt_B2_day3,2022.2.4,Win32,59.13310863,55978,,,,,,,,,,,,,,,,,,,,jongelui,images/br_jongelui.png,images/cb_jongelui.png,,jongelui,,,,,,,,,,,-0.103703704,-0.265740741,1,0,0,jongelui,0,4,4,59,1
,,,,,,2023-09-27_20h52.27.941,vbt_B2_day3,2022.2.4,Win32,59.13310863,55978,,,,,,,,,,,,,,,,,,,,uniek,images/br_uniek.png,images/cb_uniek.png,,uniek,,,,,,,,,,,-0.103703704,-0.265740741,1,0,0,uniek,0,5,5,46,1
,,,,,,2023-09-27_20h52.27.941,vbt_B2_day3,2022.2.4,Win32,59.13310863,55978,,,,,,,,,,,,,,,,,,,,vlager,images/br_vlager.png,images/cb_vlager.png,,vlager,,,,,,,,,,,-0.103703704,-0.265740741,1,0,0,vlager,0,6,6,28,1
,,,,,,2023-09-27_20h52.27.941,vbt_B2_day3,2022.2.4,Win32,59.13310863,55978,,,,,,,,,,,,,,,,,,,,brappen,images/br_brappen.png,images/cb_brappen.png,,brappen,,,,,,,,,,,-0.103703704,-0.265740741,1,0,0,brappen,0,7,7,35,1
,,,,,,2023-09-27_20h52.27.941,vbt_B2_day3,2022.2.4,Win32,59.13310863,55978,,,,,,,,,,,,,,,,,,,,leemaken,images/br_leemaken.png,images/cb_leemaken.png,,leemrken,,,,,,,,,,,-0.02962963,-0.234259259,1,0,0,leemrken,0,8,8,39,1
,,,,,,2023-09-27_20h52.27.941,vbt_B2_day3,2022.2.4,Win32,59.13310863,55978,,,,,,,,,,,,,,,,,,,,sultan,images/br_sultan.png,images/cb_sultan.png,,sultan,,,,,,,,,,,-0.02962963,-0.234259259,1,0,0,sultan,0,9,9,49,1
,,,,,,2023-09-27_20h52.27.941,vbt_B2_day3,2022.2.4,Win32,59.13310863,55978,,,,,,,,,,,,,,,,,,,,laken,images/br_laken.png,images/cb_laken.png,,laken,,,,,,,,,,,-0.02962963,-0.234259259,1,0,0,laken,0,10,10,5,1
,,,,,,2023-09-27_20h52.27.941,vbt_B2_day3,2022.2.4,Win32,59.13310863,55978,,,,,,,,,,,,,,,,,,,,glijden,images/br_glijden.png,images/cb_glijden.png,,glijden,,,,,,,,,,,-0.02962963,-0.234259259,1,0,0,glijden,0,11,11,53,1
,,,,,,2023-09-27_20h52.27.941,vbt_B2_day3,2022.2.4,Win32,59.13310863,55978,,,,,,,,,,,,,,,,,,,,mode,images/br_mode.png,images/cb_mode.png,,mode,,,,,,,,,,,-0.02962963,-0.234259259,1,0,0,mode,0,12,12,3,1
,,,,,,2023-09-27_20h52.27.941,vbt_B2_day3,2022.2.4,Win32,59.13310863,55978,,,,,,,,,,,,,,,,,,,,begrip,images/br_begrip.png,images/cb_begrip.png,,begrip,,,,,,,,,,,-0.02962963,-0.234259259,1,0,0,begrip,0,13,13,48,1
,,,,,,2023-09-27_20h52.27.941,vbt_B2_day3,2022.2.4,Win32,59.13310863,55978,,,,,,,,,,,,,,,,,,,,oprotten,images/br_oprotten.png,images/cb_oprotten.png,,oprotten,,,,,,,,,,,-0.02962963,-0.234259259,1,0,0,oprotten,0,14,14,17,1
,,,,,,2023-09-27_20h52.27.941,vbt_B2_day3,2022.2.4,Win32,59.13310863,55978,,,,,,,,,,,,,,,,,,,,gout,images/br_gout.png,images/cb_gout.png,,gout,,,,,,,,,,,-0.02962963,-0.234259259,1,0,0,gout,0,15,15,20,1
,,,,,,2023-09-27_20h52.27.941,vbt_B2_day3,2022.2.4,Win32,59.13310863,55978,,,,,,,,,,,,,,,,,,,,schatten,images/br_schatten.png,images/cb_schatten.png,,schatten,,,,,,,,,,,-0.02962963,-0.234259259,1,0,0,schatten,0,16,16,18,1
,,,,,,2023-09-27_20h52.27.941,vbt_B2_day3,2022.2.4,Win32,59.13310863,55978,,,,,,,,,,,,,,,,,,,,samen,images/br_samen.png,images/cb_samen.png,,samen,,,,,,,,,,,-0.02962963,-0.234259259,1,0,0,samen,0,17,17,7,1
,,,,,,2023-09-27_20h52.27.941,vbt_B2_day3,2022.2.4,Win32,59.13310863,55978,,,,,,,,,,,,,,,,,,,,verraden,images/br_verraden.png,images/cb_verraden.png,,verraden,,,,,,,,,,,-0.02962963,-0.234259259,1,0,0,verraden,0,18,18,58,1
,,,,,,2023-09-27_20h52.27.941,vbt_B2_day3,2022.2.4,Win32,59.13310863,55978,,,,,,,,,,,,,,,,,,,,verwoor,images/br_verwoor.png,images/cb_verwoor.png,,verwoor,,,,,,,,,,,-0.02962963,-0.259259259,1,0,0,verwoor,0,19,19,32,1
,,,,,,2023-09-27_20h52.27.941,vbt_B2_day3,2022.2.4,Win32,59.13310863,55978,,,,,,,,,,,,,,,,,,,,schodel,images/br_schodel.png,images/cb_schodel.png,,schodel,,,,,,,,,,,-0.02962963,-0.259259259,1,0,0,schodel,0,20,20,33,1
,,,,,,2023-09-27_20h52.27.941,vbt_B2_day3,2022.2.4,Win32,59.13310863,55978,,,,,,,,,,,,,,,,,,,,twaaf,images/br_twaaf.png,images/cb_twaaf.png,,twaaf,,,,,,,,,,,-0.02962963,-0.259259259,1,0,0,twaaf,0,21,21,24,1
,,,,,,2023-09-27_20h52.27.941,vbt_B2_day3,2022.2.4,Win32,59.13310863,55978,,,,,,,,,,,,,,,,,,,,mugeek,images/br_mugeek.png,images/cb_mugeek.png,,mugeek,,,,,,,,,,,-0.02962963,-0.259259259,1,0,0,mugeek,0,22,22,29,1
,,,,,,2023-09-27_20h52.27.941,vbt_B2_day3,2022.2.4,Win32,59.13310863,55978,,,,,,,,,,,,,,,,,,,,afbopen,images/br_afbopen.png,images/cb_afbopen.png,,afbopen,,,,,,,,,,,-0.02962963,-0.259259259,1,0,0,afbopen,0,23,23,34,1
,,,,,,2023-09-27_20h52.27.941,vbt_B2_day3,2022.2.4,Win32,59.13310863,55978,,,,,,,,,,,,,,,,,,,,geluid,images/br_geluid.png,images/cb_geluid.png,,geluid,,,,,,,,,,,-0.02962963,-0.259259259,1,0,0,geluid,0,24,24,10,1
,,,,,,2023-09-27_20h52.27.941,vbt_B2_day3,2022.2.4,Win32,59.13310863,55978,,,,,,,,,,,,,,,,,,,,stikken,images/br_stikken.png,images/cb_stikken.png,,stikken,,,,,,,,,,,-0.02962963,-0.259259259,1,0,0,stikken,0,25,25,54,1
,,,,,,2023-09-27_20h52.27.941,vbt_B2_day3,2022.2.4,Win32,59.13310863,55978,,,,,,,,,,,,,,,,,,,,aarzelen,images/br_aarzelen.png,images/cb_aarzelen.png,,aarzelen,,,,,,,,,,,-0.02962963,-0.259259259,1,0,0,aarzelen,0,26,26,19,1
,,,,,,2023-09-27_20h52.27.941,vbt_B2_day3,2022.2.4,Win32,59.13310863,55978,,,,,,,,,,,,,,,,,,,,kaas,images/br_kaas.png,images/cb_kaas.png,,kaas,,,,,,,,,,,-0.02962963,-0.259259259,1,0,0,kaas,0,27,27,42,1
,,,,,,2023-09-27_20h52.27.941,vbt_B2_day3,2022.2.4,Win32,59.13310863,55978,,,,,,,,,,,,,,,,,,,,sluier,images/br_sluier.png,images/cb_sluier.png,,sluier,,,,,,,,,,,-0.02962963,-0.259259259,1,0,0,sluier,0,28,28,50,1
,,,,,,2023-09-27_20h52.27.941,vbt_B2_day3,2022.2.4,Win32,59.13310863,55978,,,,,,,,,,,,,,,,,,,,paken,images/br_paken.png,images/cb_paken.png,,paken,,,,,,,,,,,-0.02962963,-0.259259259,1,0,0,paken,0,29,29,27,1
,,,,,,2023-09-27_20h52.27.941,vbt_B2_day3,2022.2.4,Win32,59.13310863,55978,,,,,,,,,,,,,,,,,,,,boeien,images/br_boeien.png,images/cb_boeien.png,,boeien,,,,,,,,,,,-0.02962963,-0.259259259,1,0,0,boeien,0,30,30,8,1
,,,,,,2023-09-27_20h52.27.941,vbt_B2_day3,2022.2.4,Win32,59.13310863,55978,,,,,,,,,,,,,,,,,,,,alsof,images/br_alsof.png,images/cb_alsof.png,,alsof,,,,,,,,,,,-0.02962963,-0.259259259,1,0,0,alsof,0,31,31,44,1
,,,,,,2023-09-27_20h52.27.941,vbt_B2_day3,2022.2.4,Win32,59.13310863,55978,,,,,,,,,,,,,,,,,,,,leek,images/br_leek.png,images/cb_leek.png,,leek,,,,,,,,,,,-0.02962963,-0.259259259,1,0,0,leek,0,32,32,2,1
,,,,,,2023-09-27_20h52.27.941,vbt_B2_day3,2022.2.4,Win32,59.13310863,55978,,,,,,,,,,,,,,,,,,,,knie,images/br_knie.png,images/cb_knie.png,,knie,,,,,,,,,,,-0.02962963,-0.259259259,1,0,0,knie,0,33,33,0,1
,,,,,,2023-09-27_20h52.27.941,vbt_B2_day3,2022.2.4,Win32,59.13310863,55978,,,,,,,,,,,,,,,,,,,,kest,images/br_kest.png,images/cb_kest.png,,kest,,,,,,,,,,,-0.002777778,-0.294444444,1,0,0,kest,0,34,34,21,1
,,,,,,2023-09-27_20h52.27.941,vbt_B2_day3,2022.2.4,Win32,59.13310863,55978,,,,,,,,,,,,,,,,,,,,hier,images/br_hier.png,images/cb_hier.png,,hier,,,,,,,,,,,-0.002777778,-0.294444444,1,0,0,hier,0,35,35,1,1
,,,,,,2023-09-27_20h52.27.941,vbt_B2_day3,2022.2.4,Win32,59.13310863,55978,,,,,,,,,,,,,,,,,,,,leugeren,images/br_leugeren.png,images/cb_leugeren.png,,leugeren,,,,,,,,,,,-0.002777778,-0.296296296,1,0,0,leugeren,0,36,36,37,1
,,,,,,2023-09-27_20h52.27.941,vbt_B2_day3,2022.2.4,Win32,59.13310863,55978,,,,,,,,,,,,,,,,,,,,gezond,images/br_gezond.png,images/cb_gezond.png,,gezond,,,,,,,,,,,-0.002777778,-0.296296296,1,0,0,gezond,0,37,37,11,1
,,,,,,2023-09-27_20h52.27.941,vbt_B2_day3,2022.2.4,Win32,59.13310863,55978,,,,,,,,,,,,,,,,,,,,verhaal,images/br_verhaal.png,images/cb_verhaal.png,,verhaal,,,,,,,,,,,-0.002777778,-0.296296296,1,0,0,verhaal,0,38,38,13,1
,,,,,,2023-09-27_20h52.27.941,vbt_B2_day3,2022.2.4,Win32,59.13310863,55978,,,,,,,,,,,,,,,,,,,,stallen,images/br_stallen.png,images/cb_stallen.png,,stallen,,,,,,,,,,,-0.002777778,-0.296296296,1,0,0,stallen,0,39,39,52,1
,,,,,,2023-09-27_20h52.27.941,vbt_B2_day3,2022.2.4,Win32,59.13310863,55978,,,,,,,,,,,,,,,,,,,,keihard,images/br_keihard.png,images/cb_keihard.png,,keihard,,,,,,,,,,,-0.002777778,-0.296296296,1,0,0,keihard,0,40,40,14,1
,,,,,,2023-09-27_20h52.27.941,vbt_B2_day3,2022.2.4,Win32,59.13310863,55978,,,,,,,,,,,,,,,,,,,,beslag,images/br_beslag.png,images/cb_beslag.png,,beslag,,,,,,,,,,,-0.002777778,-0.296296296,1,0,0,beslag,0,41,41,51,1
,,,,,,2023-09-27_20h52.27.941,vbt_B2_day3,2022.2.4,Win32,59.13310863,55978,,,,,,,,,,,,,,,,,,,,stoom,images/br_stoom.png,images/cb_stoom.png,,stoom,,,,,,,,,,,-0.002777778,-0.296296296,1,0,0,stoom,0,42,42,6,1
,,,,,,2023-09-27_20h52.27.941,vbt_B2_day3,2022.2.4,Win32,59.13310863,55978,,,,,,,,,,,,,,,,,,,,gebod,images/br_gebod.png,images/cb_gebod.png,,gebod,,,,,,,,,,,-0.002777778,-0.296296296,1,0,0,gebod,0,43,43,45,1
,,,,,,2023-09-27_20h52.27.941,vbt_B2_day3,2022.2.4,Win32,59.13310863,55978,,,,,,,,,,,,,,,,,,,,opzicht,images/br_opzicht.png,images/cb_opzicht.png,,opzicht,,,,,,,,,,,-0.002777778,-0.296296296,1,0,0,opzicht,0,44,44,15,1
,,,,,,2023-09-27_20h52.27.941,vbt_B2_day3,2022.2.4,Win32,59.13310863,55978,,,,,,,,,,,,,,,,,,,,booien,images/br_booien.png,images/cb_booien.png,,boeien,,,,,,,,,,,-0.002777778,-0.296296296,1,0,0,boeien,0,45,45,31,1
,,,,,,2023-09-27_20h52.27.941,vbt_B2_day3,2022.2.4,Win32,59.13310863,55978,,,,,,,,,,,,,,,,,,,,prikken,images/br_prikken.png,images/cb_prikken.png,,prikken,,,,,,,,,,,-0.002777778,-0.296296296,1,0,0,prikken,0,46,46,12,1
,,,,,,2023-09-27_20h52.27.941,vbt_B2_day3,2022.2.4,Win32,59.13310863,55978,,,,,,,,,,,,,,,,,,,,makieren,images/br_makieren.png,images/cb_makieren.png,,makieren,,,,,,,,,,,-0.002777778,-0.296296296,1,0,0,makieren,0,47,47,36,1
,,,,,,2023-09-27_20h52.27.941,vbt_B2_day3,2022.2.4,Win32,59.13310863,55978,,,,,,,,,,,,,,,,,,,,theeting,images/br_theeting.png,images/cb_theeting.png,,theeting,,,,,,,,,,,0.062037037,-0.156481481,1,0,0,theeting,0,48,48,38,1
,,,,,,2023-09-27_20h52.27.941,vbt_B2_day3,2022.2.4,Win32,59.13310863,55978,,,,,,,,,,,,,,,,,,,,opzetten,images/br_opzetten.png,images/cb_opzetten.png,,opzetten,,,,,,,,,,,0.062037037,-0.156481481,1,0,0,opzetten,0,49,49,56,1
,,,,,,2023-09-27_20h52.27.941,vbt_B2_day3,2022.2.4,Win32,59.13310863,55978,,,,,,,,,,,,,,,,,,,,slapen,images/br_slapen.png,images/cb_slapen.png,,slapen,,,,,,,,,,,0.062037037,-0.156481481,1,0,0,slapen,0,50,50,9,1
,,,,,,2023-09-27_20h52.27.941,vbt_B2_day3,2022.2.4,Win32,59.13310863,55978,,,,,,,,,,,,,,,,,,,,kwaas,images/br_kwaas.png,images/cb_kwaas.png,,kwaas,,,,,,,,,,,0.032407407,-0.221296296,1,0,0,kwaas,0,51,51,26,1
,,,,,,2023-09-27_20h52.27.941,vbt_B2_day3,2022.2.4,Win32,59.13310863,55978,,,,,,,,,,,,,,,,,,,,dwang,images/br_dwang.png,images/cb_dwang.png,,dwang,,,,,,,,,,,0.025925926,-0.264814815,1,0,0,dwang,0,52,52,47,1
,,,,,,2023-09-27_20h52.27.941,vbt_B2_day3,2022.2.4,Win32,59.13310863,55978,,,,,,,,,,,,,,,,,,,,invallen,images/br_invallen.png,images/cb_invallen.png,,invallen,,,,,,,,,,,0.025925926,-0.264814815,1,0,0,invallen,0,53,53,57,1
,,,,,,2023-09-27_20h52.27.941,vbt_B2_day3,2022.2.4,Win32,59.13310863,55978,,,,,,,,,,,,,,,,,,,,hust,images/br_hust.png,images/cb_hust.png,,hust,,,,,,,,,,,0.025925926,-0.264814815,1,0,0,hust,0,54,54,23,1
,,,,,,2023-09-27_20h52.27.941,vbt_B2_day3,2022.2.4,Win32,59.13310863,55978,,,,,,,,,,,,,,,,,,,,steel,images/br_steel.png,images/cb_steel.png,,steel,,,,,,,,,,,0.025925926,-0.264814815,1,0,0,steel,0,55,55,4,1
,,,,,,2023-09-27_20h52.27.941,vbt_B2_day3,2022.2.4,Win32,59.13310863,55978,,,,,,,,,,,,,,,,,,,,uviek,images/br_uviek.png,images/cb_uviek.png,,uviek,,,,,,,,,,,0.025925926,-0.264814815,1,0,0,uviek,0,56,56,25,1
,,,,,,2023-09-27_20h52.27.941,vbt_B2_day3,2022.2.4,Win32,59.13310863,55978,,,,,,,,,,,,,,,,,,,,zone,images/br_zone.png,images/cb_zone.png,,zone,,,,,,,,,,,0.025925926,-0.264814815,1,0,0,zone,0,57,57,41,1
,,,,,,2023-09-27_20h52.27.941,vbt_B2_day3,2022.2.4,Win32,59.13310863,55978,,,,,,,,,,,,,,,,,,,,eens,images/br_eens.png,images/cb_eens.png,,eens,,,,,,,,,,,0.025925926,-0.264814815,1,0,0,eens,0,58,58,40,1
,,,,,,2023-09-27_20h52.27.941,vbt_B2_day3,2022.2.4,Win32,59.13310863,55978,,,,,,,,,,,,,,,,,,,,bisschop,images/br_bisschop.png,images/cb_bisschop.png,,bisschop,,,,,,,,,,,0.025925926,-0.264814815,1,0,0,bisschop,0,59,59,16,1
,,,,,,2023-09-27_20h52.27.941,vbt_B2_day3,2022.2.4,Win32,59.13310863,55978,,,,,,,,,,,,,,,,,,,,,,,,,,,,,,,,,,,,,,,,,,,,,
