welcome_mouse.x,welcome_mouse.y,welcome_mouse.leftButton,welcome_mouse.midButton,welcome_mouse.rightButton,"ID",date,expName,psychopyVersion,OS,frameRate,trainInstr_mouse.x,trainInstr_mouse.y,trainInstr_mouse.leftButton,trainInstr_mouse.midButton,trainInstr_mouse.rightButton,translation_key.keys,translation_key.corr,translation_key.rt,word_rsp.text,trWrd_mouse.x,trWrd_mouse.y,trWrd_mouse.leftButton,trWrd_mouse.midButton,trWrd_mouse.rightButton,train_loop.thisRepN,train_loop.thisTrialN,train_loop.thisN,train_loop.thisIndex,train_loop.ran,nlWrd,brWrd,cbWrd,test,testResp,mouse.x,mouse.y,mouse.leftButton,mouse.midButton,mouse.rightButton,testInstr_mouse.x,testInstr_mouse.y,testInstr_mouse.leftButton,testInstr_mouse.midButton,testInstr_mouse.rightButton,test_mouse.x,test_mouse.y,test_mouse.leftButton,test_mouse.midButton,test_mouse.rightButton,test_response.text,test_loop.thisRepN,test_loop.thisTrialN,test_loop.thisN,test_loop.thisIndex,test_loop.ran
-0.153142361,-0.192677951,1,0,0,00047,2023-10-19_20h18.44.427,vbt_B2_day3,2022.2.4,MacIntel,59.99880002,,,,,,,,,,,,,,,,,,,,,,,,,,,,,,,,,,,,,,,,,,,,,
,,,,,00047,2023-10-19_20h18.44.427,vbt_B2_day3,2022.2.4,MacIntel,59.99880002,-0.276380208,-0.281961806,1,0,0,,,,,,,,,,,,,,,,,,,,,,,,,,,,,,,,,,,,,,,,
,,,,,00047,2023-10-19_20h18.44.427,vbt_B2_day3,2022.2.4,MacIntel,59.99880002,,,,,,down,0,4.0074,,-0.154114583,-0.160737847,1,0,0,0,0,0,65,1,parel,images/br_parel.png,images/cb_parel.png,0,,,,,,,,,,,,,,,,,,,,,,
,,,,,00047,2023-10-19_20h18.44.427,vbt_B2_day3,2022.2.4,MacIntel,59.99880002,,,,,,down,0,8.3841,,-0.112521701,-0.066727431,1,0,0,0,1,1,86,1,woning,images/br_woning.png,images/cb_woning.png,0,,,,,,,,,,,,,,,,,,,,,,
,,,,,00047,2023-10-19_20h18.44.427,vbt_B2_day3,2022.2.4,MacIntel,59.99880002,,,,,,down,0,6.1438,,-0.070824653,-0.061232639,1,0,0,0,2,2,190,1,goedkoop,images/br_goedkoop.png,images/cb_goedkoop.png,0,,,,,,,,,,,,,,,,,,,,,,
,,,,,00047,2023-10-19_20h18.44.427,vbt_B2_day3,2022.2.4,MacIntel,59.99880002,,,,,,down,0,1.4751,,-0.058342014,-0.048519965,1,0,0,0,3,3,16,1,ziek,images/br_ziek.png,images/cb_ziek.png,0,,,,,,,,,,,,,,,,,,,,,,
,,,,,00047,2023-10-19_20h18.44.427,vbt_B2_day3,2022.2.4,MacIntel,59.99880002,,,,,,down,0,2.8199,,-0.049652778,-0.038376736,1,0,0,0,4,4,189,1,aanraden,images/br_aanraden.png,images/cb_aanraden.png,0,,,,,,,,,,,,,,,,,,,,,,
,,,,,00047,2023-10-19_20h18.44.427,vbt_B2_day3,2022.2.4,MacIntel,59.99880002,,,,,,down,0,5.5013,,-0.074578993,-0.076271701,1,0,0,0,5,5,34,1,vorm,images/br_vorm.png,images/cb_vorm.png,0,,,,,,,,,,,,,,,,,,,,,,
,,,,,00047,2023-10-19_20h18.44.427,vbt_B2_day3,2022.2.4,MacIntel,59.99880002,,,,,,down,0,5.5228,,-0.101236979,-0.097907986,1,0,0,0,6,6,100,1,geduld,images/br_geduld.png,images/cb_geduld.png,1,geduld,,,,,,,,,,,,,,,,,,,,,
,,,,,00047,2023-10-19_20h18.44.427,vbt_B2_day3,2022.2.4,MacIntel,59.99880002,,,,,,down,0,20.1861,,-0.089865451,-0.101002604,1,0,0,0,7,7,71,1,bever,images/br_bever.png,images/cb_bever.png,0,,,,,,,,,,,,,,,,,,,,,,
,,,,,00047,2023-10-19_20h18.44.427,vbt_B2_day3,2022.2.4,MacIntel,59.99880002,,,,,,down,0,4.7754,,-0.089865451,-0.101002604,1,0,0,0,8,8,122,1,waarvan,images/br_waarvan.png,images/cb_waarvan.png,0,,,,,,,,,,,,,,,,,,,,,,
,,,,,00047,2023-10-19_20h18.44.427,vbt_B2_day3,2022.2.4,MacIntel,59.99880002,,,,,,down,0,5.284,,-0.089865451,-0.101002604,1,0,0,0,9,9,188,1,strekken,images/br_strekken.png,images/cb_strekken.png,0,,,,,,,,,,,,,,,,,,,,,,
,,,,,00047,2023-10-19_20h18.44.427,vbt_B2_day3,2022.2.4,MacIntel,59.99880002,,,,,,down,0,2.7388,,-0.088736979,-0.094748264,1,0,0,0,10,10,0,1,slak,images/br_slak.png,images/cb_slak.png,0,,,,,,,,,,,,,,,,,,,,,,
,,,,,00047,2023-10-19_20h18.44.427,vbt_B2_day3,2022.2.4,MacIntel,59.99880002,,,,,,down,0,1.0698,,-0.088736979,-0.085234375,1,0,0,0,11,11,48,1,steel,images/br_steel.png,images/cb_steel.png,0,,,,,,,,,,,,,,,,,,,,,,
,,,,,00047,2023-10-19_20h18.44.427,vbt_B2_day3,2022.2.4,MacIntel,59.99880002,,,,,,down,0,11.8186,,-0.088736979,-0.085234375,1,0,0,0,12,12,176,1,techniek,images/br_techniek.png,images/cb_techniek.png,0,,,,,,,,,,,,,,,,,,,,,,
,,,,,00047,2023-10-19_20h18.44.427,vbt_B2_day3,2022.2.4,MacIntel,59.99880002,,,,,,down,0,2.1516,,-0.088485243,-0.085234375,1,0,0,0,13,13,82,1,muziek,images/br_muziek.png,images/cb_muziek.png,0,,,,,,,,,,,,,,,,,,,,,,
,,,,,00047,2023-10-19_20h18.44.427,vbt_B2_day3,2022.2.4,MacIntel,59.99880002,,,,,,down,0,3.2907,,-0.088485243,-0.085234375,1,0,0,0,14,14,165,1,feestdag,images/br_feestdag.png,images/cb_feestdag.png,0,,,,,,,,,,,,,,,,,,,,,,
,,,,,00047,2023-10-19_20h18.44.427,vbt_B2_day3,2022.2.4,MacIntel,59.99880002,,,,,,down,0,1.7342,,-0.088485243,-0.085234375,1,0,0,0,15,15,50,1,stoom,images/br_stoom.png,images/cb_stoom.png,0,,,,,,,,,,,,,,,,,,,,,,
,,,,,00047,2023-10-19_20h18.44.427,vbt_B2_day3,2022.2.4,MacIntel,59.99880002,,,,,,down,0,7.1848,,-0.088485243,-0.085234375,1,0,0,0,16,16,104,1,zweven,images/br_zweven.png,images/cb_zweven.png,0,,,,,,,,,,,,,,,,,,,,,,
,,,,,00047,2023-10-19_20h18.44.427,vbt_B2_day3,2022.2.4,MacIntel,59.99880002,,,,,,down,0,2.8913,,-0.088485243,-0.085234375,1,0,0,0,17,17,3,1,mand,images/br_mand.png,images/cb_mand.png,0,,,,,,,,,,,,,,,,,,,,,,
,,,,,00047,2023-10-19_20h18.44.427,vbt_B2_day3,2022.2.4,MacIntel,59.99880002,,,,,,down,0,5.7002,,-0.088485243,-0.085234375,1,0,0,0,18,18,18,1,blik,images/br_blik.png,images/cb_blik.png,0,,,,,,,,,,,,,,,,,,,,,,
,,,,,00047,2023-10-19_20h18.44.427,vbt_B2_day3,2022.2.4,MacIntel,59.99880002,,,,,,down,0,14.1852,,-0.088485243,-0.085234375,1,0,0,0,19,19,146,1,opkomen,images/br_opkomen.png,images/cb_opkomen.png,0,,,,,,,,,,,,,,,,,,,,,,
,,,,,00047,2023-10-19_20h18.44.427,vbt_B2_day3,2022.2.4,MacIntel,59.99880002,,,,,,down,0,5.6661,,-0.113923611,-0.059618056,1,0,0,0,20,20,103,1,joggen,images/br_joggen.png,images/cb_joggen.png,1,joggen,,,,,,,,,,,,,,,,,,,,,
,,,,,00047,2023-10-19_20h18.44.427,vbt_B2_day3,2022.2.4,MacIntel,59.99880002,,,,,,down,0,8.5339,,-0.113923611,-0.059618056,1,0,0,0,21,21,168,1,bisschop,images/br_bisschop.png,images/cb_bisschop.png,0,,,,,,,,,,,,,,,,,,,,,,
,,,,,00047,2023-10-19_20h18.44.427,vbt_B2_day3,2022.2.4,MacIntel,59.99880002,,,,,,down,0,28.0859,,-0.113923611,-0.059618056,1,0,0,0,22,22,93,1,waarop,images/br_waarop.png,images/cb_waarop.png,0,,,,,,,,,,,,,,,,,,,,,,
,,,,,00047,2023-10-19_20h18.44.427,vbt_B2_day3,2022.2.4,MacIntel,59.99880002,,,,,,down,0,1.9876,,-0.121657986,-0.080225694,1,0,0,0,23,23,55,1,praat,images/br_praat.png,images/cb_praat.png,0,,,,,,,,,,,,,,,,,,,,,,
,,,,,00047,2023-10-19_20h18.44.427,vbt_B2_day3,2022.2.4,MacIntel,59.99880002,,,,,,down,0,1.8677,,-0.121657986,-0.080225694,1,0,0,0,24,24,19,1,geit,images/br_geit.png,images/cb_geit.png,0,,,,,,,,,,,,,,,,,,,,,,
,,,,,00047,2023-10-19_20h18.44.427,vbt_B2_day3,2022.2.4,MacIntel,59.99880002,,,,,,down,0,2.6712,,-0.121657986,-0.080225694,1,0,0,0,25,25,73,1,volop,images/br_volop.png,images/cb_volop.png,0,,,,,,,,,,,,,,,,,,,,,,
,,,,,00047,2023-10-19_20h18.44.427,vbt_B2_day3,2022.2.4,MacIntel,59.99880002,,,,,,down,0,6.3503,,-0.136336806,-0.095520833,1,0,0,0,26,26,141,1,knielen,images/br_knielen.png,images/cb_knielen.png,1,knielen,,,,,,,,,,,,,,,,,,,,,
,,,,,00047,2023-10-19_20h18.44.427,vbt_B2_day3,2022.2.4,MacIntel,59.99880002,,,,,,down,0,14.2193,,-0.136336806,-0.095520833,1,0,0,0,27,27,108,1,excuus,images/br_excuus.png,images/cb_excuus.png,0,,,,,,,,,,,,,,,,,,,,,,
,,,,,00047,2023-10-19_20h18.44.427,vbt_B2_day3,2022.2.4,MacIntel,59.99880002,,,,,,down,0,6.4825,,-0.136336806,-0.095520833,1,0,0,0,28,28,175,1,heengaan,images/br_heengaan.png,images/cb_heengaan.png,0,,,,,,,,,,,,,,,,,,,,,,
,,,,,00047,2023-10-19_20h18.44.427,vbt_B2_day3,2022.2.4,MacIntel,59.99880002,,,,,,down,0,18.0233,,-0.136336806,-0.095520833,1,0,0,0,29,29,155,1,gerucht,images/br_gerucht.png,images/cb_gerucht.png,0,,,,,,,,,,,,,,,,,,,,,,
,,,,,00047,2023-10-19_20h18.44.427,vbt_B2_day3,2022.2.4,MacIntel,59.99880002,,,,,,down,0,6.9361,,-0.136336806,-0.095520833,1,0,0,0,30,30,76,1,afval,images/br_afval.png,images/cb_afval.png,0,,,,,,,,,,,,,,,,,,,,,,
,,,,,00047,2023-10-19_20h18.44.427,vbt_B2_day3,2022.2.4,MacIntel,59.99880002,,,,,,down,0,13.0751,,-0.136336806,-0.095520833,1,0,0,0,31,31,99,1,koffie,images/br_koffie.png,images/cb_koffie.png,0,,,,,,,,,,,,,,,,,,,,,,
,,,,,00047,2023-10-19_20h18.44.427,vbt_B2_day3,2022.2.4,MacIntel,59.99880002,,,,,,down,0,9.5842,,-0.136336806,-0.095520833,1,0,0,0,32,32,153,1,vervoer,images/br_vervoer.png,images/cb_vervoer.png,0,,,,,,,,,,,,,,,,,,,,,,
,,,,,00047,2023-10-19_20h18.44.427,vbt_B2_day3,2022.2.4,MacIntel,59.99880002,,,,,,down,0,3.9492,,-0.181701389,-0.113940972,1,0,0,0,33,33,20,1,site,images/br_site.png,images/cb_site.png,1,site,,,,,,,,,,,,,,,,,,,,,
,,,,,00047,2023-10-19_20h18.44.427,vbt_B2_day3,2022.2.4,MacIntel,59.99880002,,,,,,down,0,2.9782,,-0.181701389,-0.113940972,1,0,0,0,34,34,133,1,seizoen,images/br_seizoen.png,images/cb_seizoen.png,0,,,,,,,,,,,,,,,,,,,,,,
,,,,,00047,2023-10-19_20h18.44.427,vbt_B2_day3,2022.2.4,MacIntel,59.99880002,,,,,,down,0,0.6355,,-0.181701389,-0.113940972,1,0,0,0,35,35,28,1,stal,images/br_stal.png,images/cb_stal.png,0,,,,,,,,,,,,,,,,,,,,,,
,,,,,00047,2023-10-19_20h18.44.427,vbt_B2_day3,2022.2.4,MacIntel,59.99880002,,,,,,down,0,15.171,,-0.052690972,-0.038328993,1,0,0,0,36,36,180,1,openbaar,images/br_openbaar.png,images/cb_openbaar.png,1,openbaar,,,,,,,,,,,,,,,,,,,,,
,,,,,00047,2023-10-19_20h18.44.427,vbt_B2_day3,2022.2.4,MacIntel,59.99880002,,,,,,down,0,15.1244,,-0.052690972,-0.038328993,1,0,0,0,37,37,162,1,uitdelen,images/br_uitdelen.png,images/cb_uitdelen.png,0,,,,,,,,,,,,,,,,,,,,,,
,,,,,00047,2023-10-19_20h18.44.427,vbt_B2_day3,2022.2.4,MacIntel,59.99880002,,,,,,down,0,2.2164,,-0.052690972,-0.038328993,1,0,0,0,38,38,56,1,traag,images/br_traag.png,images/cb_traag.png,0,,,,,,,,,,,,,,,,,,,,,,
,,,,,00047,2023-10-19_20h18.44.427,vbt_B2_day3,2022.2.4,MacIntel,59.99880002,,,,,,down,0,7.1668,,-0.052690972,-0.038328993,1,0,0,0,39,39,178,1,huisdier,images/br_huisdier.png,images/cb_huisdier.png,0,,,,,,,,,,,,,,,,,,,,,,
,,,,,00047,2023-10-19_20h18.44.427,vbt_B2_day3,2022.2.4,MacIntel,59.99880002,,,,,,down,0,7.4751,,-0.052690972,-0.038328993,1,0,0,0,40,40,52,1,wagon,images/br_wagon.png,images/cb_wagon.png,0,,,,,,,,,,,,,,,,,,,,,,
,,,,,00047,2023-10-19_20h18.44.427,vbt_B2_day3,2022.2.4,MacIntel,59.99880002,,,,,,down,0,5.741,,-0.060338542,-0.068368056,1,0,0,0,41,41,199,1,beseffen,images/br_beseffen.png,images/cb_beseffen.png,0,,,,,,,,,,,,,,,,,,,,,,
,,,,,00047,2023-10-19_20h18.44.427,vbt_B2_day3,2022.2.4,MacIntel,59.99880002,,,,,,down,0,2.0487,,-0.060338542,-0.068368056,1,0,0,0,42,42,152,1,afnemen,images/br_afnemen.png,images/cb_afnemen.png,0,,,,,,,,,,,,,,,,,,,,,,
,,,,,00047,2023-10-19_20h18.44.427,vbt_B2_day3,2022.2.4,MacIntel,59.99880002,,,,,,down,0,10.8254,,-0.060338542,-0.068368056,1,0,0,0,43,43,47,1,kabel,images/br_kabel.png,images/cb_kabel.png,0,,,,,,,,,,,,,,,,,,,,,,
,,,,,00047,2023-10-19_20h18.44.427,vbt_B2_day3,2022.2.4,MacIntel,59.99880002,,,,,,down,0,4.5186,,-0.060338542,-0.068368056,1,0,0,0,44,44,111,1,ticket,images/br_ticket.png,images/cb_ticket.png,0,,,,,,,,,,,,,,,,,,,,,,
,,,,,00047,2023-10-19_20h18.44.427,vbt_B2_day3,2022.2.4,MacIntel,59.99880002,,,,,,down,0,8.0455,,-0.060338542,-0.068368056,1,0,0,0,45,45,193,1,weeshuis,images/br_weeshuis.png,images/cb_weeshuis.png,0,,,,,,,,,,,,,,,,,,,,,,
,,,,,00047,2023-10-19_20h18.44.427,vbt_B2_day3,2022.2.4,MacIntel,59.99880002,,,,,,down,0,15.3906,,-0.060338542,-0.068368056,1,0,0,0,46,46,184,1,aandelen,images/br_aandelen.png,images/cb_aandelen.png,0,,,,,,,,,,,,,,,,,,,,,,
,,,,,00047,2023-10-19_20h18.44.427,vbt_B2_day3,2022.2.4,MacIntel,59.99880002,,,,,,down,0,7.9,,-0.060338542,-0.068368056,1,0,0,0,47,47,58,1,tekst,images/br_tekst.png,images/cb_tekst.png,0,,,,,,,,,,,,,,,,,,,,,,
,,,,,00047,2023-10-19_20h18.44.427,vbt_B2_day3,2022.2.4,MacIntel,59.99880002,,,,,,down,0,21.9387,,-0.060338542,-0.068368056,1,0,0,0,48,48,113,1,koppen,images/br_koppen.png,images/cb_koppen.png,0,,,,,,,,,,,,,,,,,,,,,,
,,,,,00047,2023-10-19_20h18.44.427,vbt_B2_day3,2022.2.4,MacIntel,59.99880002,,,,,,down,0,7.8308,,-0.060338542,-0.068368056,1,0,0,0,49,49,107,1,maling,images/br_maling.png,images/cb_maling.png,0,,,,,,,,,,,,,,,,,,,,,,
,,,,,00047,2023-10-19_20h18.44.427,vbt_B2_day3,2022.2.4,MacIntel,59.99880002,,,,,,down,0,6.2525,,-0.060338542,-0.068368056,1,0,0,0,50,50,128,1,prikken,images/br_prikken.png,images/cb_prikken.png,0,,,,,,,,,,,,,,,,,,,,,,
,,,,,00047,2023-10-19_20h18.44.427,vbt_B2_day3,2022.2.4,MacIntel,59.99880002,,,,,,down,0,9.5369,,-0.062421875,-0.08734375,1,0,0,0,51,51,92,1,geheim,images/br_geheim.png,images/cb_geheim.png,0,,,,,,,,,,,,,,,,,,,,,,
,,,,,00047,2023-10-19_20h18.44.427,vbt_B2_day3,2022.2.4,MacIntel,59.99880002,,,,,,down,0,2.6601,,-0.062421875,-0.08734375,1,0,0,0,52,52,33,1,vlek,images/br_vlek.png,images/cb_vlek.png,0,,,,,,,,,,,,,,,,,,,,,,
,,,,,00047,2023-10-19_20h18.44.427,vbt_B2_day3,2022.2.4,MacIntel,59.99880002,,,,,,down,0,19.3165,,-0.071796875,-0.098224826,1,0,0,0,53,53,4,1,moes,images/br_moes.png,images/cb_moes.png,0,,,,,,,,,,,,,,,,,,,,,,
,,,,,00047,2023-10-19_20h18.44.427,vbt_B2_day3,2022.2.4,MacIntel,59.99880002,,,,,,down,0,4.2742,,-0.011510417,-0.076605903,1,0,0,0,54,54,61,1,groen,images/br_groen.png,images/cb_groen.png,1,groen,,,,,,,,,,,,,,,,,,,,,
,,,,,00047,2023-10-19_20h18.44.427,vbt_B2_day3,2022.2.4,MacIntel,59.99880002,,,,,,down,0,30.9682,,-0.193407118,-0.049817708,1,0,0,0,55,55,163,1,schuilen,images/br_schuilen.png,images/cb_schuilen.png,0,,,,,,,,,,,,,,,,,,,,,,
,,,,,00047,2023-10-19_20h18.44.427,vbt_B2_day3,2022.2.4,MacIntel,59.99880002,,,,,,down,0,4.9336,,-0.193407118,-0.049817708,1,0,0,0,56,56,41,1,maken,images/br_maken.png,images/cb_maken.png,0,,,,,,,,,,,,,,,,,,,,,,
,,,,,00047,2023-10-19_20h18.44.427,vbt_B2_day3,2022.2.4,MacIntel,59.99880002,,,,,,down,0,2.0352,,-0.193407118,-0.049817708,1,0,0,0,57,57,138,1,akkoord,images/br_akkoord.png,images/cb_akkoord.png,0,,,,,,,,,,,,,,,,,,,,,,
,,,,,00047,2023-10-19_20h18.44.427,vbt_B2_day3,2022.2.4,MacIntel,59.99880002,,,,,,down,0,1.5457,,-0.19984375,-0.136883681,1,0,0,0,58,58,49,1,laken,images/br_laken.png,images/cb_laken.png,0,,,,,,,,,,,,,,,,,,,,,,
,,,,,00047,2023-10-19_20h18.44.427,vbt_B2_day3,2022.2.4,MacIntel,59.99880002,,,,,,down,0,3.4983,,-0.19984375,-0.136883681,1,0,0,0,59,59,95,1,vreten,images/br_vreten.png,images/cb_vreten.png,0,,,,,,,,,,,,,,,,,,,,,,
,,,,,00047,2023-10-19_20h18.44.427,vbt_B2_day3,2022.2.4,MacIntel,59.99880002,,,,,,down,0,38.8063,,-0.048255368,-0.061622891,1,0,0,0,60,60,157,1,uitlaat,images/br_uitlaat.png,images/cb_uitlaat.png,0,,,,,,,,,,,,,,,,,,,,,,
,,,,,00047,2023-10-19_20h18.44.427,vbt_B2_day3,2022.2.4,MacIntel,59.99880002,,,,,,down,0,46.2907,,-0.077482745,0.064086465,1,0,0,0,61,61,31,1,poes,images/br_poes.png,images/cb_poes.png,0,,,,,,,,,,,,,,,,,,,,,,
,,,,,00047,2023-10-19_20h18.44.427,vbt_B2_day3,2022.2.4,MacIntel,59.99880002,,,,,,down,0,8.5914,,-0.379074003,0.286790644,1,0,0,0,62,62,137,1,trekker,images/br_trekker.png,images/cb_trekker.png,0,,,,,,,,,,,,,,,,,,,,,,
,,,,,00047,2023-10-19_20h18.44.427,vbt_B2_day3,2022.2.4,MacIntel,59.99880002,,,,,,down,0,2.2846,,-0.419416219,0.194713382,1,0,0,0,63,63,21,1,mist,images/br_mist.png,images/cb_mist.png,1,mist,,,,,,,,,,,,,,,,,,,,,
,,,,,00047,2023-10-19_20h18.44.427,vbt_B2_day3,2022.2.4,MacIntel,59.99880002,,,,,,down,0,2.7443,,-0.419416219,0.194713382,1,0,0,0,64,64,127,1,doodmoe,images/br_doodmoe.png,images/cb_doodmoe.png,0,,,,,,,,,,,,,,,,,,,,,,
,,,,,00047,2023-10-19_20h18.44.427,vbt_B2_day3,2022.2.4,MacIntel,59.99880002,,,,,,down,0,6.3018,,-0.419416219,0.194713382,1,0,0,0,65,65,91,1,gezond,images/br_gezond.png,images/cb_gezond.png,0,,,,,,,,,,,,,,,,,,,,,,
,,,,,00047,2023-10-19_20h18.44.427,vbt_B2_day3,2022.2.4,MacIntel,59.99880002,,,,,,down,0,5.9227,,-0.419416219,0.194713382,1,0,0,0,66,66,179,1,woestijn,images/br_woestijn.png,images/cb_woestijn.png,0,,,,,,,,,,,,,,,,,,,,,,
,,,,,00047,2023-10-19_20h18.44.427,vbt_B2_day3,2022.2.4,MacIntel,59.99880002,,,,,,down,0,5.4089,,-0.419416219,0.194713382,1,0,0,0,67,67,191,1,opheffen,images/br_opheffen.png,images/cb_opheffen.png,0,,,,,,,,,,,,,,,,,,,,,,
,,,,,00047,2023-10-19_20h18.44.427,vbt_B2_day3,2022.2.4,MacIntel,59.99880002,,,,,,down,0,1.8331,,-0.419416219,0.194713382,1,0,0,0,68,68,7,1,geld,images/br_geld.png,images/cb_geld.png,0,,,,,,,,,,,,,,,,,,,,,,
,,,,,00047,2023-10-19_20h18.44.427,vbt_B2_day3,2022.2.4,MacIntel,59.99880002,,,,,,down,0,1.6508,,-0.419416219,0.194713382,1,0,0,0,69,69,115,1,kleren,images/br_kleren.png,images/cb_kleren.png,0,,,,,,,,,,,,,,,,,,,,,,
,,,,,00047,2023-10-19_20h18.44.427,vbt_B2_day3,2022.2.4,MacIntel,59.99880002,,,,,,down,0,6.709,,-0.419416219,0.194713382,1,0,0,0,70,70,195,1,middelen,images/br_middelen.png,images/cb_middelen.png,0,,,,,,,,,,,,,,,,,,,,,,
,,,,,00047,2023-10-19_20h18.44.427,vbt_B2_day3,2022.2.4,MacIntel,59.99880002,,,,,,down,0,15.9206,,-0.419416219,0.194713382,1,0,0,0,71,71,129,1,verhaal,images/br_verhaal.png,images/cb_verhaal.png,0,,,,,,,,,,,,,,,,,,,,,,
,,,,,00047,2023-10-19_20h18.44.427,vbt_B2_day3,2022.2.4,MacIntel,59.99880002,,,,,,down,0,11.5222,,-0.419416219,0.194713382,1,0,0,0,72,72,70,1,ijdel,images/br_ijdel.png,images/cb_ijdel.png,0,,,,,,,,,,,,,,,,,,,,,,
,,,,,00047,2023-10-19_20h18.44.427,vbt_B2_day3,2022.2.4,MacIntel,59.99880002,,,,,,down,0,15.5755,,-0.419416219,0.194713382,1,0,0,0,73,73,120,1,klimmen,images/br_klimmen.png,images/cb_klimmen.png,0,,,,,,,,,,,,,,,,,,,,,,
,,,,,00047,2023-10-19_20h18.44.427,vbt_B2_day3,2022.2.4,MacIntel,59.99880002,,,,,,down,0,5.2363,,-0.419416219,0.194713382,1,0,0,0,74,74,171,1,aarzelen,images/br_aarzelen.png,images/cb_aarzelen.png,0,,,,,,,,,,,,,,,,,,,,,,
,,,,,00047,2023-10-19_20h18.44.427,vbt_B2_day3,2022.2.4,MacIntel,59.99880002,,,,,,down,0,6.2181,,-0.419416219,0.194713382,1,0,0,0,75,75,192,1,schaamte,images/br_schaamte.png,images/cb_schaamte.png,0,,,,,,,,,,,,,,,,,,,,,,
,,,,,00047,2023-10-19_20h18.44.427,vbt_B2_day3,2022.2.4,MacIntel,59.99880002,,,,,,down,0,5.2908,,-0.419416219,0.194713382,1,0,0,0,76,76,32,1,palm,images/br_palm.png,images/cb_palm.png,0,,,,,,,,,,,,,,,,,,,,,,
,,,,,00047,2023-10-19_20h18.44.427,vbt_B2_day3,2022.2.4,MacIntel,59.99880002,,,,,,down,0,9.7695,,-0.38701112,0.062212423,1,0,0,0,77,77,181,1,toegeven,images/br_toegeven.png,images/cb_toegeven.png,1,toegeven,,,,,,,,,,,,,,,,,,,,,
,,,,,00047,2023-10-19_20h18.44.427,vbt_B2_day3,2022.2.4,MacIntel,59.99880002,,,,,,down,0,3.6662,,-0.390303873,-0.002161618,1,0,0,0,78,78,197,1,spanning,images/br_spanning.png,images/cb_spanning.png,0,,,,,,,,,,,,,,,,,,,,,,
,,,,,00047,2023-10-19_20h18.44.427,vbt_B2_day3,2022.2.4,MacIntel,59.99880002,,,,,,down,0,0.9138,,-0.390303873,-0.002161618,1,0,0,0,79,79,10,1,leek,images/br_leek.png,images/cb_leek.png,0,,,,,,,,,,,,,,,,,,,,,,
,,,,,00047,2023-10-19_20h18.44.427,vbt_B2_day3,2022.2.4,MacIntel,59.99880002,,,,,,down,0,0.7823,,-0.390303873,-0.002161618,1,0,0,0,80,80,150,1,gegeven,images/br_gegeven.png,images/cb_gegeven.png,0,,,,,,,,,,,,,,,,,,,,,,
,,,,,00047,2023-10-19_20h18.44.427,vbt_B2_day3,2022.2.4,MacIntel,59.99880002,,,,,,down,0,1.0774,,-0.390303873,-0.002161618,1,0,0,0,81,81,144,1,eetlust,images/br_eetlust.png,images/cb_eetlust.png,0,,,,,,,,,,,,,,,,,,,,,,
,,,,,00047,2023-10-19_20h18.44.427,vbt_B2_day3,2022.2.4,MacIntel,59.99880002,,,,,,down,0,3.1175,,-0.390303873,-0.002161618,1,0,0,0,82,82,97,1,loyaal,images/br_loyaal.png,images/cb_loyaal.png,0,,,,,,,,,,,,,,,,,,,,,,
,,,,,00047,2023-10-19_20h18.44.427,vbt_B2_day3,2022.2.4,MacIntel,59.99880002,,,,,,down,0,2.4099,,-0.390303873,-0.002161618,1,0,0,0,83,83,186,1,voorraad,images/br_voorraad.png,images/cb_voorraad.png,0,,,,,,,,,,,,,,,,,,,,,,
,,,,,00047,2023-10-19_20h18.44.427,vbt_B2_day3,2022.2.4,MacIntel,59.99880002,,,,,,down,0,7.9369,,-0.469579179,-0.001207822,1,0,0,0,84,84,63,1,flirt,images/br_flirt.png,images/cb_flirt.png,1,flirt,,,,,,,,,,,,,,,,,,,,,
,,,,,00047,2023-10-19_20h18.44.427,vbt_B2_day3,2022.2.4,MacIntel,59.99880002,,,,,,down,0,12.3156,,-0.44461273,-0.061162768,1,0,0,0,85,85,9,1,hier,images/br_hier.png,images/cb_hier.png,0,,,,,,,,,,,,,,,,,,,,,,
,,,,,00047,2023-10-19_20h18.44.427,vbt_B2_day3,2022.2.4,MacIntel,59.99880002,,,,,,down,0,3.2011,,-0.44461273,-0.061162768,1,0,0,0,86,86,139,1,stiekem,images/br_stiekem.png,images/cb_stiekem.png,0,,,,,,,,,,,,,,,,,,,,,,
,,,,,00047,2023-10-19_20h18.44.427,vbt_B2_day3,2022.2.4,MacIntel,59.99880002,,,,,,down,0,2.3339,,-0.44461273,-0.061162768,1,0,0,0,87,87,74,1,graaf,images/br_graaf.png,images/cb_graaf.png,0,,,,,,,,,,,,,,,,,,,,,,
,,,,,00047,2023-10-19_20h18.44.427,vbt_B2_day3,2022.2.4,MacIntel,59.99880002,,,,,,down,0,4.1707,,-0.44461273,-0.061162768,1,0,0,0,88,88,170,1,schatten,images/br_schatten.png,images/cb_schatten.png,0,,,,,,,,,,,,,,,,,,,,,,
,,,,,00047,2023-10-19_20h18.44.427,vbt_B2_day3,2022.2.4,MacIntel,59.99880002,,,,,,down,0,1.5214,,-0.428503643,-0.075052722,1,0,0,0,89,89,119,1,liefje,images/br_liefje.png,images/cb_liefje.png,0,,,,,,,,,,,,,,,,,,,,,,
,,,,,00047,2023-10-19_20h18.44.427,vbt_B2_day3,2022.2.4,MacIntel,59.99880002,,,,,,down,0,2.3999,,-0.428503643,-0.075052722,1,0,0,0,90,90,40,1,schep,images/br_schep.png,images/cb_schep.png,0,,,,,,,,,,,,,,,,,,,,,,
,,,,,00047,2023-10-19_20h18.44.427,vbt_B2_day3,2022.2.4,MacIntel,59.99880002,,,,,,down,0,7.944,,-0.428503643,-0.075052722,1,0,0,0,91,91,109,1,totaal,images/br_totaal.png,images/cb_totaal.png,0,,,,,,,,,,,,,,,,,,,,,,
,,,,,00047,2023-10-19_20h18.44.427,vbt_B2_day3,2022.2.4,MacIntel,59.99880002,,,,,,down,0,7.1744,,-0.428503643,-0.075052722,1,0,0,0,92,92,88,1,boeien,images/br_boeien.png,images/cb_boeien.png,0,,,,,,,,,,,,,,,,,,,,,,
,,,,,00047,2023-10-19_20h18.44.427,vbt_B2_day3,2022.2.4,MacIntel,59.99880002,,,,,,down,0,23.2273,,-0.219200537,-0.040083397,1,0,0,0,93,93,126,1,kasteel,images/br_kasteel.png,images/cb_kasteel.png,0,,,,,,,,,,,,,,,,,,,,,,
,,,,,00047,2023-10-19_20h18.44.427,vbt_B2_day3,2022.2.4,MacIntel,59.99880002,,,,,,down,0,3.4644,,-0.219200537,-0.040083397,1,0,0,0,94,94,114,1,vullen,images/br_vullen.png,images/cb_vullen.png,0,,,,,,,,,,,,,,,,,,,,,,
,,,,,00047,2023-10-19_20h18.44.427,vbt_B2_day3,2022.2.4,MacIntel,59.99880002,,,,,,down,0,2.2824,,-0.219200537,-0.040083397,1,0,0,0,95,95,66,1,lever,images/br_lever.png,images/cb_lever.png,0,,,,,,,,,,,,,,,,,,,,,,
,,,,,00047,2023-10-19_20h18.44.427,vbt_B2_day3,2022.2.4,MacIntel,59.99880002,,,,,,down,0,3.6026,,-0.266128259,-0.059614647,1,0,0,0,96,96,15,1,soda,images/br_soda.png,images/cb_soda.png,0,,,,,,,,,,,,,,,,,,,,,,
,,,,,00047,2023-10-19_20h18.44.427,vbt_B2_day3,2022.2.4,MacIntel,59.99880002,,,,,,down,0,1.9889,,-0.266128259,-0.059614647,1,0,0,0,97,97,1,1,zaal,images/br_zaal.png,images/cb_zaal.png,0,,,,,,,,,,,,,,,,,,,,,,
,,,,,00047,2023-10-19_20h18.44.427,vbt_B2_day3,2022.2.4,MacIntel,59.99880002,,,,,,down,0,40.1526,,-0.266128259,-0.059614647,1,0,0,0,98,98,173,1,apparaat,images/br_apparaat.png,images/cb_apparaat.png,0,,,,,,,,,,,,,,,,,,,,,,
,,,,,00047,2023-10-19_20h18.44.427,vbt_B2_day3,2022.2.4,MacIntel,59.99880002,,,,,,down,0,3.8806,,-0.374539877,-0.098379985,1,0,0,0,99,99,62,1,knaap,images/br_knaap.png,images/cb_knaap.png,1,knaap,,,,,,,,,,,,,,,,,,,,,
,,,,,00047,2023-10-19_20h18.44.427,vbt_B2_day3,2022.2.4,MacIntel,59.99880002,,,,,,down,0,4.6668,,-0.372071511,-0.094147814,1,0,0,0,100,100,30,1,uien,images/br_uien.png,images/cb_uien.png,0,,,,,,,,,,,,,,,,,,,,,,
,,,,,00047,2023-10-19_20h18.44.427,vbt_B2_day3,2022.2.4,MacIntel,59.99880002,,,,,,down,0,6.5512,,-0.372071511,-0.094147814,1,0,0,0,101,101,60,1,jasje,images/br_jasje.png,images/cb_jasje.png,1,jasje,,,,,,,,,,,,,,,,,,,,,
,,,,,00047,2023-10-19_20h18.44.427,vbt_B2_day3,2022.2.4,MacIntel,59.99880002,,,,,,down,0,3.9739,,-0.372071511,-0.094147814,1,0,0,0,102,102,177,1,maaltijd,images/br_maaltijd.png,images/cb_maaltijd.png,0,,,,,,,,,,,,,,,,,,,,,,
,,,,,00047,2023-10-19_20h18.44.427,vbt_B2_day3,2022.2.4,MacIntel,59.99880002,,,,,,down,0,1.1005,,-0.372071511,-0.094147814,1,0,0,0,103,103,8,1,knie,images/br_knie.png,images/cb_knie.png,0,,,,,,,,,,,,,,,,,,,,,,
,,,,,00047,2023-10-19_20h18.44.427,vbt_B2_day3,2022.2.4,MacIntel,59.99880002,,,,,,down,0,1.8198,,-0.372071511,-0.094147814,1,0,0,0,104,104,42,1,bleek,images/br_bleek.png,images/cb_bleek.png,0,,,,,,,,,,,,,,,,,,,,,,
,,,,,00047,2023-10-19_20h18.44.427,vbt_B2_day3,2022.2.4,MacIntel,59.99880002,,,,,,down,0,3.4312,,-0.372071511,-0.094147814,1,0,0,0,105,105,75,1,snoep,images/br_snoep.png,images/cb_snoep.png,0,,,,,,,,,,,,,,,,,,,,,,
,,,,,00047,2023-10-19_20h18.44.427,vbt_B2_day3,2022.2.4,MacIntel,59.99880002,,,,,,down,0,14.53,,-0.362437692,-0.049209164,1,0,0,0,106,106,101,1,staren,images/br_staren.png,images/cb_staren.png,1,staren,,,,,,,,,,,,,,,,,,,,,
,,,,,00047,2023-10-19_20h18.44.427,vbt_B2_day3,2022.2.4,MacIntel,59.99880002,,,,,,down,0,20.2053,,-0.362437692,-0.049209164,1,0,0,0,107,107,196,1,nakijken,images/br_nakijken.png,images/cb_nakijken.png,0,,,,,,,,,,,,,,,,,,,,,,
,,,,,00047,2023-10-19_20h18.44.427,vbt_B2_day3,2022.2.4,MacIntel,59.99880002,,,,,,down,0,5.4863,,-0.362437692,-0.049209164,1,0,0,0,108,108,64,1,wegen,images/br_wegen.png,images/cb_wegen.png,0,,,,,,,,,,,,,,,,,,,,,,
,,,,,00047,2023-10-19_20h18.44.427,vbt_B2_day3,2022.2.4,MacIntel,59.99880002,,,,,,down,0,7.6015,,-0.511987155,-0.012538344,1,0,0,0,109,109,182,1,bijkomen,images/br_bijkomen.png,images/cb_bijkomen.png,1,bijkomen,,,,,,,,,,,,,,,,,,,,,
,,,,,00047,2023-10-19_20h18.44.427,vbt_B2_day3,2022.2.4,MacIntel,59.99880002,,,,,,down,0,5.2505,,-0.511987155,-0.012538344,1,0,0,0,110,110,161,1,attentie,images/br_attentie.png,images/cb_attentie.png,0,,,,,,,,,,,,,,,,,,,,,,
,,,,,00047,2023-10-19_20h18.44.427,vbt_B2_day3,2022.2.4,MacIntel,59.99880002,,,,,,down,0,9.0433,,-0.511987155,-0.012538344,1,0,0,0,111,111,169,1,oprotten,images/br_oprotten.png,images/cb_oprotten.png,0,,,,,,,,,,,,,,,,,,,,,,
,,,,,00047,2023-10-19_20h18.44.427,vbt_B2_day3,2022.2.4,MacIntel,59.99880002,,,,,,down,0,8.3633,,-0.511987155,-0.012538344,1,0,0,0,112,112,194,1,driemaal,images/br_driemaal.png,images/cb_driemaal.png,0,,,,,,,,,,,,,,,,,,,,,,
,,,,,00047,2023-10-19_20h18.44.427,vbt_B2_day3,2022.2.4,MacIntel,59.99880002,,,,,,down,0,6.839,,-0.511987155,-0.012538344,1,0,0,0,113,113,132,1,grappen,images/br_grappen.png,images/cb_grappen.png,0,,,,,,,,,,,,,,,,,,,,,,
,,,,,00047,2023-10-19_20h18.44.427,vbt_B2_day3,2022.2.4,MacIntel,59.99880002,,,,,,down,0,0.3825,,-0.511987155,-0.019253259,1,0,0,0,114,114,29,1,baas,images/br_baas.png,images/cb_baas.png,0,,,,,,,,,,,,,,,,,,,,,,
,,,,,00047,2023-10-19_20h18.44.427,vbt_B2_day3,2022.2.4,MacIntel,59.99880002,,,,,,down,0,2.7157,,-0.511987155,-0.019253259,1,0,0,0,115,115,11,1,mode,images/br_mode.png,images/cb_mode.png,0,,,,,,,,,,,,,,,,,,,,,,
,,,,,00047,2023-10-19_20h18.44.427,vbt_B2_day3,2022.2.4,MacIntel,59.99880002,,,,,,down,0,13.3225,,-0.512298696,-0.023370399,1,0,0,0,116,116,130,1,keihard,images/br_keihard.png,images/cb_keihard.png,0,,,,,,,,,,,,,,,,,,,,,,
,,,,,00047,2023-10-19_20h18.44.427,vbt_B2_day3,2022.2.4,MacIntel,59.99880002,,,,,,down,0,2.8225,,-0.497268021,-0.030670054,1,0,0,0,117,117,158,1,innemen,images/br_innemen.png,images/cb_innemen.png,0,,,,,,,,,,,,,,,,,,,,,,
,,,,,00047,2023-10-19_20h18.44.427,vbt_B2_day3,2022.2.4,MacIntel,59.99880002,,,,,,down,0,6.4844,,-0.495235813,-0.029706672,1,0,0,0,118,118,116,1,besmet,images/br_besmet.png,images/cb_besmet.png,0,,,,,,,,,,,,,,,,,,,,,,
,,,,,00047,2023-10-19_20h18.44.427,vbt_B2_day3,2022.2.4,MacIntel,59.99880002,,,,,,down,0,3.0505,,-0.495235813,-0.029706672,1,0,0,0,119,119,67,1,zwart,images/br_zwart.png,images/cb_zwart.png,0,,,,,,,,,,,,,,,,,,,,,,
,,,,,00047,2023-10-19_20h18.44.427,vbt_B2_day3,2022.2.4,MacIntel,59.99880002,,,,,,down,0,6.2886,,-0.49466066,-0.029984663,1,0,0,0,120,120,183,1,getuigen,images/br_getuigen.png,images/cb_getuigen.png,1,getuigen,,,,,,,,,,,,,,,,,,,,,
,,,,,00047,2023-10-19_20h18.44.427,vbt_B2_day3,2022.2.4,MacIntel,59.99880002,,,,,,down,0,1.837,,-0.463597584,0.027827837,1,0,0,0,121,121,22,1,stof,images/br_stof.png,images/cb_stof.png,1,stof,,,,,,,,,,,,,,,,,,,,,
,,,,,00047,2023-10-19_20h18.44.427,vbt_B2_day3,2022.2.4,MacIntel,59.99880002,,,,,,down,0,39.1986,,-0.463597584,0.027827837,1,0,0,0,122,122,156,1,rechten,images/br_rechten.png,images/cb_rechten.png,0,,,,,,,,,,,,,,,,,,,,,,
,,,,,00047,2023-10-19_20h18.44.427,vbt_B2_day3,2022.2.4,MacIntel,59.99880002,,,,,,down,0,11.0697,,-0.463597584,0.027827837,1,0,0,0,123,123,121,1,twijfel,images/br_twijfel.png,images/cb_twijfel.png,0,,,,,,,,,,,,,,,,,,,,,,
,,,,,00047,2023-10-19_20h18.44.427,vbt_B2_day3,2022.2.4,MacIntel,59.99880002,,,,,,down,0,31.765,,-0.463597584,0.027827837,1,0,0,0,124,124,185,1,mijnheer,images/br_mijnheer.png,images/cb_mijnheer.png,0,,,,,,,,,,,,,,,,,,,,,,
,,,,,00047,2023-10-19_20h18.44.427,vbt_B2_day3,2022.2.4,MacIntel,59.99880002,,,,,,down,0,3.0662,,-0.463597584,0.027827837,1,0,0,0,125,125,78,1,leren,images/br_leren.png,images/cb_leren.png,0,,,,,,,,,,,,,,,,,,,,,,
,,,,,00047,2023-10-19_20h18.44.427,vbt_B2_day3,2022.2.4,MacIntel,59.99880002,,,,,,down,0,26.3041,,0.00221434,-0.031456097,1,0,0,0,126,126,54,1,gebit,images/br_gebit.png,images/cb_gebit.png,0,,,,,,,,,,,,,,,,,,,,,,
,,,,,00047,2023-10-19_20h18.44.427,vbt_B2_day3,2022.2.4,MacIntel,59.99880002,,,,,,down,0,12.2844,,0.02150115,-0.007476994,1,0,0,0,127,127,143,1,hechten,images/br_hechten.png,images/cb_hechten.png,1,hechten,,,,,,,,,,,,,,,,,,,,,
,,,,,00047,2023-10-19_20h18.44.427,vbt_B2_day3,2022.2.4,MacIntel,59.99880002,,,,,,down,0,19.7344,,0.02150115,-0.007476994,1,0,0,0,128,128,77,1,woede,images/br_woede.png,images/cb_woede.png,0,,,,,,,,,,,,,,,,,,,,,,
,,,,,00047,2023-10-19_20h18.44.427,vbt_B2_day3,2022.2.4,MacIntel,59.99880002,,,,,,down,0,5.4497,,0.068333014,-0.112183666,1,0,0,0,129,129,27,1,dans,images/br_dans.png,images/cb_dans.png,0,,,,,,,,,,,,,,,,,,,,,,
,,,,,00047,2023-10-19_20h18.44.427,vbt_B2_day3,2022.2.4,MacIntel,59.99880002,,,,,,down,0,1.4058,,0.068333014,-0.112183666,1,0,0,0,130,130,25,1,plek,images/br_plek.png,images/cb_plek.png,0,,,,,,,,,,,,,,,,,,,,,,
,,,,,00047,2023-10-19_20h18.44.427,vbt_B2_day3,2022.2.4,MacIntel,59.99880002,,,,,,down,0,5.2207,,0.068333014,-0.112183666,1,0,0,0,131,131,6,1,diep,images/br_diep.png,images/cb_diep.png,0,,,,,,,,,,,,,,,,,,,,,,
,,,,,00047,2023-10-19_20h18.44.427,vbt_B2_day3,2022.2.4,MacIntel,59.99880002,,,,,,down,0,4.9631,,0.068333014,-0.112183666,1,0,0,0,132,132,59,1,kring,images/br_kring.png,images/cb_kring.png,0,,,,,,,,,,,,,,,,,,,,,,
,,,,,00047,2023-10-19_20h18.44.427,vbt_B2_day3,2022.2.4,MacIntel,59.99880002,,,,,,down,0,12.2984,,0.068333014,-0.112183666,1,0,0,0,133,133,46,1,jagen,images/br_jagen.png,images/cb_jagen.png,0,,,,,,,,,,,,,,,,,,,,,,
,,,,,00047,2023-10-19_20h18.44.427,vbt_B2_day3,2022.2.4,MacIntel,59.99880002,,,,,,down,0,5.6519,,0.068333014,-0.112183666,1,0,0,0,134,134,135,1,gedicht,images/br_gedicht.png,images/cb_gedicht.png,0,,,,,,,,,,,,,,,,,,,,,,
,,,,,00047,2023-10-19_20h18.44.427,vbt_B2_day3,2022.2.4,MacIntel,59.99880002,,,,,,down,0,4.3842,,0.068333014,-0.112183666,1,0,0,0,135,135,24,1,jurk,images/br_jurk.png,images/cb_jurk.png,0,,,,,,,,,,,,,,,,,,,,,,
,,,,,00047,2023-10-19_20h18.44.427,vbt_B2_day3,2022.2.4,MacIntel,59.99880002,,,,,,down,0,27.7206,,0.068333014,-0.112183666,1,0,0,0,136,136,136,1,waarbij,images/br_waarbij.png,images/cb_waarbij.png,0,,,,,,,,,,,,,,,,,,,,,,
,,,,,00047,2023-10-19_20h18.44.427,vbt_B2_day3,2022.2.4,MacIntel,59.99880002,,,,,,down,0,10.4007,,0.068333014,-0.112183666,1,0,0,0,137,137,123,1,hiervan,images/br_hiervan.png,images/cb_hiervan.png,0,,,,,,,,,,,,,,,,,,,,,,
,,,,,00047,2023-10-19_20h18.44.427,vbt_B2_day3,2022.2.4,MacIntel,59.99880002,,,,,,down,0,3.6209,,0.068333014,-0.112183666,1,0,0,0,138,138,12,1,kust,images/br_kust.png,images/cb_kust.png,0,,,,,,,,,,,,,,,,,,,,,,
,,,,,00047,2023-10-19_20h18.44.427,vbt_B2_day3,2022.2.4,MacIntel,59.99880002,,,,,,down,0,0.9275,,0.068333014,-0.112183666,1,0,0,0,139,139,17,1,taal,images/br_taal.png,images/cb_taal.png,0,,,,,,,,,,,,,,,,,,,,,,
,,,,,00047,2023-10-19_20h18.44.427,vbt_B2_day3,2022.2.4,MacIntel,59.99880002,,,,,,down,0,7.6662,,0.068333014,-0.112183666,1,0,0,0,140,140,124,1,bloeien,images/br_bloeien.png,images/cb_bloeien.png,0,,,,,,,,,,,,,,,,,,,,,,
,,,,,00047,2023-10-19_20h18.44.427,vbt_B2_day3,2022.2.4,MacIntel,59.99880002,,,,,,down,0,5.9669,,0.068333014,-0.112183666,1,0,0,0,141,141,159,1,sufferd,images/br_sufferd.png,images/cb_sufferd.png,0,,,,,,,,,,,,,,,,,,,,,,
,,,,,00047,2023-10-19_20h18.44.427,vbt_B2_day3,2022.2.4,MacIntel,59.99880002,,,,,,down,0,3.586,,0.068333014,-0.112183666,1,0,0,0,142,142,45,1,piste,images/br_piste.png,images/cb_piste.png,0,,,,,,,,,,,,,,,,,,,,,,
,,,,,00047,2023-10-19_20h18.44.427,vbt_B2_day3,2022.2.4,MacIntel,59.99880002,,,,,,down,0,5.022,,0.068333014,-0.112183666,1,0,0,0,143,143,110,1,zuster,images/br_zuster.png,images/cb_zuster.png,0,,,,,,,,,,,,,,,,,,,,,,
,,,,,00047,2023-10-19_20h18.44.427,vbt_B2_day3,2022.2.4,MacIntel,59.99880002,,,,,,down,0,4.9015,,0.068333014,-0.112183666,1,0,0,0,144,144,90,1,geluid,images/br_geluid.png,images/cb_geluid.png,0,,,,,,,,,,,,,,,,,,,,,,
,,,,,00047,2023-10-19_20h18.44.427,vbt_B2_day3,2022.2.4,MacIntel,59.99880002,,,,,,down,0,2.7108,,0.068333014,-0.112183666,1,0,0,0,145,145,57,1,steek,images/br_steek.png,images/cb_steek.png,0,,,,,,,,,,,,,,,,,,,,,,
,,,,,00047,2023-10-19_20h18.44.427,vbt_B2_day3,2022.2.4,MacIntel,59.99880002,,,,,,down,0,20.7201,,0.068333014,-0.112183666,1,0,0,0,146,146,80,1,kanjer,images/br_kanjer.png,images/cb_kanjer.png,0,,,,,,,,,,,,,,,,,,,,,,
,,,,,00047,2023-10-19_20h18.44.427,vbt_B2_day3,2022.2.4,MacIntel,59.99880002,,,,,,down,0,2.5853,,-0.125047929,-0.116492523,1,0,0,0,147,147,102,1,legaal,images/br_legaal.png,images/cb_legaal.png,1,legaal,,,,,,,,,,,,,,,,,,,,,
,,,,,00047,2023-10-19_20h18.44.427,vbt_B2_day3,2022.2.4,MacIntel,59.99880002,,,,,,down,0,4.1167,,-0.125047929,-0.116492523,1,0,0,0,148,148,151,1,aanzoek,images/br_aanzoek.png,images/cb_aanzoek.png,0,,,,,,,,,,,,,,,,,,,,,,
,,,,,00047,2023-10-19_20h18.44.427,vbt_B2_day3,2022.2.4,MacIntel,59.99880002,,,,,,down,0,4.8361,,-0.125047929,-0.116492523,1,0,0,0,149,149,84,1,lokken,images/br_lokken.png,images/cb_lokken.png,0,,,,,,,,,,,,,,,,,,,,,,
,,,,,00047,2023-10-19_20h18.44.427,vbt_B2_day3,2022.2.4,MacIntel,59.99880002,,,,,,down,0,1.5174,,-0.125047929,-0.116492523,1,0,0,0,150,150,89,1,slapen,images/br_slapen.png,images/cb_slapen.png,0,,,,,,,,,,,,,,,,,,,,,,
,,,,,00047,2023-10-19_20h18.44.427,vbt_B2_day3,2022.2.4,MacIntel,59.99880002,,,,,,down,0,3.3854,,-0.125047929,-0.116492523,1,0,0,0,151,151,83,1,mening,images/br_mening.png,images/cb_mening.png,0,,,,,,,,,,,,,,,,,,,,,,
,,,,,00047,2023-10-19_20h18.44.427,vbt_B2_day3,2022.2.4,MacIntel,59.99880002,,,,,,down,0,27.6669,,-0.125047929,-0.116492523,1,0,0,0,152,152,172,1,weigeren,images/br_weigeren.png,images/cb_weigeren.png,0,,,,,,,,,,,,,,,,,,,,,,
,,,,,00047,2023-10-19_20h18.44.427,vbt_B2_day3,2022.2.4,MacIntel,59.99880002,,,,,,down,0,1.9038,,-0.125047929,-0.116492523,1,0,0,0,153,153,68,1,schat,images/br_schat.png,images/cb_schat.png,0,,,,,,,,,,,,,,,,,,,,,,
,,,,,00047,2023-10-19_20h18.44.427,vbt_B2_day3,2022.2.4,MacIntel,59.99880002,,,,,,down,0,1.067,,-0.125047929,-0.116492523,1,0,0,0,154,154,125,1,aanzien,images/br_aanzien.png,images/cb_aanzien.png,0,,,,,,,,,,,,,,,,,,,,,,
,,,,,00047,2023-10-19_20h18.44.427,vbt_B2_day3,2022.2.4,MacIntel,59.99880002,,,,,,down,0,5.9705,,-0.125047929,-0.116492523,1,0,0,0,155,155,140,1,blijven,images/br_blijven.png,images/cb_blijven.png,1,,,,,,,,,,,,,,,,,,,,,,
,,,,,00047,2023-10-19_20h18.44.427,vbt_B2_day3,2022.2.4,MacIntel,59.99880002,,,,,,down,0,17.8341,,-0.125047929,-0.116492523,1,0,0,0,156,156,187,1,opkijken,images/br_opkijken.png,images/cb_opkijken.png,0,,,,,,,,,,,,,,,,,,,,,,
,,,,,00047,2023-10-19_20h18.44.427,vbt_B2_day3,2022.2.4,MacIntel,59.99880002,,,,,,down,0,6.7516,,-0.125047929,-0.116492523,1,0,0,0,157,157,174,1,stemming,images/br_stemming.png,images/cb_stemming.png,0,,,,,,,,,,,,,,,,,,,,,,
,,,,,00047,2023-10-19_20h18.44.427,vbt_B2_day3,2022.2.4,MacIntel,59.99880002,,,,,,down,0,3.6752,,-0.125047929,-0.116492523,1,0,0,0,158,158,164,1,anarchie,images/br_anarchie.png,images/cb_anarchie.png,0,,,,,,,,,,,,,,,,,,,,,,
,,,,,00047,2023-10-19_20h18.44.427,vbt_B2_day3,2022.2.4,MacIntel,59.99880002,,,,,,down,0,10.7771,,-0.125047929,-0.116492523,1,0,0,0,159,159,147,1,komisch,images/br_komisch.png,images/cb_komisch.png,0,,,,,,,,,,,,,,,,,,,,,,
,,,,,00047,2023-10-19_20h18.44.427,vbt_B2_day3,2022.2.4,MacIntel,59.99880002,,,,,,down,0,5.9334,,-0.125047929,-0.116492523,1,0,0,0,160,160,167,1,eenhoorn,images/br_eenhoorn.png,images/cb_eenhoorn.png,0,,,,,,,,,,,,,,,,,,,,,,
,,,,,00047,2023-10-19_20h18.44.427,vbt_B2_day3,2022.2.4,MacIntel,59.99880002,,,,,,down,0,0.63,,-0.125047929,-0.116492523,1,0,0,0,161,161,13,1,kaal,images/br_kaal.png,images/cb_kaal.png,0,,,,,,,,,,,,,,,,,,,,,,
,,,,,00047,2023-10-19_20h18.44.427,vbt_B2_day3,2022.2.4,MacIntel,59.99880002,,,,,,down,0,20.3039,,-0.125047929,-0.116492523,1,0,0,0,162,162,198,1,bedoelen,images/br_bedoelen.png,images/cb_bedoelen.png,0,,,,,,,,,,,,,,,,,,,,,,
,,,,,00047,2023-10-19_20h18.44.427,vbt_B2_day3,2022.2.4,MacIntel,59.99880002,,,,,,down,0,54.9806,,-0.125047929,-0.116492523,1,0,0,0,163,163,87,1,toeval,images/br_toeval.png,images/cb_toeval.png,0,,,,,,,,,,,,,,,,,,,,,,
,,,,,00047,2023-10-19_20h18.44.427,vbt_B2_day3,2022.2.4,MacIntel,59.99880002,,,,,,down,0,2.2991,,-0.125047929,-0.116492523,1,0,0,0,164,164,36,1,vuur,images/br_vuur.png,images/cb_vuur.png,0,,,,,,,,,,,,,,,,,,,,,,
,,,,,00047,2023-10-19_20h18.44.427,vbt_B2_day3,2022.2.4,MacIntel,59.99880002,,,,,,down,0,0.4768,,-0.125047929,-0.116492523,1,0,0,0,165,165,38,1,baai,images/br_baai.png,images/cb_baai.png,0,,,,,,,,,,,,,,,,,,,,,,
,,,,,00047,2023-10-19_20h18.44.427,vbt_B2_day3,2022.2.4,MacIntel,59.99880002,,,,,,down,0,7.3923,,-0.271180023,-0.08079467,1,0,0,0,166,166,142,1,snuiven,images/br_snuiven.png,images/cb_snuiven.png,1,snuiven,,,,,,,,,,,,,,,,,,,,,
,,,,,00047,2023-10-19_20h18.44.427,vbt_B2_day3,2022.2.4,MacIntel,59.99880002,,,,,,down,0,4.1387,,-0.271180023,-0.08079467,1,0,0,0,167,167,26,1,leuk,images/br_leuk.png,images/cb_leuk.png,0,,,,,,,,,,,,,,,,,,,,,,
,,,,,00047,2023-10-19_20h18.44.427,vbt_B2_day3,2022.2.4,MacIntel,59.99880002,,,,,,down,0,6.3671,,-0.271180023,-0.08079467,1,0,0,0,168,168,43,1,klauw,images/br_klauw.png,images/cb_klauw.png,0,,,,,,,,,,,,,,,,,,,,,,
,,,,,00047,2023-10-19_20h18.44.427,vbt_B2_day3,2022.2.4,MacIntel,59.99880002,,,,,,down,0,1.2978,,-0.271180023,-0.08079467,1,0,0,0,169,169,51,1,samen,images/br_samen.png,images/cb_samen.png,0,,,,,,,,,,,,,,,,,,,,,,
,,,,,00047,2023-10-19_20h18.44.427,vbt_B2_day3,2022.2.4,MacIntel,59.99880002,,,,,,down,0,4.9658,,-0.271180023,-0.08079467,1,0,0,0,170,170,105,1,wijlen,images/br_wijlen.png,images/cb_wijlen.png,0,,,,,,,,,,,,,,,,,,,,,,
,,,,,00047,2023-10-19_20h18.44.427,vbt_B2_day3,2022.2.4,MacIntel,59.99880002,,,,,,down,0,4.999,,-0.271180023,-0.08079467,1,0,0,0,171,171,106,1,zingen,images/br_zingen.png,images/cb_zingen.png,0,,,,,,,,,,,,,,,,,,,,,,
,,,,,00047,2023-10-19_20h18.44.427,vbt_B2_day3,2022.2.4,MacIntel,59.99880002,,,,,,down,0,2.6973,,-0.271180023,-0.08079467,1,0,0,0,172,172,37,1,mijn,images/br_mijn.png,images/cb_mijn.png,0,,,,,,,,,,,,,,,,,,,,,,
,,,,,00047,2023-10-19_20h18.44.427,vbt_B2_day3,2022.2.4,MacIntel,59.99880002,,,,,,down,0,1.3007,,-0.271180023,-0.08079467,1,0,0,0,173,173,148,1,smullen,images/br_smullen.png,images/cb_smullen.png,0,,,,,,,,,,,,,,,,,,,,,,
,,,,,00047,2023-10-19_20h18.44.427,vbt_B2_day3,2022.2.4,MacIntel,59.99880002,,,,,,down,0,0.7007,,-0.271180023,-0.08079467,1,0,0,0,174,174,39,1,laag,images/br_laag.png,images/cb_laag.png,0,,,,,,,,,,,,,,,,,,,,,,
,,,,,00047,2023-10-19_20h18.44.427,vbt_B2_day3,2022.2.4,MacIntel,59.99880002,,,,,,down,0,7.3603,,-0.271180023,-0.08079467,1,0,0,0,175,175,98,1,kreeft,images/br_kreeft.png,images/cb_kreeft.png,0,,,,,,,,,,,,,,,,,,,,,,
,,,,,00047,2023-10-19_20h18.44.427,vbt_B2_day3,2022.2.4,MacIntel,59.99880002,,,,,,down,0,15.0405,,-0.271180023,-0.08079467,1,0,0,0,176,176,94,1,oceaan,images/br_oceaan.png,images/cb_oceaan.png,0,,,,,,,,,,,,,,,,,,,,,,
,,,,,00047,2023-10-19_20h18.44.427,vbt_B2_day3,2022.2.4,MacIntel,59.99880002,,,,,,down,0,0.8923,,-0.271180023,-0.08079467,1,0,0,0,177,177,35,1,lust,images/br_lust.png,images/cb_lust.png,0,,,,,,,,,,,,,,,,,,,,,,
,,,,,00047,2023-10-19_20h18.44.427,vbt_B2_day3,2022.2.4,MacIntel,59.99880002,,,,,,down,0,6.9999,,-0.271180023,-0.08079467,1,0,0,0,178,178,79,1,nodig,images/br_nodig.png,images/cb_nodig.png,0,,,,,,,,,,,,,,,,,,,,,,
,,,,,00047,2023-10-19_20h18.44.427,vbt_B2_day3,2022.2.4,MacIntel,59.99880002,,,,,,down,0,5.3846,,-0.271180023,-0.08079467,1,0,0,0,179,179,134,1,geliefd,images/br_geliefd.png,images/cb_geliefd.png,0,,,,,,,,,,,,,,,,,,,,,,
,,,,,00047,2023-10-19_20h18.44.427,vbt_B2_day3,2022.2.4,MacIntel,59.99880002,,,,,,down,0,32.0738,,-0.271180023,-0.08079467,1,0,0,0,180,180,149,1,redding,images/br_redding.png,images/cb_redding.png,0,,,,,,,,,,,,,,,,,,,,,,
,,,,,00047,2023-10-19_20h18.44.427,vbt_B2_day3,2022.2.4,MacIntel,59.99880002,,,,,,down,0,3.9159,,-0.271180023,-0.08079467,1,0,0,0,181,181,5,1,blad,images/br_blad.png,images/cb_blad.png,0,,,,,,,,,,,,,,,,,,,,,,
,,,,,00047,2023-10-19_20h18.44.427,vbt_B2_day3,2022.2.4,MacIntel,59.99880002,,,,,,down,0,5.2501,,-0.271180023,-0.08079467,1,0,0,0,182,182,81,1,dubbel,images/br_dubbel.png,images/cb_dubbel.png,0,,,,,,,,,,,,,,,,,,,,,,
,,,,,00047,2023-10-19_20h18.44.427,vbt_B2_day3,2022.2.4,MacIntel,59.99880002,,,,,,down,0,34.9497,,-0.271180023,-0.08079467,1,0,0,0,183,183,112,1,lukken,images/br_lukken.png,images/cb_lukken.png,0,,,,,,,,,,,,,,,,,,,,,,
,,,,,00047,2023-10-19_20h18.44.427,vbt_B2_day3,2022.2.4,MacIntel,59.99880002,,,,,,down,0,11.0316,,-0.271180023,-0.08079467,1,0,0,0,184,184,154,1,aflopen,images/br_aflopen.png,images/cb_aflopen.png,0,,,,,,,,,,,,,,,,,,,,,,
,,,,,00047,2023-10-19_20h18.44.427,vbt_B2_day3,2022.2.4,MacIntel,59.99880002,,,,,,down,0,12.6683,,-0.271180023,-0.08079467,1,0,0,0,185,185,2,1,jaar,images/br_jaar.png,images/cb_jaar.png,0,,,,,,,,,,,,,,,,,,,,,,
,,,,,00047,2023-10-19_20h18.44.427,vbt_B2_day3,2022.2.4,MacIntel,59.99880002,,,,,,down,0,11.4027,,-0.271180023,-0.08079467,1,0,0,0,186,186,117,1,kennis,images/br_kennis.png,images/cb_kennis.png,0,,,,,,,,,,,,,,,,,,,,,,
,,,,,00047,2023-10-19_20h18.44.427,vbt_B2_day3,2022.2.4,MacIntel,59.99880002,,,,,,down,0,9.7075,,-0.271180023,-0.08079467,1,0,0,0,187,187,160,1,daarheen,images/br_daarheen.png,images/cb_daarheen.png,0,,,,,,,,,,,,,,,,,,,,,,
,,,,,00047,2023-10-19_20h18.44.427,vbt_B2_day3,2022.2.4,MacIntel,59.99880002,,,,,,down,0,2.7841,,-0.271180023,-0.08079467,1,0,0,0,188,188,72,1,strak,images/br_strak.png,images/cb_strak.png,0,,,,,,,,,,,,,,,,,,,,,,
,,,,,00047,2023-10-19_20h18.44.427,vbt_B2_day3,2022.2.4,MacIntel,59.99880002,,,,,,down,0,2.9703,,-0.271180023,-0.08079467,1,0,0,0,189,189,96,1,slagen,images/br_slagen.png,images/cb_slagen.png,0,,,,,,,,,,,,,,,,,,,,,,
,,,,,00047,2023-10-19_20h18.44.427,vbt_B2_day3,2022.2.4,MacIntel,59.99880002,,,,,,down,0,4.0673,,-0.271180023,-0.08079467,1,0,0,0,190,190,53,1,baron,images/br_baron.png,images/cb_baron.png,0,,,,,,,,,,,,,,,,,,,,,,
,,,,,00047,2023-10-19_20h18.44.427,vbt_B2_day3,2022.2.4,MacIntel,59.99880002,,,,,,down,0,15.1172,,-0.271180023,-0.08079467,1,0,0,0,191,191,118,1,vinger,images/br_vinger.png,images/cb_vinger.png,0,,,,,,,,,,,,,,,,,,,,,,
,,,,,00047,2023-10-19_20h18.44.427,vbt_B2_day3,2022.2.4,MacIntel,59.99880002,,,,,,down,0,1.1356,,-0.271180023,-0.08079467,1,0,0,0,192,192,44,1,flits,images/br_flits.png,images/cb_flits.png,0,,,,,,,,,,,,,,,,,,,,,,
,,,,,00047,2023-10-19_20h18.44.427,vbt_B2_day3,2022.2.4,MacIntel,59.99880002,,,,,,down,0,6.671,,-0.271180023,-0.08079467,1,0,0,0,193,193,69,1,waken,images/br_waken.png,images/cb_waken.png,0,,,,,,,,,,,,,,,,,,,,,,
,,,,,00047,2023-10-19_20h18.44.427,vbt_B2_day3,2022.2.4,MacIntel,59.99880002,,,,,,down,0,10.234,,-0.271180023,-0.08079467,1,0,0,0,194,194,166,1,strikken,images/br_strikken.png,images/cb_strikken.png,0,,,,,,,,,,,,,,,,,,,,,,
,,,,,00047,2023-10-19_20h18.44.427,vbt_B2_day3,2022.2.4,MacIntel,59.99880002,,,,,,down,0,13.8503,,-0.271180023,-0.08079467,1,0,0,0,195,195,131,1,opzicht,images/br_opzicht.png,images/cb_opzicht.png,0,,,,,,,,,,,,,,,,,,,,,,
,,,,,00047,2023-10-19_20h18.44.427,vbt_B2_day3,2022.2.4,MacIntel,59.99880002,,,,,,down,0,2.6055,,-0.347244057,-0.145048888,1,0,0,0,196,196,23,1,zout,images/br_zout.png,images/cb_zout.png,1,zout,,,,,,,,,,,,,,,,,,,,,
,,,,,00047,2023-10-19_20h18.44.427,vbt_B2_day3,2022.2.4,MacIntel,59.99880002,,,,,,down,0,12.2675,,-0.347244057,-0.145048888,1,0,0,0,197,197,85,1,heilig,images/br_heilig.png,images/cb_heilig.png,0,,,,,,,,,,,,,,,,,,,,,,
,,,,,00047,2023-10-19_20h18.44.427,vbt_B2_day3,2022.2.4,MacIntel,59.99880002,,,,,,down,0,23.0882,,-0.347244057,-0.145048888,1,0,0,0,198,198,14,1,rijp,images/br_rijp.png,images/cb_rijp.png,0,,,,,,,,,,,,,,,,,,,,,,
,,,,,00047,2023-10-19_20h18.44.427,vbt_B2_day3,2022.2.4,MacIntel,59.99880002,,,,,,down,0,0.5342,,-0.347244057,-0.145048888,1,0,0,0,199,199,145,1,invloed,images/br_invloed.png,images/cb_invloed.png,0,,,,,,,,,,,,,,,,,,,,,,
,,,,,00047,2023-10-19_20h18.44.427,vbt_B2_day3,2022.2.4,MacIntel,59.99880002,,,,,,,,,,,,,,,,,,,,,,,,,-0.306523198,-0.130698811,1,0,0,,,,,,,,,,,,,,,,
,,,,,00047,2023-10-19_20h18.44.427,vbt_B2_day3,2022.2.4,MacIntel,59.99880002,,,,,,,,,,,,,,,,,,,,,,,,,,,,,,-0.332697469,-0.167523006,1,0,0,,,,,,,,,,,
,,,,,00047,2023-10-19_20h18.44.427,vbt_B2_day3,2022.2.4,MacIntel,59.99880002,,,,,,,,,,,,,,,,,,,,brappen,images/br_brappen.png,images/cb_brappen.png,,brappen,,,,,,,,,,,-0.200704563,-0.079093175,1,0,0,brappen,0,0,0,35,1
,,,,,00047,2023-10-19_20h18.44.427,vbt_B2_day3,2022.2.4,MacIntel,59.99880002,,,,,,,,,,,,,,,,,,,,knie,images/br_knie.png,images/cb_knie.png,,knie,,,,,,,,,,,-0.104126725,-0.009691334,1,0,0,knie,0,1,1,0,1
,,,,,00047,2023-10-19_20h18.44.427,vbt_B2_day3,2022.2.4,MacIntel,59.99880002,,,,,,,,,,,,,,,,,,,,begrip,images/br_begrip.png,images/cb_begrip.png,,begrip,,,,,,,,,,,-0.108176764,-0.051059241,1,0,0,begrip,0,2,2,48,1
,,,,,00047,2023-10-19_20h18.44.427,vbt_B2_day3,2022.2.4,MacIntel,59.99880002,,,,,,,,,,,,,,,,,,,,makieren,images/br_makieren.png,images/cb_makieren.png,,makeir..,,,,,,,,,,,-0.127319785,-0.082016871,1,0,0,makeir..,0,3,3,36,1
,,,,,00047,2023-10-19_20h18.44.427,vbt_B2_day3,2022.2.4,MacIntel,59.99880002,,,,,,,,,,,,,,,,,,,,schatten,images/br_schatten.png,images/cb_schatten.png,,schatten,,,,,,,,,,,-0.134475652,-0.117705138,1,0,0,schatten,0,4,4,18,1
,,,,,00047,2023-10-19_20h18.44.427,vbt_B2_day3,2022.2.4,MacIntel,59.99880002,,,,,,,,,,,,,,,,,,,,boeien,images/br_boeien.png,images/cb_boeien.png,,boeien,,,,,,,,,,,-0.097368673,-0.110271281,1,0,0,boeien,0,5,5,8,1
,,,,,00047,2023-10-19_20h18.44.427,vbt_B2_day3,2022.2.4,MacIntel,59.99880002,,,,,,,,,,,,,,,,,,,,kwaas,images/br_kwaas.png,images/cb_kwaas.png,,kwaas,,,,,,,,,,,-0.042652416,-0.08569306,1,0,0,kwaas,0,6,6,26,1
,,,,,00047,2023-10-19_20h18.44.427,vbt_B2_day3,2022.2.4,MacIntel,59.99880002,,,,,,,,,,,,,,,,,,,,alsof,images/br_alsof.png,images/cb_alsof.png,,alsof,,,,,,,,,,,0.01570648,-0.02216737,1,0,0,alsof,0,7,7,44,1
,,,,,00047,2023-10-19_20h18.44.427,vbt_B2_day3,2022.2.4,MacIntel,59.99880002,,,,,,,,,,,,,,,,,,,,kest,images/br_kest.png,images/cb_kest.png,,kest,,,,,,,,,,,0.03914398,-0.005363305,1,0,0,kest,0,8,8,21,1
,,,,,00047,2023-10-19_20h18.44.427,vbt_B2_day3,2022.2.4,MacIntel,59.99880002,,,,,,,,,,,,,,,,,,,,leemaken,images/br_leemaken.png,images/cb_leemaken.png,,leema..,,,,,,,,,,,0.006978528,-0.11443635,1,0,0,leema..,0,9,9,39,1
,,,,,00047,2023-10-19_20h18.44.427,vbt_B2_day3,2022.2.4,MacIntel,59.99880002,,,,,,,,,,,,,,,,,,,,leugeren,images/br_leugeren.png,images/cb_leugeren.png,,leugenaar,,,,,,,,,,,0.06500671,-0.087039877,1,0,0,leugenaar,0,10,10,37,1
,,,,,00047,2023-10-19_20h18.44.427,vbt_B2_day3,2022.2.4,MacIntel,59.99880002,,,,,,,,,,,,,,,,,,,,stikken,images/br_stikken.png,images/cb_stikken.png,,stikken,,,,,,,,,,,-0.022109854,0.067283359,1,0,0,stikken,0,11,11,54,1
,,,,,00047,2023-10-19_20h18.44.427,vbt_B2_day3,2022.2.4,MacIntel,59.99880002,,,,,,,,,,,,,,,,,,,,booien,images/br_booien.png,images/cb_booien.png,,boeien,,,,,,,,,,,-0.052760736,-0.120489839,1,0,0,boeien,0,12,12,31,1
,,,,,00047,2023-10-19_20h18.44.427,vbt_B2_day3,2022.2.4,MacIntel,59.99880002,,,,,,,,,,,,,,,,,,,,leek,images/br_leek.png,images/cb_leek.png,,leek,,,,,,,,,,,-0.045044095,-0.038127876,1,0,0,leek,0,13,13,2,1
,,,,,00047,2023-10-19_20h18.44.427,vbt_B2_day3,2022.2.4,MacIntel,59.99880002,,,,,,,,,,,,,,,,,,,,bisschop,images/br_bisschop.png,images/cb_bisschop.png,,bisschop,,,,,,,,,,,-0.065807132,0.088554448,1,0,0,bisschop,0,14,14,16,1
,,,,,00047,2023-10-19_20h18.44.427,vbt_B2_day3,2022.2.4,MacIntel,59.99880002,,,,,,,,,,,,,,,,,,,,gout,images/br_gout.png,images/cb_gout.png,,gout,,,,,,,,,,,0.026787768,-0.016425422,1,0,0,gout,0,15,15,20,1
,,,,,00047,2023-10-19_20h18.44.427,vbt_B2_day3,2022.2.4,MacIntel,59.99880002,,,,,,,,,,,,,,,,,,,,mugeek,images/br_mugeek.png,images/cb_mugeek.png,,mugeek,,,,,,,,,,,-0.058579371,-0.018486388,1,0,0,mugeek,0,16,16,29,1
,,,,,00047,2023-10-19_20h18.44.427,vbt_B2_day3,2022.2.4,MacIntel,59.99880002,,,,,,,,,,,,,,,,,,,,zone,images/br_zone.png,images/cb_zone.png,,zone,,,,,,,,,,,0.058373275,0.003551572,1,0,0,zone,0,17,17,41,1
,,,,,00047,2023-10-19_20h18.44.427,vbt_B2_day3,2022.2.4,MacIntel,59.99880002,,,,,,,,,,,,,,,,,,,,hust,images/br_hust.png,images/cb_hust.png,,hust,,,,,,,,,,,0.005694018,-0.028441334,1,0,0,hust,0,18,18,23,1
,,,,,00047,2023-10-19_20h18.44.427,vbt_B2_day3,2022.2.4,MacIntel,59.99880002,,,,,,,,,,,,,,,,,,,,laken,images/br_laken.png,images/cb_laken.png,,laken,,,,,,,,,,,0.009811158,-0.044665452,1,0,0,laken,0,19,19,5,1
,,,,,00047,2023-10-19_20h18.44.427,vbt_B2_day3,2022.2.4,MacIntel,59.99880002,,,,,,,,,,,,,,,,,,,,jongelui,images/br_jongelui.png,images/cb_jongelui.png,,jongelui,,,,,,,,,,,-0.007817293,-0.047531633,1,0,0,jongelui,0,20,20,59,1
,,,,,00047,2023-10-19_20h18.44.427,vbt_B2_day3,2022.2.4,MacIntel,59.99880002,,,,,,,,,,,,,,,,,,,,verraden,images/br_verraden.png,images/cb_verraden.png,,vakad,,,,,,,,,,,-0.018040644,-0.111560583,1,0,0,vakad,0,21,21,58,1
,,,,,00047,2023-10-19_20h18.44.427,vbt_B2_day3,2022.2.4,MacIntel,59.99880002,,,,,,,,,,,,,,,,,,,,opzicht,images/br_opzicht.png,images/cb_opzicht.png,,opzicht,,,,,,,,,,,0.033569785,-0.068280291,1,0,0,opzicht,0,22,22,15,1
,,,,,00047,2023-10-19_20h18.44.427,vbt_B2_day3,2022.2.4,MacIntel,59.99880002,,,,,,,,,,,,,,,,,,,,theeting,images/br_theeting.png,images/cb_theeting.png,,theetin,,,,,,,,,,,-0.041363113,-0.010443827,1,0,0,theetin,0,23,23,38,1
,,,,,00047,2023-10-19_20h18.44.427,vbt_B2_day3,2022.2.4,MacIntel,59.99880002,,,,,,,,,,,,,,,,,,,,beslag,images/br_beslag.png,images/cb_beslag.png,,beslag,,,,,,,,,,,-0.16686158,0.011785851,1,0,0,beslag,0,24,24,51,1
,,,,,00047,2023-10-19_20h18.44.427,vbt_B2_day3,2022.2.4,MacIntel,59.99880002,,,,,,,,,,,,,,,,,,,,schodel,images/br_schodel.png,images/cb_schodel.png,,schodel,,,,,,,,,,,0.057481787,-0.022584356,1,0,0,schodel,0,25,25,33,1
,,,,,00047,2023-10-19_20h18.44.427,vbt_B2_day3,2022.2.4,MacIntel,59.99880002,,,,,,,,,,,,,,,,,,,,oprotten,images/br_oprotten.png,images/cb_oprotten.png,,oprotten,,,,,,,,,,,0.126289302,0.085817676,1,0,0,oprotten,0,26,26,17,1
,,,,,00047,2023-10-19_20h18.44.427,vbt_B2_day3,2022.2.4,MacIntel,59.99880002,,,,,,,,,,,,,,,,,,,,bevret,images/br_bevret.png,images/cb_bevret.png,,bevret,,,,,,,,,,,0.016756135,0.055032592,1,0,0,bevret,0,27,27,30,1
,,,,,00047,2023-10-19_20h18.44.427,vbt_B2_day3,2022.2.4,MacIntel,59.99880002,,,,,,,,,,,,,,,,,,,,mode,images/br_mode.png,images/cb_mode.png,,mode,,,,,,,,,,,-0.045844517,0.072172163,1,0,0,mode,0,28,28,3,1
,,,,,00047,2023-10-19_20h18.44.427,vbt_B2_day3,2022.2.4,MacIntel,59.99880002,,,,,,,,,,,,,,,,,,,,opzetten,images/br_opzetten.png,images/cb_opzetten.png,,opzetten,,,,,,,,,,,-0.021366948,-0.01427339,1,0,0,opzetten,0,29,29,56,1
,,,,,00047,2023-10-19_20h18.44.427,vbt_B2_day3,2022.2.4,MacIntel,59.99880002,,,,,,,,,,,,,,,,,,,,aarzelen,images/br_aarzelen.png,images/cb_aarzelen.png,,aarzelen,,,,,,,,,,,-0.046189609,0.114771856,1,0,0,aarzelen,0,30,30,19,1
,,,,,00047,2023-10-19_20h18.44.427,vbt_B2_day3,2022.2.4,MacIntel,59.99880002,,,,,,,,,,,,,,,,,,,,uviek,images/br_uviek.png,images/cb_uviek.png,,uviek,,,,,,,,,,,-0.060664302,-0.014450729,1,0,0,uviek,0,31,31,25,1
,,,,,00047,2023-10-19_20h18.44.427,vbt_B2_day3,2022.2.4,MacIntel,59.99880002,,,,,,,,,,,,,,,,,,,,uniek,images/br_uniek.png,images/cb_uniek.png,,uniek,,,,,,,,,,,-0.152530675,-0.090955713,1,0,0,uniek,0,32,32,46,1
,,,,,00047,2023-10-19_20h18.44.427,vbt_B2_day3,2022.2.4,MacIntel,59.99880002,,,,,,,,,,,,,,,,,,,,invallen,images/br_invallen.png,images/cb_invallen.png,,invallen,,,,,,,,,,,-0.176207822,-0.022066718,1,0,0,invallen,0,33,33,57,1
,,,,,00047,2023-10-19_20h18.44.427,vbt_B2_day3,2022.2.4,MacIntel,59.99880002,,,,,,,,,,,,,,,,,,,,twaaf,images/br_twaaf.png,images/cb_twaaf.png,,twaaf,,,,,,,,,,,-0.204212998,-0.017446319,1,0,0,twaaf,0,34,34,24,1
,,,,,00047,2023-10-19_20h18.44.427,vbt_B2_day3,2022.2.4,MacIntel,59.99880002,,,,,,,,,,,,,,,,,,,,verhaal,images/br_verhaal.png,images/cb_verhaal.png,,verhaal,,,,,,,,,,,0.077746357,-0.018510353,1,0,0,verhaal,0,35,35,13,1
,,,,,00047,2023-10-19_20h18.44.427,vbt_B2_day3,2022.2.4,MacIntel,59.99880002,,,,,,,,,,,,,,,,,,,,onrecht,images/br_onrecht.png,images/cb_onrecht.png,,onrecht,,,,,,,,,,,0.099779525,-0.020878067,1,0,0,onrecht,0,36,36,55,1
,,,,,00047,2023-10-19_20h18.44.427,vbt_B2_day3,2022.2.4,MacIntel,59.99880002,,,,,,,,,,,,,,,,,,,,sluier,images/br_sluier.png,images/cb_sluier.png,,sluier,,,,,,,,,,,-0.018203604,-0.029308857,1,0,0,sluier,0,37,37,50,1
,,,,,00047,2023-10-19_20h18.44.427,vbt_B2_day3,2022.2.4,MacIntel,59.99880002,,,,,,,,,,,,,,,,,,,,keihard,images/br_keihard.png,images/cb_keihard.png,,keihard,,,,,,,,,,,-0.044507285,-0.098025307,1,0,0,keihard,0,38,38,14,1
,,,,,00047,2023-10-19_20h18.44.427,vbt_B2_day3,2022.2.4,MacIntel,59.99880002,,,,,,,,,,,,,,,,,,,,afbopen,images/br_afbopen.png,images/cb_afbopen.png,,afbopen,,,,,,,,,,,-0.103594709,-0.081326687,1,0,0,afbopen,0,39,39,34,1
,,,,,00047,2023-10-19_20h18.44.427,vbt_B2_day3,2022.2.4,MacIntel,59.99880002,,,,,,,,,,,,,,,,,,,,glijden,images/br_glijden.png,images/cb_glijden.png,,glijden,,,,,,,,,,,-0.137720475,-0.025023965,1,0,0,glijden,0,40,40,53,1
,,,,,00047,2023-10-19_20h18.44.427,vbt_B2_day3,2022.2.4,MacIntel,59.99880002,,,,,,,,,,,,,,,,,,,,hier,images/br_hier.png,images/cb_hier.png,,heir,,,,,,,,,,,-0.128551572,0.02150115,1,0,0,heir,0,41,41,1,1
,,,,,00047,2023-10-19_20h18.44.427,vbt_B2_day3,2022.2.4,MacIntel,59.99880002,,,,,,,,,,,,,,,,,,,,paken,images/br_paken.png,images/cb_paken.png,,paken,,,,,,,,,,,-0.000551189,0.043519939,1,0,0,paken,0,42,42,27,1
,,,,,00047,2023-10-19_20h18.44.427,vbt_B2_day3,2022.2.4,MacIntel,59.99880002,,,,,,,,,,,,,,,,,,,,stallen,images/br_stallen.png,images/cb_stallen.png,,stallen,,,,,,,,,,,0.09033263,-0.049937692,1,0,0,stallen,0,43,43,52,1
,,,,,00047,2023-10-19_20h18.44.427,vbt_B2_day3,2022.2.4,MacIntel,59.99880002,,,,,,,,,,,,,,,,,,,,geluid,images/br_geluid.png,images/cb_geluid.png,,geluid,,,,,,,,,,,0.026284509,-0.033004218,1,0,0,geluid,0,44,44,10,1
,,,,,00047,2023-10-19_20h18.44.427,vbt_B2_day3,2022.2.4,MacIntel,59.99880002,,,,,,,,,,,,,,,,,,,,gebod,images/br_gebod.png,images/cb_gebod.png,,gebod,,,,,,,,,,,-0.078139379,0.00768309,1,0,0,gebod,0,45,45,45,1
,,,,,00047,2023-10-19_20h18.44.427,vbt_B2_day3,2022.2.4,MacIntel,59.99880002,,,,,,,,,,,,,,,,,,,,slapen,images/br_slapen.png,images/cb_slapen.png,,slapen,,,,,,,,,,,-0.079141104,0.006139762,1,0,0,slapen,0,46,46,9,1
,,,,,00047,2023-10-19_20h18.44.427,vbt_B2_day3,2022.2.4,MacIntel,59.99880002,,,,,,,,,,,,,,,,,,,,vlager,images/br_vlager.png,images/cb_vlager.png,,vlager,,,,,,,,,,,-0.07314513,-0.026514571,1,0,0,vlager,0,47,47,28,1
,,,,,00047,2023-10-19_20h18.44.427,vbt_B2_day3,2022.2.4,MacIntel,59.99880002,,,,,,,,,,,,,,,,,,,,prikken,images/br_prikken.png,images/cb_prikken.png,,prikken,,,,,,,,,,,-0.113611963,-0.057045629,1,0,0,prikken,0,48,48,12,1
,,,,,00047,2023-10-19_20h18.44.427,vbt_B2_day3,2022.2.4,MacIntel,59.99880002,,,,,,,,,,,,,,,,,,,,steel,images/br_steel.png,images/cb_steel.png,,staal,,,,,,,,,,,-0.233200729,-0.058569785,1,0,0,staal,0,49,49,4,1
,,,,,00047,2023-10-19_20h18.44.427,vbt_B2_day3,2022.2.4,MacIntel,59.99880002,,,,,,,,,,,,,,,,,,,,sultan,images/br_sultan.png,images/cb_sultan.png,,sultan,,,,,,,,,,,-0.189484279,-0.02478911,1,0,0,sultan,0,50,50,49,1
,,,,,00047,2023-10-19_20h18.44.427,vbt_B2_day3,2022.2.4,MacIntel,59.99880002,,,,,,,,,,,,,,,,,,,,eens,images/br_eens.png,images/cb_eens.png,,eens,,,,,,,,,,,-0.150925038,0.025479294,1,0,0,eens,0,51,51,40,1
,,,,,00047,2023-10-19_20h18.44.427,vbt_B2_day3,2022.2.4,MacIntel,59.99880002,,,,,,,,,,,,,,,,,,,,croo,images/br_croo.png,images/cb_croo.png,,croo,,,,,,,,,,,-0.092705138,0.027367715,1,0,0,croo,0,52,52,22,1
,,,,,00047,2023-10-19_20h18.44.427,vbt_B2_day3,2022.2.4,MacIntel,59.99880002,,,,,,,,,,,,,,,,,,,,stoom,images/br_stoom.png,images/cb_stoom.png,,stoom,,,,,,,,,,,-0.100704563,-0.002794287,1,0,0,stoom,0,53,53,6,1
,,,,,00047,2023-10-19_20h18.44.427,vbt_B2_day3,2022.2.4,MacIntel,59.99880002,,,,,,,,,,,,,,,,,,,,gezond,images/br_gezond.png,images/cb_gezond.png,,gezond,,,,,,,,,,,0.035405483,0.035170629,1,0,0,gezond,0,54,54,11,1
,,,,,00047,2023-10-19_20h18.44.427,vbt_B2_day3,2022.2.4,MacIntel,59.99880002,,,,,,,,,,,,,,,,,,,,hint,images/br_hint.png,images/cb_hint.png,,hint,,,,,,,,,,,0.054812117,-0.036781058,1,0,0,hint,0,55,55,43,1
,,,,,00047,2023-10-19_20h18.44.427,vbt_B2_day3,2022.2.4,MacIntel,59.99880002,,,,,,,,,,,,,,,,,,,,samen,images/br_samen.png,images/cb_samen.png,,samen,,,,,,,,,,,-0.016871166,0.009657784,1,0,0,samen,0,56,56,7,1
,,,,,00047,2023-10-19_20h18.44.427,vbt_B2_day3,2022.2.4,MacIntel,59.99880002,,,,,,,,,,,,,,,,,,,,verwoor,images/br_verwoor.png,images/cb_verwoor.png,,verwoor,,,,,,,,,,,-0.019358704,-0.052104103,1,0,0,verwoor,0,57,57,32,1
,,,,,00047,2023-10-19_20h18.44.427,vbt_B2_day3,2022.2.4,MacIntel,59.99880002,,,,,,,,,,,,,,,,,,,,kaas,images/br_kaas.png,images/cb_kaas.png,,kaas,,,,,,,,,,,-0.031422546,-0.010175422,1,0,0,kaas,0,58,58,42,1
,,,,,00047,2023-10-19_20h18.44.427,vbt_B2_day3,2022.2.4,MacIntel,59.99880002,,,,,,,,,,,,,,,,,,,,dwang,images/br_dwang.png,images/cb_dwang.png,,dwang,,,,,,,,,,,0.045993098,0.021851035,1,0,0,dwang,0,59,59,47,1
,,,,,00047,2023-10-19_20h18.44.427,vbt_B2_day3,2022.2.4,MacIntel,59.99880002,,,,,,,,,,,,,,,,,,,,,,,,,,,,,,,,,,,,,,,,,,,,,
