welcome_mouse.x,welcome_mouse.y,welcome_mouse.leftButton,welcome_mouse.midButton,welcome_mouse.rightButton,"ID",date,expName,psychopyVersion,OS,frameRate,trainInstr_mouse.x,trainInstr_mouse.y,trainInstr_mouse.leftButton,trainInstr_mouse.midButton,trainInstr_mouse.rightButton,translation_key.keys,translation_key.corr,translation_key.rt,word_rsp.text,trWrd_mouse.x,trWrd_mouse.y,trWrd_mouse.leftButton,trWrd_mouse.midButton,trWrd_mouse.rightButton,train_loop.thisRepN,train_loop.thisTrialN,train_loop.thisN,train_loop.thisIndex,train_loop.ran,nlWrd,brWrd,cbWrd,test,testResp,mouse.x,mouse.y,mouse.leftButton,mouse.midButton,mouse.rightButton,testInstr_mouse.x,testInstr_mouse.y,testInstr_mouse.leftButton,testInstr_mouse.midButton,testInstr_mouse.rightButton,test_mouse.x,test_mouse.y,test_mouse.leftButton,test_mouse.midButton,test_mouse.rightButton,test_response.text,test_loop.thisRepN,test_loop.thisTrialN,test_loop.thisN,test_loop.thisIndex,test_loop.ran
-0.150925884,-0.260185171,0,0,1,00068,2023-10-18_09h09.56.962,vbt_B2_day3,2022.2.4,Win32,60.05645307,,,,,,,,,,,,,,,,,,,,,,,,,,,,,,,,,,,,,,,,,,,,,
,,,,,00068,2023-10-18_09h09.56.962,vbt_B2_day3,2022.2.4,Win32,60.05645307,-0.228703675,-0.336111139,0,0,1,,,,,,,,,,,,,,,,,,,,,,,,,,,,,,,,,,,,,,,,
,,,,,00068,2023-10-18_09h09.56.962,vbt_B2_day3,2022.2.4,Win32,60.05645307,,,,,,down,0,3.9732,,-0.268518519,-0.325925968,1,0,0,0,0,0,178,1,huisdier,images/br_huisdier.png,images/cb_huisdier.png,0,,,,,,,,,,,,,,,,,,,,,,
,,,,,00068,2023-10-18_09h09.56.962,vbt_B2_day3,2022.2.4,Win32,60.05645307,,,,,,down,0,13.268,,-0.091666681,-0.404629672,1,0,0,0,1,1,141,1,knielen,images/br_knielen.png,images/cb_knielen.png,1,knielen,,,,,,,,,,,,,,,,,,,,,
,,,,,00068,2023-10-18_09h09.56.962,vbt_B2_day3,2022.2.4,Win32,60.05645307,,,,,,down,0,5.8174,,-0.091666681,-0.404629672,1,0,0,0,2,2,167,1,eenhoorn,images/br_eenhoorn.png,images/cb_eenhoorn.png,0,,,,,,,,,,,,,,,,,,,,,,
,,,,,00068,2023-10-18_09h09.56.962,vbt_B2_day3,2022.2.4,Win32,60.05645307,,,,,,down,0,5.3327,,-0.091666681,-0.404629672,1,0,0,0,3,3,158,1,innemen,images/br_innemen.png,images/cb_innemen.png,0,,,,,,,,,,,,,,,,,,,,,,
,,,,,00068,2023-10-18_09h09.56.962,vbt_B2_day3,2022.2.4,Win32,60.05645307,,,,,,down,0,1.3662,,-0.091666681,-0.404629672,1,0,0,0,4,4,179,1,woestijn,images/br_woestijn.png,images/cb_woestijn.png,0,,,,,,,,,,,,,,,,,,,,,,
,,,,,00068,2023-10-18_09h09.56.962,vbt_B2_day3,2022.2.4,Win32,60.05645307,,,,,,down,0,1.1504,,-0.091666681,-0.404629672,1,0,0,0,5,5,42,1,bleek,images/br_bleek.png,images/cb_bleek.png,0,,,,,,,,,,,,,,,,,,,,,,
,,,,,00068,2023-10-18_09h09.56.962,vbt_B2_day3,2022.2.4,Win32,60.05645307,,,,,,down,0,0.6076,,-0.092592593,-0.404629672,1,0,0,0,6,6,138,1,akkoord,images/br_akkoord.png,images/cb_akkoord.png,0,,,,,,,,,,,,,,,,,,,,,,
,,,,,00068,2023-10-18_09h09.56.962,vbt_B2_day3,2022.2.4,Win32,60.05645307,,,,,,down,0,5.4172,,-0.092592593,-0.404629672,1,0,0,0,7,7,188,1,strekken,images/br_strekken.png,images/cb_strekken.png,0,,,,,,,,,,,,,,,,,,,,,,
,,,,,00068,2023-10-18_09h09.56.962,vbt_B2_day3,2022.2.4,Win32,60.05645307,,,,,,down,0,4.6517,,-0.092592593,-0.404629672,1,0,0,0,8,8,175,1,heengaan,images/br_heengaan.png,images/cb_heengaan.png,0,,,,,,,,,,,,,,,,,,,,,,
,,,,,00068,2023-10-18_09h09.56.962,vbt_B2_day3,2022.2.4,Win32,60.05645307,,,,,,down,0,3.6967,,-0.092592593,-0.404629672,1,0,0,0,9,9,136,1,waarbij,images/br_waarbij.png,images/cb_waarbij.png,0,,,,,,,,,,,,,,,,,,,,,,
,,,,,00068,2023-10-18_09h09.56.962,vbt_B2_day3,2022.2.4,Win32,60.05645307,,,,,,down,0,3.8856,,-0.092592593,-0.404629672,1,0,0,0,10,10,40,1,schep,images/br_schep.png,images/cb_schep.png,0,,,,,,,,,,,,,,,,,,,,,,
,,,,,00068,2023-10-18_09h09.56.962,vbt_B2_day3,2022.2.4,Win32,60.05645307,,,,,,down,0,4.1878,,-0.092592593,-0.404629672,1,0,0,0,11,11,20,1,site,images/br_site.png,images/cb_site.png,1,siti,,,,,,,,,,,,,,,,,,,,,
,,,,,00068,2023-10-18_09h09.56.962,vbt_B2_day3,2022.2.4,Win32,60.05645307,,,,,,down,0,24.0064,,-0.128703718,-0.300925926,1,0,0,0,12,12,101,1,staren,images/br_staren.png,images/cb_staren.png,1,schren,,,,,,,,,,,,,,,,,,,,,
,,,,,00068,2023-10-18_09h09.56.962,vbt_B2_day3,2022.2.4,Win32,60.05645307,,,,,,down,0,4.2863,,-0.128703718,-0.300925926,1,0,0,0,13,13,118,1,vinger,images/br_vinger.png,images/cb_vinger.png,0,,,,,,,,,,,,,,,,,,,,,,
,,,,,00068,2023-10-18_09h09.56.962,vbt_B2_day3,2022.2.4,Win32,60.05645307,,,,,,down,0,0.4179,,-0.128703718,-0.300925926,1,0,0,0,14,14,41,1,maken,images/br_maken.png,images/cb_maken.png,0,,,,,,,,,,,,,,,,,,,,,,
,,,,,00068,2023-10-18_09h09.56.962,vbt_B2_day3,2022.2.4,Win32,60.05645307,,,,,,down,0,6.4346,,-0.128703718,-0.300925926,1,0,0,0,15,15,76,1,afval,images/br_afval.png,images/cb_afval.png,0,,,,,,,,,,,,,,,,,,,,,,
,,,,,00068,2023-10-18_09h09.56.962,vbt_B2_day3,2022.2.4,Win32,60.05645307,,,,,,down,0,1.0341,,-0.128703718,-0.300925926,1,0,0,0,16,16,133,1,seizoen,images/br_seizoen.png,images/cb_seizoen.png,0,,,,,,,,,,,,,,,,,,,,,,
,,,,,00068,2023-10-18_09h09.56.962,vbt_B2_day3,2022.2.4,Win32,60.05645307,,,,,,down,0,5.3333,,-0.128703718,-0.300925926,1,0,0,0,17,17,134,1,geliefd,images/br_geliefd.png,images/cb_geliefd.png,0,,,,,,,,,,,,,,,,,,,,,,
,,,,,00068,2023-10-18_09h09.56.962,vbt_B2_day3,2022.2.4,Win32,60.05645307,,,,,,down,0,0.3677,,-0.128703718,-0.300925926,1,0,0,0,18,18,87,1,toeval,images/br_toeval.png,images/cb_toeval.png,0,,,,,,,,,,,,,,,,,,,,,,
,,,,,00068,2023-10-18_09h09.56.962,vbt_B2_day3,2022.2.4,Win32,60.05645307,,,,,,down,0,1.1189,,-0.128703718,-0.300925926,1,0,0,0,19,19,160,1,daarheen,images/br_daarheen.png,images/cb_daarheen.png,0,,,,,,,,,,,,,,,,,,,,,,
,,,,,00068,2023-10-18_09h09.56.962,vbt_B2_day3,2022.2.4,Win32,60.05645307,,,,,,down,0,0.0177,,-0.128703718,-0.300925926,1,0,0,0,20,20,79,1,nodig,images/br_nodig.png,images/cb_nodig.png,0,,,,,,,,,,,,,,,,,,,,,,
,,,,,00068,2023-10-18_09h09.56.962,vbt_B2_day3,2022.2.4,Win32,60.05645307,,,,,,down,0,3.3863,,-0.128703718,-0.300925926,1,0,0,0,21,21,161,1,attentie,images/br_attentie.png,images/cb_attentie.png,0,,,,,,,,,,,,,,,,,,,,,,
,,,,,00068,2023-10-18_09h09.56.962,vbt_B2_day3,2022.2.4,Win32,60.05645307,,,,,,down,0,1.684,,-0.128703718,-0.300925926,1,0,0,0,22,22,26,1,leuk,images/br_leuk.png,images/cb_leuk.png,0,,,,,,,,,,,,,,,,,,,,,,
,,,,,00068,2023-10-18_09h09.56.962,vbt_B2_day3,2022.2.4,Win32,60.05645307,,,,,,down,0,2.8518,,-0.128703718,-0.300925926,1,0,0,0,23,23,121,1,twijfel,images/br_twijfel.png,images/cb_twijfel.png,0,,,,,,,,,,,,,,,,,,,,,,
,,,,,00068,2023-10-18_09h09.56.962,vbt_B2_day3,2022.2.4,Win32,60.05645307,,,,,,down,0,4.1851,,-0.128703718,-0.300925926,1,0,0,0,24,24,117,1,kennis,images/br_kennis.png,images/cb_kennis.png,0,,,,,,,,,,,,,,,,,,,,,,
,,,,,00068,2023-10-18_09h09.56.962,vbt_B2_day3,2022.2.4,Win32,60.05645307,,,,,,down,0,1.868,,-0.128703718,-0.300925926,1,0,0,0,25,25,44,1,flits,images/br_flits.png,images/cb_flits.png,0,,,,,,,,,,,,,,,,,,,,,,
,,,,,00068,2023-10-18_09h09.56.962,vbt_B2_day3,2022.2.4,Win32,60.05645307,,,,,,down,0,2.4532,,-0.128703718,-0.300925926,1,0,0,0,26,26,113,1,koppen,images/br_koppen.png,images/cb_koppen.png,0,,,,,,,,,,,,,,,,,,,,,,
,,,,,00068,2023-10-18_09h09.56.962,vbt_B2_day3,2022.2.4,Win32,60.05645307,,,,,,down,0,0.2675,,-0.128703718,-0.300925926,1,0,0,0,27,27,129,1,verhaal,images/br_verhaal.png,images/cb_verhaal.png,0,,,,,,,,,,,,,,,,,,,,,,
,,,,,00068,2023-10-18_09h09.56.962,vbt_B2_day3,2022.2.4,Win32,60.05645307,,,,,,down,0,30.1142,,-0.128703718,-0.300925926,1,0,0,0,28,28,183,1,getuigen,images/br_getuigen.png,images/cb_getuigen.png,1,getmigen,,,,,,,,,,,,,,,,,,,,,
,,,,,00068,2023-10-18_09h09.56.962,vbt_B2_day3,2022.2.4,Win32,60.05645307,,,,,,down,0,1.6224,,-0.128703718,-0.300925926,1,0,0,0,29,29,14,1,rijp,images/br_rijp.png,images/cb_rijp.png,0,,,,,,,,,,,,,,,,,,,,,,
,,,,,00068,2023-10-18_09h09.56.962,vbt_B2_day3,2022.2.4,Win32,60.05645307,,,,,,down,0,2.6505,,-0.128703718,-0.300925926,1,0,0,0,30,30,99,1,koffie,images/br_koffie.png,images/cb_koffie.png,0,,,,,,,,,,,,,,,,,,,,,,
,,,,,00068,2023-10-18_09h09.56.962,vbt_B2_day3,2022.2.4,Win32,60.05645307,,,,,,down,0,7.7884,,-0.128703718,-0.300925926,1,0,0,0,31,31,119,1,liefje,images/br_liefje.png,images/cb_liefje.png,0,,,,,,,,,,,,,,,,,,,,,,
,,,,,00068,2023-10-18_09h09.56.962,vbt_B2_day3,2022.2.4,Win32,60.05645307,,,,,,down,0,7.7157,,-0.128703718,-0.300925926,1,0,0,0,32,32,192,1,schaamte,images/br_schaamte.png,images/cb_schaamte.png,0,,,,,,,,,,,,,,,,,,,,,,
,,,,,00068,2023-10-18_09h09.56.962,vbt_B2_day3,2022.2.4,Win32,60.05645307,,,,,,down,0,1.7691,,-0.128703718,-0.300925926,1,0,0,0,33,33,57,1,steek,images/br_steek.png,images/cb_steek.png,0,,,,,,,,,,,,,,,,,,,,,,
,,,,,00068,2023-10-18_09h09.56.962,vbt_B2_day3,2022.2.4,Win32,60.05645307,,,,,,down,0,7.0084,,-0.128703718,-0.300925926,1,0,0,0,34,34,144,1,eetlust,images/br_eetlust.png,images/cb_eetlust.png,0,,,,,,,,,,,,,,,,,,,,,,
,,,,,00068,2023-10-18_09h09.56.962,vbt_B2_day3,2022.2.4,Win32,60.05645307,,,,,,down,0,3.2992,,-0.128703718,-0.300925926,1,0,0,0,35,35,109,1,totaal,images/br_totaal.png,images/cb_totaal.png,0,,,,,,,,,,,,,,,,,,,,,,
,,,,,00068,2023-10-18_09h09.56.962,vbt_B2_day3,2022.2.4,Win32,60.05645307,,,,,,down,0,4.9504,,-0.128703718,-0.300925926,1,0,0,0,36,36,157,1,uitlaat,images/br_uitlaat.png,images/cb_uitlaat.png,0,,,,,,,,,,,,,,,,,,,,,,
,,,,,00068,2023-10-18_09h09.56.962,vbt_B2_day3,2022.2.4,Win32,60.05645307,,,,,,down,0,1.1064,,-0.128703718,-0.300925926,1,0,0,0,37,37,48,1,steel,images/br_steel.png,images/cb_steel.png,0,,,,,,,,,,,,,,,,,,,,,,
,,,,,00068,2023-10-18_09h09.56.962,vbt_B2_day3,2022.2.4,Win32,60.05645307,,,,,,down,0,4.7841,,-0.128703718,-0.300925926,1,0,0,0,38,38,130,1,keihard,images/br_keihard.png,images/cb_keihard.png,0,,,,,,,,,,,,,,,,,,,,,,
,,,,,00068,2023-10-18_09h09.56.962,vbt_B2_day3,2022.2.4,Win32,60.05645307,,,,,,down,0,4.6722,,-0.128703718,-0.300925926,1,0,0,0,39,39,53,1,baron,images/br_baron.png,images/cb_baron.png,0,,,,,,,,,,,,,,,,,,,,,,
,,,,,00068,2023-10-18_09h09.56.962,vbt_B2_day3,2022.2.4,Win32,60.05645307,,,,,,down,0,1.4845,,-0.128703718,-0.300925926,1,0,0,0,40,40,81,1,dubbel,images/br_dubbel.png,images/cb_dubbel.png,0,,,,,,,,,,,,,,,,,,,,,,
,,,,,00068,2023-10-18_09h09.56.962,vbt_B2_day3,2022.2.4,Win32,60.05645307,,,,,,down,0,0.3399,,-0.128703718,-0.300925926,1,0,0,0,41,41,172,1,weigeren,images/br_weigeren.png,images/cb_weigeren.png,0,,,,,,,,,,,,,,,,,,,,,,
,,,,,00068,2023-10-18_09h09.56.962,vbt_B2_day3,2022.2.4,Win32,60.05645307,,,,,,down,0,5.6767,,-0.128703718,-0.300925926,1,0,0,0,42,42,55,1,praat,images/br_praat.png,images/cb_praat.png,0,,,,,,,,,,,,,,,,,,,,,,
,,,,,00068,2023-10-18_09h09.56.962,vbt_B2_day3,2022.2.4,Win32,60.05645307,,,,,,down,0,2.4348,,-0.128703718,-0.300925926,1,0,0,0,43,43,5,1,blad,images/br_blad.png,images/cb_blad.png,0,,,,,,,,,,,,,,,,,,,,,,
,,,,,00068,2023-10-18_09h09.56.962,vbt_B2_day3,2022.2.4,Win32,60.05645307,,,,,,down,0,7.3606,,-0.128703718,-0.300925926,1,0,0,0,44,44,105,1,wijlen,images/br_wijlen.png,images/cb_wijlen.png,0,,,,,,,,,,,,,,,,,,,,,,
,,,,,00068,2023-10-18_09h09.56.962,vbt_B2_day3,2022.2.4,Win32,60.05645307,,,,,,down,0,1.088,,-0.128703718,-0.300925926,1,0,0,0,45,45,66,1,lever,images/br_lever.png,images/cb_lever.png,0,,,,,,,,,,,,,,,,,,,,,,
,,,,,00068,2023-10-18_09h09.56.962,vbt_B2_day3,2022.2.4,Win32,60.05645307,,,,,,down,0,0.2013,,-0.128703718,-0.300925926,1,0,0,0,46,46,80,1,kanjer,images/br_kanjer.png,images/cb_kanjer.png,0,,,,,,,,,,,,,,,,,,,,,,
,,,,,00068,2023-10-18_09h09.56.962,vbt_B2_day3,2022.2.4,Win32,60.05645307,,,,,,down,0,10.6676,,-0.147222236,-0.303703732,1,0,0,0,47,47,148,1,smullen,images/br_smullen.png,images/cb_smullen.png,0,,,,,,,,,,,,,,,,,,,,,,
,,,,,00068,2023-10-18_09h09.56.962,vbt_B2_day3,2022.2.4,Win32,60.05645307,,,,,,down,0,1.093,,-0.147222236,-0.303703732,0,0,1,0,48,48,135,1,gedicht,images/br_gedicht.png,images/cb_gedicht.png,0,,,,,,,,,,,,,,,,,,,,,,
,,,,,00068,2023-10-18_09h09.56.962,vbt_B2_day3,2022.2.4,Win32,60.05645307,,,,,,down,0,0.5007,,-0.237037023,-0.306481467,1,0,0,0,49,49,127,1,doodmoe,images/br_doodmoe.png,images/cb_doodmoe.png,0,,,,,,,,,,,,,,,,,,,,,,
,,,,,00068,2023-10-18_09h09.56.962,vbt_B2_day3,2022.2.4,Win32,60.05645307,,,,,,down,0,0.4301,,-0.237037023,-0.306481467,1,0,0,0,50,50,12,1,kust,images/br_kust.png,images/cb_kust.png,0,,,,,,,,,,,,,,,,,,,,,,
,,,,,00068,2023-10-18_09h09.56.962,vbt_B2_day3,2022.2.4,Win32,60.05645307,,,,,,down,0,0.1722,,-0.237037023,-0.306481467,1,0,0,0,51,51,25,1,plek,images/br_plek.png,images/cb_plek.png,0,,,,,,,,,,,,,,,,,,,,,,
,,,,,00068,2023-10-18_09h09.56.962,vbt_B2_day3,2022.2.4,Win32,60.05645307,,,,,,down,0,0.2185,,-0.287037037,-0.305555556,1,0,0,0,52,52,17,1,taal,images/br_taal.png,images/cb_taal.png,0,,,,,,,,,,,,,,,,,,,,,,
,,,,,00068,2023-10-18_09h09.56.962,vbt_B2_day3,2022.2.4,Win32,60.05645307,,,,,,down,0,0.3064,,-0.287037037,-0.305555556,0,0,1,0,53,53,156,1,rechten,images/br_rechten.png,images/cb_rechten.png,0,,,,,,,,,,,,,,,,,,,,,,
,,,,,00068,2023-10-18_09h09.56.962,vbt_B2_day3,2022.2.4,Win32,60.05645307,,,,,,down,0,1.0026,,-0.349074081,-0.310185185,1,0,0,0,54,54,98,1,kreeft,images/br_kreeft.png,images/cb_kreeft.png,0,,,,,,,,,,,,,,,,,,,,,,
,,,,,00068,2023-10-18_09h09.56.962,vbt_B2_day3,2022.2.4,Win32,60.05645307,,,,,,down,0,0.618,,-0.349074081,-0.310185185,1,0,0,0,55,55,131,1,opzicht,images/br_opzicht.png,images/cb_opzicht.png,0,,,,,,,,,,,,,,,,,,,,,,
,,,,,00068,2023-10-18_09h09.56.962,vbt_B2_day3,2022.2.4,Win32,60.05645307,,,,,,down,0,2.8511,,-0.349074081,-0.310185185,1,0,0,0,56,56,3,1,mand,images/br_mand.png,images/cb_mand.png,0,,,,,,,,,,,,,,,,,,,,,,
,,,,,00068,2023-10-18_09h09.56.962,vbt_B2_day3,2022.2.4,Win32,60.05645307,,,,,,down,0,0.4816,,-0.349074081,-0.310185185,1,0,0,0,57,57,93,1,waarop,images/br_waarop.png,images/cb_waarop.png,0,,,,,,,,,,,,,,,,,,,,,,
,,,,,00068,2023-10-18_09h09.56.962,vbt_B2_day3,2022.2.4,Win32,60.05645307,,,,,,down,0,3.7347,,-0.349074081,-0.310185185,1,0,0,0,58,58,88,1,boeien,images/br_boeien.png,images/cb_boeien.png,0,,,,,,,,,,,,,,,,,,,,,,
,,,,,00068,2023-10-18_09h09.56.962,vbt_B2_day3,2022.2.4,Win32,60.05645307,,,,,,down,0,5.0401,,-0.349074081,-0.310185185,1,0,0,0,59,59,126,1,kasteel,images/br_kasteel.png,images/cb_kasteel.png,0,,,,,,,,,,,,,,,,,,,,,,
,,,,,00068,2023-10-18_09h09.56.962,vbt_B2_day3,2022.2.4,Win32,60.05645307,,,,,,down,0,5.3579,,-0.349074081,-0.310185185,0,1,0,0,60,60,47,1,kabel,images/br_kabel.png,images/cb_kabel.png,0,,,,,,,,,,,,,,,,,,,,,,
,,,,,00068,2023-10-18_09h09.56.962,vbt_B2_day3,2022.2.4,Win32,60.05645307,,,,,,down,0,4.0011,,-0.36296297,-0.312962991,1,0,0,0,61,61,123,1,hiervan,images/br_hiervan.png,images/cb_hiervan.png,0,,,,,,,,,,,,,,,,,,,,,,
,,,,,00068,2023-10-18_09h09.56.962,vbt_B2_day3,2022.2.4,Win32,60.05645307,,,,,,down,0,10.4721,,-0.36296297,-0.312962991,0,0,1,0,62,62,83,1,mening,images/br_mening.png,images/cb_mening.png,0,,,,,,,,,,,,,,,,,,,,,,
,,,,,00068,2023-10-18_09h09.56.962,vbt_B2_day3,2022.2.4,Win32,60.05645307,,,,,,down,0,0.5299,,-0.41111109,-0.286111125,1,0,0,0,63,63,31,1,poes,images/br_poes.png,images/cb_poes.png,0,,,,,,,,,,,,,,,,,,,,,,
,,,,,00068,2023-10-18_09h09.56.962,vbt_B2_day3,2022.2.4,Win32,60.05645307,,,,,,down,0,10.159,,-0.41111109,-0.286111125,1,0,0,0,64,64,149,1,redding,images/br_redding.png,images/cb_redding.png,0,,,,,,,,,,,,,,,,,,,,,,
,,,,,00068,2023-10-18_09h09.56.962,vbt_B2_day3,2022.2.4,Win32,60.05645307,,,,,,down,0,0.2757,,-0.41111109,-0.286111125,1,0,0,0,65,65,28,1,stal,images/br_stal.png,images/cb_stal.png,0,,,,,,,,,,,,,,,,,,,,,,
,,,,,00068,2023-10-18_09h09.56.962,vbt_B2_day3,2022.2.4,Win32,60.05645307,,,,,,down,0,1.0946,,-0.41111109,-0.286111125,1,0,0,0,66,66,191,1,opheffen,images/br_opheffen.png,images/cb_opheffen.png,0,,,,,,,,,,,,,,,,,,,,,,
,,,,,00068,2023-10-18_09h09.56.962,vbt_B2_day3,2022.2.4,Win32,60.05645307,,,,,,down,0,0.0883,,-0.41111109,-0.286111125,1,0,0,0,67,67,85,1,heilig,images/br_heilig.png,images/cb_heilig.png,0,,,,,,,,,,,,,,,,,,,,,,
,,,,,00068,2023-10-18_09h09.56.962,vbt_B2_day3,2022.2.4,Win32,60.05645307,,,,,,down,0,0.0404,,-0.414814808,-0.286111125,1,0,0,0,68,68,92,1,geheim,images/br_geheim.png,images/cb_geheim.png,0,,,,,,,,,,,,,,,,,,,,,,
,,,,,00068,2023-10-18_09h09.56.962,vbt_B2_day3,2022.2.4,Win32,60.05645307,,,,,,down,0,0.1637,,-0.414814808,-0.286111125,1,0,0,0,69,69,52,1,wagon,images/br_wagon.png,images/cb_wagon.png,0,,,,,,,,,,,,,,,,,,,,,,
,,,,,00068,2023-10-18_09h09.56.962,vbt_B2_day3,2022.2.4,Win32,60.05645307,,,,,,down,0,0.6837,,-0.414814808,-0.286111125,1,0,0,0,70,70,0,1,slak,images/br_slak.png,images/cb_slak.png,0,,,,,,,,,,,,,,,,,,,,,,
,,,,,00068,2023-10-18_09h09.56.962,vbt_B2_day3,2022.2.4,Win32,60.05645307,,,,,,down,0,0.1314,,-0.414814808,-0.286111125,1,0,0,0,71,71,8,1,knie,images/br_knie.png,images/cb_knie.png,0,,,,,,,,,,,,,,,,,,,,,,
,,,,,00068,2023-10-18_09h09.56.962,vbt_B2_day3,2022.2.4,Win32,60.05645307,,,,,,down,0,0.6547,,-0.414814808,-0.286111125,1,0,0,0,72,72,198,1,bedoelen,images/br_bedoelen.png,images/cb_bedoelen.png,0,,,,,,,,,,,,,,,,,,,,,,
,,,,,00068,2023-10-18_09h09.56.962,vbt_B2_day3,2022.2.4,Win32,60.05645307,,,,,,down,0,0.3638,,-0.414814808,-0.286111125,1,0,0,0,73,73,177,1,maaltijd,images/br_maaltijd.png,images/cb_maaltijd.png,0,,,,,,,,,,,,,,,,,,,,,,
,,,,,00068,2023-10-18_09h09.56.962,vbt_B2_day3,2022.2.4,Win32,60.05645307,,,,,,down,0,0.1997,,-0.414814808,-0.286111125,1,0,0,0,74,74,171,1,aarzelen,images/br_aarzelen.png,images/cb_aarzelen.png,0,,,,,,,,,,,,,,,,,,,,,,
,,,,,00068,2023-10-18_09h09.56.962,vbt_B2_day3,2022.2.4,Win32,60.05645307,,,,,,down,0,4.3484,,-0.414814808,-0.286111125,1,0,0,0,75,75,164,1,anarchie,images/br_anarchie.png,images/cb_anarchie.png,0,,,,,,,,,,,,,,,,,,,,,,
,,,,,00068,2023-10-18_09h09.56.962,vbt_B2_day3,2022.2.4,Win32,60.05645307,,,,,,down,0,15.5552,,-0.414814808,-0.286111125,1,0,0,0,76,76,60,1,jasje,images/br_jasje.png,images/cb_jasje.png,1,dasde,,,,,,,,,,,,,,,,,,,,,
,,,,,00068,2023-10-18_09h09.56.962,vbt_B2_day3,2022.2.4,Win32,60.05645307,,,,,,down,0,3.2771,,-0.414814808,-0.286111125,1,0,0,0,77,77,187,1,opkijken,images/br_opkijken.png,images/cb_opkijken.png,0,,,,,,,,,,,,,,,,,,,,,,
,,,,,00068,2023-10-18_09h09.56.962,vbt_B2_day3,2022.2.4,Win32,60.05645307,,,,,,down,0,2.3467,,-0.414814808,-0.286111125,1,0,0,0,78,78,32,1,palm,images/br_palm.png,images/cb_palm.png,0,,,,,,,,,,,,,,,,,,,,,,
,,,,,00068,2023-10-18_09h09.56.962,vbt_B2_day3,2022.2.4,Win32,60.05645307,,,,,,down,0,2.4176,,-0.414814808,-0.286111125,1,0,0,0,79,79,112,1,lukken,images/br_lukken.png,images/cb_lukken.png,0,,,,,,,,,,,,,,,,,,,,,,
,,,,,00068,2023-10-18_09h09.56.962,vbt_B2_day3,2022.2.4,Win32,60.05645307,,,,,,down,0,1.3298,,-0.414814808,-0.286111125,1,0,0,0,80,80,152,1,afnemen,images/br_afnemen.png,images/cb_afnemen.png,0,,,,,,,,,,,,,,,,,,,,,,
,,,,,00068,2023-10-18_09h09.56.962,vbt_B2_day3,2022.2.4,Win32,60.05645307,,,,,,down,0,10.8168,,-0.414814808,-0.286111125,1,0,0,0,81,81,111,1,ticket,images/br_ticket.png,images/cb_ticket.png,0,,,,,,,,,,,,,,,,,,,,,,
,,,,,00068,2023-10-18_09h09.56.962,vbt_B2_day3,2022.2.4,Win32,60.05645307,,,,,,down,0,0.4169,,-0.414814808,-0.286111125,1,0,0,0,82,82,194,1,driemaal,images/br_driemaal.png,images/cb_driemaal.png,0,,,,,,,,,,,,,,,,,,,,,,
,,,,,00068,2023-10-18_09h09.56.962,vbt_B2_day3,2022.2.4,Win32,60.05645307,,,,,,down,0,0.8011,,-0.414814808,-0.286111125,1,0,0,0,83,83,196,1,nakijken,images/br_nakijken.png,images/cb_nakijken.png,0,,,,,,,,,,,,,,,,,,,,,,
,,,,,00068,2023-10-18_09h09.56.962,vbt_B2_day3,2022.2.4,Win32,60.05645307,,,,,,down,0,0.7829,,-0.414814808,-0.286111125,1,0,0,0,84,84,58,1,tekst,images/br_tekst.png,images/cb_tekst.png,0,,,,,,,,,,,,,,,,,,,,,,
,,,,,00068,2023-10-18_09h09.56.962,vbt_B2_day3,2022.2.4,Win32,60.05645307,,,,,,down,0,2.317,,-0.414814808,-0.286111125,1,0,0,0,85,85,174,1,stemming,images/br_stemming.png,images/cb_stemming.png,0,,,,,,,,,,,,,,,,,,,,,,
,,,,,00068,2023-10-18_09h09.56.962,vbt_B2_day3,2022.2.4,Win32,60.05645307,,,,,,down,0,0.8464,,-0.414814808,-0.286111125,1,0,0,0,86,86,39,1,laag,images/br_laag.png,images/cb_laag.png,0,,,,,,,,,,,,,,,,,,,,,,
,,,,,00068,2023-10-18_09h09.56.962,vbt_B2_day3,2022.2.4,Win32,60.05645307,,,,,,down,0,1.885,,-0.414814808,-0.286111125,1,0,0,0,87,87,45,1,piste,images/br_piste.png,images/cb_piste.png,0,,,,,,,,,,,,,,,,,,,,,,
,,,,,00068,2023-10-18_09h09.56.962,vbt_B2_day3,2022.2.4,Win32,60.05645307,,,,,,down,0,7.2664,,-0.414814808,-0.286111125,1,0,0,0,88,88,36,1,vuur,images/br_vuur.png,images/cb_vuur.png,0,,,,,,,,,,,,,,,,,,,,,,
,,,,,00068,2023-10-18_09h09.56.962,vbt_B2_day3,2022.2.4,Win32,60.05645307,,,,,,down,0,10.4186,,-0.414814808,-0.286111125,1,0,0,0,89,89,193,1,weeshuis,images/br_weeshuis.png,images/cb_weeshuis.png,0,,,,,,,,,,,,,,,,,,,,,,
,,,,,00068,2023-10-18_09h09.56.962,vbt_B2_day3,2022.2.4,Win32,60.05645307,,,,,,down,0,2.6334,,-0.414814808,-0.286111125,1,0,0,0,90,90,54,1,gebit,images/br_gebit.png,images/cb_gebit.png,0,,,,,,,,,,,,,,,,,,,,,,
,,,,,00068,2023-10-18_09h09.56.962,vbt_B2_day3,2022.2.4,Win32,60.05645307,,,,,,down,0,4.6206,,-0.414814808,-0.286111125,1,0,0,0,91,91,120,1,klimmen,images/br_klimmen.png,images/cb_klimmen.png,0,,,,,,,,,,,,,,,,,,,,,,
,,,,,00068,2023-10-18_09h09.56.962,vbt_B2_day3,2022.2.4,Win32,60.05645307,,,,,,down,0,8.2524,,-0.414814808,-0.286111125,0,1,0,0,92,92,163,1,schuilen,images/br_schuilen.png,images/cb_schuilen.png,0,,,,,,,,,,,,,,,,,,,,,,
,,,,,00068,2023-10-18_09h09.56.962,vbt_B2_day3,2022.2.4,Win32,60.05645307,,,,,,down,0,0.783,,-0.414814808,-0.286111125,1,0,0,0,93,93,30,1,uien,images/br_uien.png,images/cb_uien.png,0,,,,,,,,,,,,,,,,,,,,,,
,,,,,00068,2023-10-18_09h09.56.962,vbt_B2_day3,2022.2.4,Win32,60.05645307,,,,,,down,0,21.54,,-0.414814808,-0.286111125,1,0,0,0,94,94,143,1,hechten,images/br_hechten.png,images/cb_hechten.png,1,hechten,,,,,,,,,,,,,,,,,,,,,
,,,,,00068,2023-10-18_09h09.56.962,vbt_B2_day3,2022.2.4,Win32,60.05645307,,,,,,down,0,4.6183,,-0.170370384,-0.298148191,1,0,0,0,95,95,62,1,knaap,images/br_knaap.png,images/cb_knaap.png,1,knaap,,,,,,,,,,,,,,,,,,,,,
,,,,,00068,2023-10-18_09h09.56.962,vbt_B2_day3,2022.2.4,Win32,60.05645307,,,,,,down,0,1.7387,,-0.170370384,-0.298148191,1,0,0,0,96,96,96,1,slagen,images/br_slagen.png,images/cb_slagen.png,0,,,,,,,,,,,,,,,,,,,,,,
,,,,,00068,2023-10-18_09h09.56.962,vbt_B2_day3,2022.2.4,Win32,60.05645307,,,,,,down,0,0.6688,,-0.170370384,-0.298148191,1,0,0,0,97,97,116,1,besmet,images/br_besmet.png,images/cb_besmet.png,0,,,,,,,,,,,,,,,,,,,,,,
,,,,,00068,2023-10-18_09h09.56.962,vbt_B2_day3,2022.2.4,Win32,60.05645307,,,,,,down,0,0.0044,,-0.170370384,-0.298148191,1,0,0,0,98,98,7,1,geld,images/br_geld.png,images/cb_geld.png,0,,,,,,,,,,,,,,,,,,,,,,
,,,,,00068,2023-10-18_09h09.56.962,vbt_B2_day3,2022.2.4,Win32,60.05645307,,,,,,down,0,0.0671,,-0.170370384,-0.298148191,1,0,0,0,99,99,19,1,geit,images/br_geit.png,images/cb_geit.png,0,,,,,,,,,,,,,,,,,,,,,,
,,,,,00068,2023-10-18_09h09.56.962,vbt_B2_day3,2022.2.4,Win32,60.05645307,,,,,,down,0,0.1498,,-0.170370384,-0.298148191,1,0,0,0,100,100,34,1,vorm,images/br_vorm.png,images/cb_vorm.png,0,,,,,,,,,,,,,,,,,,,,,,
,,,,,00068,2023-10-18_09h09.56.962,vbt_B2_day3,2022.2.4,Win32,60.05645307,,,,,,down,0,0.3556,,-0.170370384,-0.298148191,1,0,0,0,101,101,170,1,schatten,images/br_schatten.png,images/cb_schatten.png,0,,,,,,,,,,,,,,,,,,,,,,
,,,,,00068,2023-10-18_09h09.56.962,vbt_B2_day3,2022.2.4,Win32,60.05645307,,,,,,down,0,0.9008,,-0.170370384,-0.298148191,1,0,0,0,102,102,195,1,middelen,images/br_middelen.png,images/cb_middelen.png,0,,,,,,,,,,,,,,,,,,,,,,
,,,,,00068,2023-10-18_09h09.56.962,vbt_B2_day3,2022.2.4,Win32,60.05645307,,,,,,down,0,0.2006,,-0.170370384,-0.298148191,1,0,0,0,103,103,185,1,mijnheer,images/br_mijnheer.png,images/cb_mijnheer.png,0,,,,,,,,,,,,,,,,,,,,,,
,,,,,00068,2023-10-18_09h09.56.962,vbt_B2_day3,2022.2.4,Win32,60.05645307,,,,,,down,0,6.8011,,-0.170370384,-0.298148191,1,0,0,0,104,104,22,1,stof,images/br_stof.png,images/cb_stof.png,1,stof,,,,,,,,,,,,,,,,,,,,,
,,,,,00068,2023-10-18_09h09.56.962,vbt_B2_day3,2022.2.4,Win32,60.05645307,,,,,,down,0,13.0649,,-0.070370356,-0.285185213,1,0,0,0,105,105,181,1,toegeven,images/br_toegeven.png,images/cb_toegeven.png,1,toegeven,,,,,,,,,,,,,,,,,,,,,
,,,,,00068,2023-10-18_09h09.56.962,vbt_B2_day3,2022.2.4,Win32,60.05645307,,,,,,down,0,2.8511,,-0.070370356,-0.285185213,1,0,0,0,106,106,6,1,diep,images/br_diep.png,images/cb_diep.png,0,,,,,,,,,,,,,,,,,,,,,,
,,,,,00068,2023-10-18_09h09.56.962,vbt_B2_day3,2022.2.4,Win32,60.05645307,,,,,,down,0,12.433,,-0.070370356,-0.285185213,1,0,0,0,107,107,166,1,strikken,images/br_strikken.png,images/cb_strikken.png,0,,,,,,,,,,,,,,,,,,,,,,
,,,,,00068,2023-10-18_09h09.56.962,vbt_B2_day3,2022.2.4,Win32,60.05645307,,,,,,down,0,0.0005,,-0.070370356,-0.285185213,1,0,0,0,108,108,106,1,zingen,images/br_zingen.png,images/cb_zingen.png,0,,,,,,,,,,,,,,,,,,,,,,
,,,,,00068,2023-10-18_09h09.56.962,vbt_B2_day3,2022.2.4,Win32,60.05645307,,,,,,down,0,6.2673,,-0.070370356,-0.285185213,1,0,0,0,109,109,102,1,legaal,images/br_legaal.png,images/cb_legaal.png,1,legaal,,,,,,,,,,,,,,,,,,,,,
,,,,,00068,2023-10-18_09h09.56.962,vbt_B2_day3,2022.2.4,Win32,60.05645307,,,,,,down,0,0.4461,,-0.070370356,-0.285185213,1,0,0,0,110,110,29,1,baas,images/br_baas.png,images/cb_baas.png,0,,,,,,,,,,,,,,,,,,,,,,
,,,,,00068,2023-10-18_09h09.56.962,vbt_B2_day3,2022.2.4,Win32,60.05645307,,,,,,down,0,0.0548,,-0.070370356,-0.285185213,1,0,0,0,111,111,199,1,beseffen,images/br_beseffen.png,images/cb_beseffen.png,0,,,,,,,,,,,,,,,,,,,,,,
,,,,,00068,2023-10-18_09h09.56.962,vbt_B2_day3,2022.2.4,Win32,60.05645307,,,,,,down,0,0.5008,,-0.070370356,-0.285185213,1,0,0,0,112,112,1,1,zaal,images/br_zaal.png,images/cb_zaal.png,0,,,,,,,,,,,,,,,,,,,,,,
,,,,,00068,2023-10-18_09h09.56.962,vbt_B2_day3,2022.2.4,Win32,60.05645307,,,,,,down,0,0.2561,,-0.070370356,-0.285185213,1,0,0,0,113,113,24,1,jurk,images/br_jurk.png,images/cb_jurk.png,0,,,,,,,,,,,,,,,,,,,,,,
,,,,,00068,2023-10-18_09h09.56.962,vbt_B2_day3,2022.2.4,Win32,60.05645307,,,,,,down,0,0.3723,,-0.070370356,-0.285185213,1,0,0,0,114,114,11,1,mode,images/br_mode.png,images/cb_mode.png,0,,,,,,,,,,,,,,,,,,,,,,
,,,,,00068,2023-10-18_09h09.56.962,vbt_B2_day3,2022.2.4,Win32,60.05645307,,,,,,down,0,0.2892,,-0.070370356,-0.285185213,1,0,0,0,115,115,145,1,invloed,images/br_invloed.png,images/cb_invloed.png,0,,,,,,,,,,,,,,,,,,,,,,
,,,,,00068,2023-10-18_09h09.56.962,vbt_B2_day3,2022.2.4,Win32,60.05645307,,,,,,down,0,1.7531,,-0.070370356,-0.285185213,1,0,0,0,116,116,184,1,aandelen,images/br_aandelen.png,images/cb_aandelen.png,0,,,,,,,,,,,,,,,,,,,,,,
,,,,,00068,2023-10-18_09h09.56.962,vbt_B2_day3,2022.2.4,Win32,60.05645307,,,,,,down,0,0.2564,,-0.070370356,-0.285185213,1,0,0,0,117,117,2,1,jaar,images/br_jaar.png,images/cb_jaar.png,0,,,,,,,,,,,,,,,,,,,,,,
,,,,,00068,2023-10-18_09h09.56.962,vbt_B2_day3,2022.2.4,Win32,60.05645307,,,,,,down,0,0.5545,,-0.070370356,-0.285185213,1,0,0,0,118,118,89,1,slapen,images/br_slapen.png,images/cb_slapen.png,0,,,,,,,,,,,,,,,,,,,,,,
,,,,,00068,2023-10-18_09h09.56.962,vbt_B2_day3,2022.2.4,Win32,60.05645307,,,,,,down,0,5.1217,,-0.070370356,-0.285185213,1,0,0,0,119,119,21,1,mist,images/br_mist.png,images/cb_mist.png,1,zest,,,,,,,,,,,,,,,,,,,,,
,,,,,00068,2023-10-18_09h09.56.962,vbt_B2_day3,2022.2.4,Win32,60.05645307,,,,,,down,0,1.7923,,-0.070370356,-0.285185213,1,0,0,0,120,120,46,1,jagen,images/br_jagen.png,images/cb_jagen.png,0,,,,,,,,,,,,,,,,,,,,,,
,,,,,00068,2023-10-18_09h09.56.962,vbt_B2_day3,2022.2.4,Win32,60.05645307,,,,,,down,0,6.2852,,-0.070370356,-0.285185213,1,0,0,0,121,121,180,1,openbaar,images/br_openbaar.png,images/cb_openbaar.png,1,openbaar,,,,,,,,,,,,,,,,,,,,,
,,,,,00068,2023-10-18_09h09.56.962,vbt_B2_day3,2022.2.4,Win32,60.05645307,,,,,,down,0,1.2568,,-0.070370356,-0.285185213,1,0,0,0,122,122,132,1,grappen,images/br_grappen.png,images/cb_grappen.png,0,,,,,,,,,,,,,,,,,,,,,,
,,,,,00068,2023-10-18_09h09.56.962,vbt_B2_day3,2022.2.4,Win32,60.05645307,,,,,,down,0,0.2789,,-0.070370356,-0.285185213,1,0,0,0,123,123,108,1,excuus,images/br_excuus.png,images/cb_excuus.png,0,,,,,,,,,,,,,,,,,,,,,,
,,,,,00068,2023-10-18_09h09.56.962,vbt_B2_day3,2022.2.4,Win32,60.05645307,,,,,,down,0,0.7389,,-0.073148162,-0.285185213,1,0,0,0,124,124,90,1,geluid,images/br_geluid.png,images/cb_geluid.png,0,,,,,,,,,,,,,,,,,,,,,,
,,,,,00068,2023-10-18_09h09.56.962,vbt_B2_day3,2022.2.4,Win32,60.05645307,,,,,,down,0,0.6192,,-0.073148162,-0.285185213,1,0,0,0,125,125,64,1,wegen,images/br_wegen.png,images/cb_wegen.png,0,,,,,,,,,,,,,,,,,,,,,,
,,,,,00068,2023-10-18_09h09.56.962,vbt_B2_day3,2022.2.4,Win32,60.05645307,,,,,,down,0,65.3834,,-0.073148162,-0.285185213,1,0,0,0,126,126,18,1,blik,images/br_blik.png,images/cb_blik.png,0,,,,,,,,,,,,,,,,,,,,,,
,,,,,00068,2023-10-18_09h09.56.962,vbt_B2_day3,2022.2.4,Win32,60.05645307,,,,,,down,0,0.3099,,-0.073148162,-0.285185213,1,0,0,0,127,127,77,1,woede,images/br_woede.png,images/cb_woede.png,0,,,,,,,,,,,,,,,,,,,,,,
,,,,,00068,2023-10-18_09h09.56.962,vbt_B2_day3,2022.2.4,Win32,60.05645307,,,,,,down,0,0.5343,,-0.073148162,-0.285185213,1,0,0,0,128,128,159,1,sufferd,images/br_sufferd.png,images/cb_sufferd.png,0,,,,,,,,,,,,,,,,,,,,,,
,,,,,00068,2023-10-18_09h09.56.962,vbt_B2_day3,2022.2.4,Win32,60.05645307,,,,,,down,0,0.0537,,-0.073148162,-0.285185213,1,0,0,0,129,129,68,1,schat,images/br_schat.png,images/cb_schat.png,0,,,,,,,,,,,,,,,,,,,,,,
,,,,,00068,2023-10-18_09h09.56.962,vbt_B2_day3,2022.2.4,Win32,60.05645307,,,,,,down,0,0.4861,,-0.073148162,-0.285185213,1,0,0,0,130,130,75,1,snoep,images/br_snoep.png,images/cb_snoep.png,0,,,,,,,,,,,,,,,,,,,,,,
,,,,,00068,2023-10-18_09h09.56.962,vbt_B2_day3,2022.2.4,Win32,60.05645307,,,,,,down,0,0.1843,,-0.073148162,-0.285185213,1,0,0,0,131,131,71,1,bever,images/br_bever.png,images/cb_bever.png,0,,,,,,,,,,,,,,,,,,,,,,
,,,,,00068,2023-10-18_09h09.56.962,vbt_B2_day3,2022.2.4,Win32,60.05645307,,,,,,down,0,2.8892,,-0.073148162,-0.285185213,1,0,0,0,132,132,49,1,laken,images/br_laken.png,images/cb_laken.png,0,,,,,,,,,,,,,,,,,,,,,,
,,,,,00068,2023-10-18_09h09.56.962,vbt_B2_day3,2022.2.4,Win32,60.05645307,,,,,,down,0,0.6992,,-0.073148162,-0.285185213,1,0,0,0,133,133,35,1,lust,images/br_lust.png,images/cb_lust.png,0,,,,,,,,,,,,,,,,,,,,,,
,,,,,00068,2023-10-18_09h09.56.962,vbt_B2_day3,2022.2.4,Win32,60.05645307,,,,,,down,0,0.1548,,-0.073148162,-0.285185213,1,0,0,0,134,134,78,1,leren,images/br_leren.png,images/cb_leren.png,0,,,,,,,,,,,,,,,,,,,,,,
,,,,,00068,2023-10-18_09h09.56.962,vbt_B2_day3,2022.2.4,Win32,60.05645307,,,,,,down,0,0.0497,,-0.073148162,-0.285185213,1,0,0,0,135,135,91,1,gezond,images/br_gezond.png,images/cb_gezond.png,0,,,,,,,,,,,,,,,,,,,,,,
,,,,,00068,2023-10-18_09h09.56.962,vbt_B2_day3,2022.2.4,Win32,60.05645307,,,,,,down,0,33.6517,,-0.073148162,-0.285185213,1,0,0,0,136,136,97,1,loyaal,images/br_loyaal.png,images/cb_loyaal.png,0,,,,,,,,,,,,,,,,,,,,,,
,,,,,00068,2023-10-18_09h09.56.962,vbt_B2_day3,2022.2.4,Win32,60.05645307,,,,,,down,0,0.0812,,-0.073148162,-0.285185213,1,0,0,0,137,137,122,1,waarvan,images/br_waarvan.png,images/cb_waarvan.png,0,,,,,,,,,,,,,,,,,,,,,,
,,,,,00068,2023-10-18_09h09.56.962,vbt_B2_day3,2022.2.4,Win32,60.05645307,,,,,,down,0,0.0221,,-0.073148162,-0.285185213,1,0,0,0,138,138,176,1,techniek,images/br_techniek.png,images/cb_techniek.png,0,,,,,,,,,,,,,,,,,,,,,,
,,,,,00068,2023-10-18_09h09.56.962,vbt_B2_day3,2022.2.4,Win32,60.05645307,,,,,,down,0,0.2545,,-0.076851809,-0.285185213,1,0,0,0,139,139,38,1,baai,images/br_baai.png,images/cb_baai.png,0,,,,,,,,,,,,,,,,,,,,,,
,,,,,00068,2023-10-18_09h09.56.962,vbt_B2_day3,2022.2.4,Win32,60.05645307,,,,,,down,0,2.7049,,-0.088888875,-0.287037037,1,0,0,0,140,140,74,1,graaf,images/br_graaf.png,images/cb_graaf.png,0,,,,,,,,,,,,,,,,,,,,,,
,,,,,00068,2023-10-18_09h09.56.962,vbt_B2_day3,2022.2.4,Win32,60.05645307,,,,,,down,0,0.441,,-0.088888875,-0.287037037,1,0,0,0,141,141,110,1,zuster,images/br_zuster.png,images/cb_zuster.png,0,,,,,,,,,,,,,,,,,,,,,,
,,,,,00068,2023-10-18_09h09.56.962,vbt_B2_day3,2022.2.4,Win32,60.05645307,,,,,,down,0,1.0359,,-0.088888875,-0.287037037,1,0,0,0,142,142,137,1,trekker,images/br_trekker.png,images/cb_trekker.png,0,,,,,,,,,,,,,,,,,,,,,,
,,,,,00068,2023-10-18_09h09.56.962,vbt_B2_day3,2022.2.4,Win32,60.05645307,,,,,,down,0,32.6406,,-0.088888875,-0.287037037,1,0,0,0,143,143,82,1,muziek,images/br_muziek.png,images/cb_muziek.png,0,,,,,,,,,,,,,,,,,,,,,,
,,,,,00068,2023-10-18_09h09.56.962,vbt_B2_day3,2022.2.4,Win32,60.05645307,,,,,,down,0,0.3402,,-0.088888875,-0.287037037,1,0,0,0,144,144,4,1,moes,images/br_moes.png,images/cb_moes.png,0,,,,,,,,,,,,,,,,,,,,,,
,,,,,00068,2023-10-18_09h09.56.962,vbt_B2_day3,2022.2.4,Win32,60.05645307,,,,,,down,0,0.1013,,-0.088888875,-0.287037037,1,0,0,0,145,145,197,1,spanning,images/br_spanning.png,images/cb_spanning.png,0,,,,,,,,,,,,,,,,,,,,,,
,,,,,00068,2023-10-18_09h09.56.962,vbt_B2_day3,2022.2.4,Win32,60.05645307,,,,,,down,0,15.717,,-0.088888875,-0.287037037,1,0,0,0,146,146,182,1,bijkomen,images/br_bijkomen.png,images/cb_bijkomen.png,1,b,,,,,,,,,,,,,,,,,,,,,
,,,,,00068,2023-10-18_09h09.56.962,vbt_B2_day3,2022.2.4,Win32,60.05645307,,,,,,down,0,0.1212,,-0.088888875,-0.287037037,1,0,0,0,147,147,72,1,strak,images/br_strak.png,images/cb_strak.png,0,,,,,,,,,,,,,,,,,,,,,,
,,,,,00068,2023-10-18_09h09.56.962,vbt_B2_day3,2022.2.4,Win32,60.05645307,,,,,,down,0,0.9052,,-0.088888875,-0.287037037,1,0,0,0,148,148,114,1,vullen,images/br_vullen.png,images/cb_vullen.png,0,,,,,,,,,,,,,,,,,,,,,,
,,,,,00068,2023-10-18_09h09.56.962,vbt_B2_day3,2022.2.4,Win32,60.05645307,,,,,,down,0,7.2781,,-0.088888875,-0.287037037,1,0,0,0,149,149,67,1,zwart,images/br_zwart.png,images/cb_zwart.png,0,,,,,,,,,,,,,,,,,,,,,,
,,,,,00068,2023-10-18_09h09.56.962,vbt_B2_day3,2022.2.4,Win32,60.05645307,,,,,,down,0,0.123,,-0.088888875,-0.287037037,1,0,0,0,150,150,169,1,oprotten,images/br_oprotten.png,images/cb_oprotten.png,0,,,,,,,,,,,,,,,,,,,,,,
,,,,,00068,2023-10-18_09h09.56.962,vbt_B2_day3,2022.2.4,Win32,60.05645307,,,,,,down,0,0.1178,,-0.088888875,-0.287037037,1,0,0,0,151,151,168,1,bisschop,images/br_bisschop.png,images/cb_bisschop.png,0,,,,,,,,,,,,,,,,,,,,,,
,,,,,00068,2023-10-18_09h09.56.962,vbt_B2_day3,2022.2.4,Win32,60.05645307,,,,,,down,0,17.8344,,-0.138888889,-0.229629658,1,0,0,0,152,152,61,1,groen,images/br_groen.png,images/cb_groen.png,1,groen,,,,,,,,,,,,,,,,,,,,,
,,,,,00068,2023-10-18_09h09.56.962,vbt_B2_day3,2022.2.4,Win32,60.05645307,,,,,,down,0,0.1529,,-0.138888889,-0.229629658,1,0,0,0,153,153,33,1,vlek,images/br_vlek.png,images/cb_vlek.png,0,,,,,,,,,,,,,,,,,,,,,,
,,,,,00068,2023-10-18_09h09.56.962,vbt_B2_day3,2022.2.4,Win32,60.05645307,,,,,,down,0,0.2638,,-0.138888889,-0.229629658,1,0,0,0,154,154,155,1,gerucht,images/br_gerucht.png,images/cb_gerucht.png,0,,,,,,,,,,,,,,,,,,,,,,
,,,,,00068,2023-10-18_09h09.56.962,vbt_B2_day3,2022.2.4,Win32,60.05645307,,,,,,down,0,0.3002,,-0.138888889,-0.229629658,1,0,0,0,155,155,186,1,voorraad,images/br_voorraad.png,images/cb_voorraad.png,0,,,,,,,,,,,,,,,,,,,,,,
,,,,,00068,2023-10-18_09h09.56.962,vbt_B2_day3,2022.2.4,Win32,60.05645307,,,,,,down,0,4.1173,,-0.138888889,-0.229629658,1,0,0,0,156,156,69,1,waken,images/br_waken.png,images/cb_waken.png,0,,,,,,,,,,,,,,,,,,,,,,
,,,,,00068,2023-10-18_09h09.56.962,vbt_B2_day3,2022.2.4,Win32,60.05645307,,,,,,down,0,1.5109,,-0.138888889,-0.229629658,1,0,0,0,157,157,84,1,lokken,images/br_lokken.png,images/cb_lokken.png,0,,,,,,,,,,,,,,,,,,,,,,
,,,,,00068,2023-10-18_09h09.56.962,vbt_B2_day3,2022.2.4,Win32,60.05645307,,,,,,down,0,18.0709,,-0.143518519,-0.237037023,1,0,0,0,158,158,140,1,blijven,images/br_blijven.png,images/cb_blijven.png,1,blijven,,,,,,,,,,,,,,,,,,,,,
,,,,,00068,2023-10-18_09h09.56.962,vbt_B2_day3,2022.2.4,Win32,60.05645307,,,,,,down,0,9.0392,,-0.142592607,-0.237963005,1,0,0,0,159,159,190,1,goedkoop,images/br_goedkoop.png,images/cb_goedkoop.png,0,,,,,,,,,,,,,,,,,,,,,,
,,,,,00068,2023-10-18_09h09.56.962,vbt_B2_day3,2022.2.4,Win32,60.05645307,,,,,,down,0,0.3864,,-0.142592607,-0.237963005,1,0,0,0,160,160,162,1,uitdelen,images/br_uitdelen.png,images/cb_uitdelen.png,0,,,,,,,,,,,,,,,,,,,,,,
,,,,,00068,2023-10-18_09h09.56.962,vbt_B2_day3,2022.2.4,Win32,60.05645307,,,,,,down,0,0.7685,,-0.142592607,-0.237963005,1,0,0,0,161,161,146,1,opkomen,images/br_opkomen.png,images/cb_opkomen.png,0,,,,,,,,,,,,,,,,,,,,,,
,,,,,00068,2023-10-18_09h09.56.962,vbt_B2_day3,2022.2.4,Win32,60.05645307,,,,,,down,0,0.1105,,-0.142592607,-0.237963005,1,0,0,0,162,162,37,1,mijn,images/br_mijn.png,images/cb_mijn.png,0,,,,,,,,,,,,,,,,,,,,,,
,,,,,00068,2023-10-18_09h09.56.962,vbt_B2_day3,2022.2.4,Win32,60.05645307,,,,,,down,0,0.3387,,-0.142592607,-0.237963005,1,0,0,0,163,163,13,1,kaal,images/br_kaal.png,images/cb_kaal.png,0,,,,,,,,,,,,,,,,,,,,,,
,,,,,00068,2023-10-18_09h09.56.962,vbt_B2_day3,2022.2.4,Win32,60.05645307,,,,,,down,0,0.5896,,-0.142592607,-0.237963005,1,0,0,0,164,164,56,1,traag,images/br_traag.png,images/cb_traag.png,0,,,,,,,,,,,,,,,,,,,,,,
,,,,,00068,2023-10-18_09h09.56.962,vbt_B2_day3,2022.2.4,Win32,60.05645307,,,,,,down,0,16.0657,,-0.142592607,-0.237963005,1,0,0,0,165,165,142,1,snuiven,images/br_snuiven.png,images/cb_snuiven.png,1,snuiven,,,,,,,,,,,,,,,,,,,,,
,,,,,00068,2023-10-18_09h09.56.962,vbt_B2_day3,2022.2.4,Win32,60.05645307,,,,,,down,0,6.6389,,-0.142592607,-0.237963005,1,0,0,0,166,166,189,1,aanraden,images/br_aanraden.png,images/cb_aanraden.png,0,,,,,,,,,,,,,,,,,,,,,,
,,,,,00068,2023-10-18_09h09.56.962,vbt_B2_day3,2022.2.4,Win32,60.05645307,,,,,,down,0,2.025,,-0.142592607,-0.237963005,1,0,0,0,167,167,107,1,maling,images/br_maling.png,images/cb_maling.png,0,,,,,,,,,,,,,,,,,,,,,,
,,,,,00068,2023-10-18_09h09.56.962,vbt_B2_day3,2022.2.4,Win32,60.05645307,,,,,,down,0,0.2339,,-0.142592607,-0.237963005,1,0,0,0,168,168,73,1,volop,images/br_volop.png,images/cb_volop.png,0,,,,,,,,,,,,,,,,,,,,,,
,,,,,00068,2023-10-18_09h09.56.962,vbt_B2_day3,2022.2.4,Win32,60.05645307,,,,,,down,0,0.3444,,-0.142592607,-0.237963005,1,0,0,0,169,169,139,1,stiekem,images/br_stiekem.png,images/cb_stiekem.png,0,,,,,,,,,,,,,,,,,,,,,,
,,,,,00068,2023-10-18_09h09.56.962,vbt_B2_day3,2022.2.4,Win32,60.05645307,,,,,,down,0,1.253,,-0.142592607,-0.237963005,1,0,0,0,170,170,59,1,kring,images/br_kring.png,images/cb_kring.png,0,,,,,,,,,,,,,,,,,,,,,,
,,,,,00068,2023-10-18_09h09.56.962,vbt_B2_day3,2022.2.4,Win32,60.05645307,,,,,,down,0,17.0669,,-0.142592607,-0.237963005,1,0,0,0,171,171,23,1,zout,images/br_zout.png,images/cb_zout.png,1,.ovt,,,,,,,,,,,,,,,,,,,,,
,,,,,00068,2023-10-18_09h09.56.962,vbt_B2_day3,2022.2.4,Win32,60.05645307,,,,,,down,0,1.7345,,-0.142592607,-0.237963005,1,0,0,0,172,172,173,1,apparaat,images/br_apparaat.png,images/cb_apparaat.png,0,,,,,,,,,,,,,,,,,,,,,,
,,,,,00068,2023-10-18_09h09.56.962,vbt_B2_day3,2022.2.4,Win32,60.05645307,,,,,,down,0,3.392,,-0.142592607,-0.237963005,1,0,0,0,173,173,150,1,gegeven,images/br_gegeven.png,images/cb_gegeven.png,0,,,,,,,,,,,,,,,,,,,,,,
,,,,,00068,2023-10-18_09h09.56.962,vbt_B2_day3,2022.2.4,Win32,60.05645307,,,,,,down,0,0.0546,,-0.142592607,-0.237963005,1,0,0,0,174,174,10,1,leek,images/br_leek.png,images/cb_leek.png,0,,,,,,,,,,,,,,,,,,,,,,
,,,,,00068,2023-10-18_09h09.56.962,vbt_B2_day3,2022.2.4,Win32,60.05645307,,,,,,down,0,0.5736,,-0.142592607,-0.237963005,1,0,0,0,175,175,86,1,woning,images/br_woning.png,images/cb_woning.png,0,,,,,,,,,,,,,,,,,,,,,,
,,,,,00068,2023-10-18_09h09.56.962,vbt_B2_day3,2022.2.4,Win32,60.05645307,,,,,,down,0,1.9323,,-0.142592607,-0.237963005,1,0,0,0,176,176,128,1,prikken,images/br_prikken.png,images/cb_prikken.png,0,,,,,,,,,,,,,,,,,,,,,,
,,,,,00068,2023-10-18_09h09.56.962,vbt_B2_day3,2022.2.4,Win32,60.05645307,,,,,,down,0,2.0903,,-0.142592607,-0.237963005,1,0,0,0,177,177,153,1,vervoer,images/br_vervoer.png,images/cb_vervoer.png,0,,,,,,,,,,,,,,,,,,,,,,
,,,,,00068,2023-10-18_09h09.56.962,vbt_B2_day3,2022.2.4,Win32,60.05645307,,,,,,down,0,0.722,,-0.142592607,-0.237963005,1,0,0,0,178,178,70,1,ijdel,images/br_ijdel.png,images/cb_ijdel.png,0,,,,,,,,,,,,,,,,,,,,,,
,,,,,00068,2023-10-18_09h09.56.962,vbt_B2_day3,2022.2.4,Win32,60.05645307,,,,,,down,0,16.9727,,-0.143518519,-0.238888917,1,0,0,0,179,179,154,1,aflopen,images/br_aflopen.png,images/cb_aflopen.png,0,,,,,,,,,,,,,,,,,,,,,,
,,,,,00068,2023-10-18_09h09.56.962,vbt_B2_day3,2022.2.4,Win32,60.05645307,,,,,,down,0,0.3279,,-0.143518519,-0.238888917,1,0,0,0,180,180,151,1,aanzoek,images/br_aanzoek.png,images/cb_aanzoek.png,0,,,,,,,,,,,,,,,,,,,,,,
,,,,,00068,2023-10-18_09h09.56.962,vbt_B2_day3,2022.2.4,Win32,60.05645307,,,,,,down,0,0.472,,-0.143518519,-0.238888917,1,0,0,0,181,181,124,1,bloeien,images/br_bloeien.png,images/cb_bloeien.png,0,,,,,,,,,,,,,,,,,,,,,,
,,,,,00068,2023-10-18_09h09.56.962,vbt_B2_day3,2022.2.4,Win32,60.05645307,,,,,,down,0,0.2981,,-0.143518519,-0.238888917,1,0,0,0,182,182,115,1,kleren,images/br_kleren.png,images/cb_kleren.png,0,,,,,,,,,,,,,,,,,,,,,,
,,,,,00068,2023-10-18_09h09.56.962,vbt_B2_day3,2022.2.4,Win32,60.05645307,,,,,,down,0,0.1867,,-0.143518519,-0.238888917,1,0,0,0,183,183,94,1,oceaan,images/br_oceaan.png,images/cb_oceaan.png,0,,,,,,,,,,,,,,,,,,,,,,
,,,,,00068,2023-10-18_09h09.56.962,vbt_B2_day3,2022.2.4,Win32,60.05645307,,,,,,down,0,0.2675,,-0.143518519,-0.238888917,1,0,0,0,184,184,51,1,samen,images/br_samen.png,images/cb_samen.png,0,,,,,,,,,,,,,,,,,,,,,,
,,,,,00068,2023-10-18_09h09.56.962,vbt_B2_day3,2022.2.4,Win32,60.05645307,,,,,,down,0,0.8699,,-0.143518519,-0.238888917,1,0,0,0,185,185,43,1,klauw,images/br_klauw.png,images/cb_klauw.png,0,,,,,,,,,,,,,,,,,,,,,,
,,,,,00068,2023-10-18_09h09.56.962,vbt_B2_day3,2022.2.4,Win32,60.05645307,,,,,,down,0,0.482,,-0.143518519,-0.238888917,1,0,0,0,186,186,104,1,zweven,images/br_zweven.png,images/cb_zweven.png,0,,,,,,,,,,,,,,,,,,,,,,
,,,,,00068,2023-10-18_09h09.56.962,vbt_B2_day3,2022.2.4,Win32,60.05645307,,,,,,down,0,25.406,,-0.143518519,-0.188888903,1,0,0,0,187,187,63,1,flirt,images/br_flirt.png,images/cb_flirt.png,1,flirt,,,,,,,,,,,,,,,,,,,,,
,,,,,00068,2023-10-18_09h09.56.962,vbt_B2_day3,2022.2.4,Win32,60.05645307,,,,,,down,0,9.5816,,-0.143518519,-0.188888903,1,0,0,0,188,188,103,1,joggen,images/br_joggen.png,images/cb_joggen.png,1,joggen,,,,,,,,,,,,,,,,,,,,,
,,,,,00068,2023-10-18_09h09.56.962,vbt_B2_day3,2022.2.4,Win32,60.05645307,,,,,,down,0,5.1399,,-0.143518519,-0.188888903,1,0,0,0,189,189,9,1,hier,images/br_hier.png,images/cb_hier.png,0,,,,,,,,,,,,,,,,,,,,,,
,,,,,00068,2023-10-18_09h09.56.962,vbt_B2_day3,2022.2.4,Win32,60.05645307,,,,,,down,0,0.7345,,-0.143518519,-0.188888903,1,0,0,0,190,190,16,1,ziek,images/br_ziek.png,images/cb_ziek.png,0,,,,,,,,,,,,,,,,,,,,,,
,,,,,00068,2023-10-18_09h09.56.962,vbt_B2_day3,2022.2.4,Win32,60.05645307,,,,,,down,0,0.5677,,-0.143518519,-0.188888903,1,0,0,0,191,191,65,1,parel,images/br_parel.png,images/cb_parel.png,0,,,,,,,,,,,,,,,,,,,,,,
,,,,,00068,2023-10-18_09h09.56.962,vbt_B2_day3,2022.2.4,Win32,60.05645307,,,,,,down,0,0.5512,,-0.143518519,-0.188888903,1,0,0,0,192,192,125,1,aanzien,images/br_aanzien.png,images/cb_aanzien.png,0,,,,,,,,,,,,,,,,,,,,,,
,,,,,00068,2023-10-18_09h09.56.962,vbt_B2_day3,2022.2.4,Win32,60.05645307,,,,,,down,0,8.013,,-0.143518519,-0.188888903,1,0,0,0,193,193,95,1,vreten,images/br_vreten.png,images/cb_vreten.png,0,,,,,,,,,,,,,,,,,,,,,,
,,,,,00068,2023-10-18_09h09.56.962,vbt_B2_day3,2022.2.4,Win32,60.05645307,,,,,,down,0,1.3862,,-0.143518519,-0.188888903,1,0,0,0,194,194,15,1,soda,images/br_soda.png,images/cb_soda.png,0,,,,,,,,,,,,,,,,,,,,,,
,,,,,00068,2023-10-18_09h09.56.962,vbt_B2_day3,2022.2.4,Win32,60.05645307,,,,,,down,0,0.252,,-0.143518519,-0.188888903,1,0,0,0,195,195,50,1,stoom,images/br_stoom.png,images/cb_stoom.png,0,,,,,,,,,,,,,,,,,,,,,,
,,,,,00068,2023-10-18_09h09.56.962,vbt_B2_day3,2022.2.4,Win32,60.05645307,,,,,,down,0,1.0523,,-0.143518519,-0.188888903,0,1,0,0,196,196,165,1,feestdag,images/br_feestdag.png,images/cb_feestdag.png,0,,,,,,,,,,,,,,,,,,,,,,
,,,,,00068,2023-10-18_09h09.56.962,vbt_B2_day3,2022.2.4,Win32,60.05645307,,,,,,down,0,0.4525,,-0.143518519,-0.188888903,0,1,0,0,197,197,27,1,dans,images/br_dans.png,images/cb_dans.png,0,,,,,,,,,,,,,,,,,,,,,,
,,,,,00068,2023-10-18_09h09.56.962,vbt_B2_day3,2022.2.4,Win32,60.05645307,,,,,,down,0,0.2373,,-0.143518519,-0.188888903,1,0,0,0,198,198,147,1,komisch,images/br_komisch.png,images/cb_komisch.png,0,,,,,,,,,,,,,,,,,,,,,,
,,,,,00068,2023-10-18_09h09.56.962,vbt_B2_day3,2022.2.4,Win32,60.05645307,,,,,,down,0,13.04,,-0.143518519,-0.188888903,1,0,0,0,199,199,100,1,geduld,images/br_geduld.png,images/cb_geduld.png,1,geduld,,,,,,,,,,,,,,,,,,,,,
,,,,,00068,2023-10-18_09h09.56.962,vbt_B2_day3,2022.2.4,Win32,60.05645307,,,,,,,,,,,,,,,,,,,,,,,,,-0.143518519,-0.188888903,1,0,0,,,,,,,,,,,,,,,,
,,,,,00068,2023-10-18_09h09.56.962,vbt_B2_day3,2022.2.4,Win32,60.05645307,,,,,,,,,,,,,,,,,,,,,,,,,,,,,,-0.143518519,-0.188888903,1,0,0,,,,,,,,,,,
,,,,,00068,2023-10-18_09h09.56.962,vbt_B2_day3,2022.2.4,Win32,60.05645307,,,,,,,,,,,,,,,,,,,,kest,images/br_kest.png,images/cb_kest.png,,vlot,,,,,,,,,,,-0.143518519,-0.188888903,1,0,0,vlot,0,0,0,21,1
,,,,,00068,2023-10-18_09h09.56.962,vbt_B2_day3,2022.2.4,Win32,60.05645307,,,,,,,,,,,,,,,,,,,,verraden,images/br_verraden.png,images/cb_verraden.png,,/,,,,,,,,,,,-0.143518519,-0.188888903,1,0,0,/,0,1,1,58,1
,,,,,00068,2023-10-18_09h09.56.962,vbt_B2_day3,2022.2.4,Win32,60.05645307,,,,,,,,,,,,,,,,,,,,booien,images/br_booien.png,images/cb_booien.png,,booien,,,,,,,,,,,-0.143518519,-0.188888903,1,0,0,booien,0,2,2,31,1
,,,,,00068,2023-10-18_09h09.56.962,vbt_B2_day3,2022.2.4,Win32,60.05645307,,,,,,,,,,,,,,,,,,,,croo,images/br_croo.png,images/cb_croo.png,,choo,,,,,,,,,,,-0.143518519,-0.188888903,1,0,0,choo,0,3,3,22,1
,,,,,00068,2023-10-18_09h09.56.962,vbt_B2_day3,2022.2.4,Win32,60.05645307,,,,,,,,,,,,,,,,,,,,aarzelen,images/br_aarzelen.png,images/cb_aarzelen.png,,aarzelen,,,,,,,,,,,-0.143518519,-0.188888903,1,0,0,aarzelen,0,4,4,19,1
,,,,,00068,2023-10-18_09h09.56.962,vbt_B2_day3,2022.2.4,Win32,60.05645307,,,,,,,,,,,,,,,,,,,,uniek,images/br_uniek.png,images/cb_uniek.png,,vnoek,,,,,,,,,,,-0.143518519,-0.188888903,1,0,0,vnoek,0,5,5,46,1
,,,,,00068,2023-10-18_09h09.56.962,vbt_B2_day3,2022.2.4,Win32,60.05645307,,,,,,,,,,,,,,,,,,,,hint,images/br_hint.png,images/cb_hint.png,,hint,,,,,,,,,,,-0.143518519,-0.188888903,1,0,0,hint,0,6,6,43,1
,,,,,00068,2023-10-18_09h09.56.962,vbt_B2_day3,2022.2.4,Win32,60.05645307,,,,,,,,,,,,,,,,,,,,schatten,images/br_schatten.png,images/cb_schatten.png,,schattig,,,,,,,,,,,-0.151851866,-0.303703732,1,0,0,schattig,0,7,7,18,1
,,,,,00068,2023-10-18_09h09.56.962,vbt_B2_day3,2022.2.4,Win32,60.05645307,,,,,,,,,,,,,,,,,,,,twaaf,images/br_twaaf.png,images/cb_twaaf.png,,twaad,,,,,,,,,,,-0.151851866,-0.303703732,1,0,0,twaad,0,8,8,24,1
,,,,,00068,2023-10-18_09h09.56.962,vbt_B2_day3,2022.2.4,Win32,60.05645307,,,,,,,,,,,,,,,,,,,,knie,images/br_knie.png,images/cb_knie.png,,knie,,,,,,,,,,,-0.151851866,-0.303703732,1,0,0,knie,0,9,9,0,1
,,,,,00068,2023-10-18_09h09.56.962,vbt_B2_day3,2022.2.4,Win32,60.05645307,,,,,,,,,,,,,,,,,,,,verhaal,images/br_verhaal.png,images/cb_verhaal.png,,verd...,,,,,,,,,,,-0.151851866,-0.303703732,1,0,0,verd...,0,10,10,13,1
,,,,,00068,2023-10-18_09h09.56.962,vbt_B2_day3,2022.2.4,Win32,60.05645307,,,,,,,,,,,,,,,,,,,,dwang,images/br_dwang.png,images/cb_dwang.png,,dwang,,,,,,,,,,,-0.151851866,-0.303703732,1,0,0,dwang,0,11,11,47,1
,,,,,00068,2023-10-18_09h09.56.962,vbt_B2_day3,2022.2.4,Win32,60.05645307,,,,,,,,,,,,,,,,,,,,opzetten,images/br_opzetten.png,images/cb_opzetten.png,,opzetten,,,,,,,,,,,-0.151851866,-0.304629644,1,0,0,opzetten,0,12,12,56,1
,,,,,00068,2023-10-18_09h09.56.962,vbt_B2_day3,2022.2.4,Win32,60.05645307,,,,,,,,,,,,,,,,,,,,eens,images/br_eens.png,images/cb_eens.png,,eens,,,,,,,,,,,-0.151851866,-0.304629644,1,0,0,eens,0,13,13,40,1
,,,,,00068,2023-10-18_09h09.56.962,vbt_B2_day3,2022.2.4,Win32,60.05645307,,,,,,,,,,,,,,,,,,,,oprotten,images/br_oprotten.png,images/cb_oprotten.png,,oprotten,,,,,,,,,,,-0.151851866,-0.304629644,1,0,0,oprotten,0,14,14,17,1
,,,,,00068,2023-10-18_09h09.56.962,vbt_B2_day3,2022.2.4,Win32,60.05645307,,,,,,,,,,,,,,,,,,,,mode,images/br_mode.png,images/cb_mode.png,,mode,,,,,,,,,,,-0.151851866,-0.304629644,1,0,0,mode,0,15,15,3,1
,,,,,00068,2023-10-18_09h09.56.962,vbt_B2_day3,2022.2.4,Win32,60.05645307,,,,,,,,,,,,,,,,,,,,kwaas,images/br_kwaas.png,images/cb_kwaas.png,,kwaas,,,,,,,,,,,-0.151851866,-0.304629644,1,0,0,kwaas,0,16,16,26,1
,,,,,00068,2023-10-18_09h09.56.962,vbt_B2_day3,2022.2.4,Win32,60.05645307,,,,,,,,,,,,,,,,,,,,sluier,images/br_sluier.png,images/cb_sluier.png,,sluier,,,,,,,,,,,-0.151851866,-0.304629644,1,0,0,sluier,0,17,17,50,1
,,,,,00068,2023-10-18_09h09.56.962,vbt_B2_day3,2022.2.4,Win32,60.05645307,,,,,,,,,,,,,,,,,,,,opzicht,images/br_opzicht.png,images/cb_opzicht.png,,opw...,,,,,,,,,,,-0.151851866,-0.304629644,1,0,0,opw...,0,18,18,15,1
,,,,,00068,2023-10-18_09h09.56.962,vbt_B2_day3,2022.2.4,Win32,60.05645307,,,,,,,,,,,,,,,,,,,,kaas,images/br_kaas.png,images/cb_kaas.png,,kaas,,,,,,,,,,,-0.151851866,-0.304629644,1,0,0,kaas,0,19,19,42,1
,,,,,00068,2023-10-18_09h09.56.962,vbt_B2_day3,2022.2.4,Win32,60.05645307,,,,,,,,,,,,,,,,,,,,makieren,images/br_makieren.png,images/cb_makieren.png,,",",,,,,,,,,,,-0.151851866,-0.304629644,1,0,0,",",0,20,20,36,1
,,,,,00068,2023-10-18_09h09.56.962,vbt_B2_day3,2022.2.4,Win32,60.05645307,,,,,,,,,,,,,,,,,,,,hust,images/br_hust.png,images/cb_hust.png,,c,,,,,,,,,,,-0.151851866,-0.304629644,1,0,0,c,0,21,21,23,1
,,,,,00068,2023-10-18_09h09.56.962,vbt_B2_day3,2022.2.4,Win32,60.05645307,,,,,,,,,,,,,,,,,,,,stikken,images/br_stikken.png,images/cb_stikken.png,,stikken,,,,,,,,,,,-0.151851866,-0.304629644,1,0,0,stikken,0,22,22,54,1
,,,,,00068,2023-10-18_09h09.56.962,vbt_B2_day3,2022.2.4,Win32,60.05645307,,,,,,,,,,,,,,,,,,,,begrip,images/br_begrip.png,images/cb_begrip.png,,begrip,,,,,,,,,,,-0.151851866,-0.304629644,1,0,0,begrip,0,23,23,48,1
,,,,,00068,2023-10-18_09h09.56.962,vbt_B2_day3,2022.2.4,Win32,60.05645307,,,,,,,,,,,,,,,,,,,,vlager,images/br_vlager.png,images/cb_vlager.png,,vlager,,,,,,,,,,,-0.151851866,-0.304629644,1,0,0,vlager,0,24,24,28,1
,,,,,00068,2023-10-18_09h09.56.962,vbt_B2_day3,2022.2.4,Win32,60.05645307,,,,,,,,,,,,,,,,,,,,schodel,images/br_schodel.png,images/cb_schodel.png,,schat...,,,,,,,,,,,-0.15370369,-0.304629644,1,0,0,schat...,0,25,25,33,1
,,,,,00068,2023-10-18_09h09.56.962,vbt_B2_day3,2022.2.4,Win32,60.05645307,,,,,,,,,,,,,,,,,,,,stallen,images/br_stallen.png,images/cb_stallen.png,,stallen,,,,,,,,,,,-0.15370369,-0.304629644,1,0,0,stallen,0,26,26,52,1
,,,,,00068,2023-10-18_09h09.56.962,vbt_B2_day3,2022.2.4,Win32,60.05645307,,,,,,,,,,,,,,,,,,,,onrecht,images/br_onrecht.png,images/cb_onrecht.png,,onrecht,,,,,,,,,,,-0.15370369,-0.304629644,1,0,0,onrecht,0,27,27,55,1
,,,,,00068,2023-10-18_09h09.56.962,vbt_B2_day3,2022.2.4,Win32,60.05645307,,,,,,,,,,,,,,,,,,,,alsof,images/br_alsof.png,images/cb_alsof.png,,alsof,,,,,,,,,,,-0.15370369,-0.304629644,1,0,0,alsof,0,28,28,44,1
,,,,,00068,2023-10-18_09h09.56.962,vbt_B2_day3,2022.2.4,Win32,60.05645307,,,,,,,,,,,,,,,,,,,,bisschop,images/br_bisschop.png,images/cb_bisschop.png,,bisschop,,,,,,,,,,,-0.15370369,-0.304629644,1,0,0,bisschop,0,29,29,16,1
,,,,,00068,2023-10-18_09h09.56.962,vbt_B2_day3,2022.2.4,Win32,60.05645307,,,,,,,,,,,,,,,,,,,,verwoor,images/br_verwoor.png,images/cb_verwoor.png,,uirwoor,,,,,,,,,,,-0.15370369,-0.304629644,1,0,0,uirwoor,0,30,30,32,1
,,,,,00068,2023-10-18_09h09.56.962,vbt_B2_day3,2022.2.4,Win32,60.05645307,,,,,,,,,,,,,,,,,,,,gebod,images/br_gebod.png,images/cb_gebod.png,,gebod,,,,,,,,,,,-0.136111083,-0.304629644,1,0,0,gebod,0,31,31,45,1
,,,,,00068,2023-10-18_09h09.56.962,vbt_B2_day3,2022.2.4,Win32,60.05645307,,,,,,,,,,,,,,,,,,,,leugeren,images/br_leugeren.png,images/cb_leugeren.png,,lovg,,,,,,,,,,,-0.136111083,-0.304629644,1,0,0,lovg,0,32,32,37,1
,,,,,00068,2023-10-18_09h09.56.962,vbt_B2_day3,2022.2.4,Win32,60.05645307,,,,,,,,,,,,,,,,,,,,hier,images/br_hier.png,images/cb_hier.png,,duir,,,,,,,,,,,-0.136111083,-0.304629644,1,0,0,duir,0,33,33,1,1
,,,,,00068,2023-10-18_09h09.56.962,vbt_B2_day3,2022.2.4,Win32,60.05645307,,,,,,,,,,,,,,,,,,,,steel,images/br_steel.png,images/cb_steel.png,,steel,,,,,,,,,,,-0.136111083,-0.304629644,1,0,0,steel,0,34,34,4,1
,,,,,00068,2023-10-18_09h09.56.962,vbt_B2_day3,2022.2.4,Win32,60.05645307,,,,,,,,,,,,,,,,,,,,samen,images/br_samen.png,images/cb_samen.png,,srmin,,,,,,,,,,,-0.136111083,-0.304629644,1,0,0,srmin,0,35,35,7,1
,,,,,00068,2023-10-18_09h09.56.962,vbt_B2_day3,2022.2.4,Win32,60.05645307,,,,,,,,,,,,,,,,,,,,paken,images/br_paken.png,images/cb_paken.png,,park,,,,,,,,,,,-0.12962963,-0.304629644,1,0,0,park,0,36,36,27,1
,,,,,00068,2023-10-18_09h09.56.962,vbt_B2_day3,2022.2.4,Win32,60.05645307,,,,,,,,,,,,,,,,,,,,prikken,images/br_prikken.png,images/cb_prikken.png,,prikken,,,,,,,,,,,-0.124074088,-0.330555598,1,0,0,prikken,0,37,37,12,1
,,,,,00068,2023-10-18_09h09.56.962,vbt_B2_day3,2022.2.4,Win32,60.05645307,,,,,,,,,,,,,,,,,,,,gout,images/br_gout.png,images/cb_gout.png,,govt,,,,,,,,,,,-0.124074088,-0.330555598,1,0,0,govt,0,38,38,20,1
,,,,,00068,2023-10-18_09h09.56.962,vbt_B2_day3,2022.2.4,Win32,60.05645307,,,,,,,,,,,,,,,,,,,,stoom,images/br_stoom.png,images/cb_stoom.png,,otaam,,,,,,,,,,,-0.125,-0.330555598,1,0,0,otaam,0,39,39,6,1
,,,,,00068,2023-10-18_09h09.56.962,vbt_B2_day3,2022.2.4,Win32,60.05645307,,,,,,,,,,,,,,,,,,,,jongelui,images/br_jongelui.png,images/cb_jongelui.png,,donker,,,,,,,,,,,-0.125,-0.330555598,1,0,0,donker,0,40,40,59,1
,,,,,00068,2023-10-18_09h09.56.962,vbt_B2_day3,2022.2.4,Win32,60.05645307,,,,,,,,,,,,,,,,,,,,gezond,images/br_gezond.png,images/cb_gezond.png,,gemorst,,,,,,,,,,,-0.12037037,-0.330555598,1,0,0,gemorst,0,41,41,11,1
,,,,,00068,2023-10-18_09h09.56.962,vbt_B2_day3,2022.2.4,Win32,60.05645307,,,,,,,,,,,,,,,,,,,,uviek,images/br_uviek.png,images/cb_uviek.png,,vloek,,,,,,,,,,,-0.114814829,-0.335185228,1,0,0,vloek,0,42,42,25,1
,,,,,00068,2023-10-18_09h09.56.962,vbt_B2_day3,2022.2.4,Win32,60.05645307,,,,,,,,,,,,,,,,,,,,glijden,images/br_glijden.png,images/cb_glijden.png,,glijden,,,,,,,,,,,-0.114814829,-0.335185228,1,0,0,glijden,0,43,43,53,1
,,,,,00068,2023-10-18_09h09.56.962,vbt_B2_day3,2022.2.4,Win32,60.05645307,,,,,,,,,,,,,,,,,,,,mugeek,images/br_mugeek.png,images/cb_mugeek.png,,m.gaak,,,,,,,,,,,-0.114814829,-0.335185228,1,0,0,m.gaak,0,44,44,29,1
,,,,,00068,2023-10-18_09h09.56.962,vbt_B2_day3,2022.2.4,Win32,60.05645307,,,,,,,,,,,,,,,,,,,,sultan,images/br_sultan.png,images/cb_sultan.png,,svlarm,,,,,,,,,,,-0.114814829,-0.335185228,1,0,0,svlarm,0,45,45,49,1
,,,,,00068,2023-10-18_09h09.56.962,vbt_B2_day3,2022.2.4,Win32,60.05645307,,,,,,,,,,,,,,,,,,,,afbopen,images/br_afbopen.png,images/cb_afbopen.png,,afbopim,,,,,,,,,,,-0.114814829,-0.335185228,1,0,0,afbopim,0,46,46,34,1
,,,,,00068,2023-10-18_09h09.56.962,vbt_B2_day3,2022.2.4,Win32,60.05645307,,,,,,,,,,,,,,,,,,,,geluid,images/br_geluid.png,images/cb_geluid.png,,gelvid,,,,,,,,,,,-0.114814829,-0.335185228,1,0,0,gelvid,0,47,47,10,1
,,,,,00068,2023-10-18_09h09.56.962,vbt_B2_day3,2022.2.4,Win32,60.05645307,,,,,,,,,,,,,,,,,,,,boeien,images/br_boeien.png,images/cb_boeien.png,,boeien,,,,,,,,,,,-0.102777764,-0.369444459,1,0,0,boeien,0,48,48,8,1
,,,,,00068,2023-10-18_09h09.56.962,vbt_B2_day3,2022.2.4,Win32,60.05645307,,,,,,,,,,,,,,,,,,,,leek,images/br_leek.png,images/cb_leek.png,,leek,,,,,,,,,,,-0.102777764,-0.369444459,1,0,0,leek,0,49,49,2,1
,,,,,00068,2023-10-18_09h09.56.962,vbt_B2_day3,2022.2.4,Win32,60.05645307,,,,,,,,,,,,,,,,,,,,beslag,images/br_beslag.png,images/cb_beslag.png,,beslag,,,,,,,,,,,-0.102777764,-0.369444459,1,0,0,beslag,0,50,50,51,1
,,,,,00068,2023-10-18_09h09.56.962,vbt_B2_day3,2022.2.4,Win32,60.05645307,,,,,,,,,,,,,,,,,,,,theeting,images/br_theeting.png,images/cb_theeting.png,,scheeltim,,,,,,,,,,,-0.102777764,-0.369444459,1,0,0,scheeltim,0,51,51,38,1
,,,,,00068,2023-10-18_09h09.56.962,vbt_B2_day3,2022.2.4,Win32,60.05645307,,,,,,,,,,,,,,,,,,,,invallen,images/br_invallen.png,images/cb_invallen.png,,in....,,,,,,,,,,,-0.102777764,-0.369444459,1,0,0,in....,0,52,52,57,1
,,,,,00068,2023-10-18_09h09.56.962,vbt_B2_day3,2022.2.4,Win32,60.05645307,,,,,,,,,,,,,,,,,,,,slapen,images/br_slapen.png,images/cb_slapen.png,,slapen,,,,,,,,,,,-0.102777764,-0.369444459,1,0,0,slapen,0,53,53,9,1
,,,,,00068,2023-10-18_09h09.56.962,vbt_B2_day3,2022.2.4,Win32,60.05645307,,,,,,,,,,,,,,,,,,,,keihard,images/br_keihard.png,images/cb_keihard.png,,kei..heid,,,,,,,,,,,-0.110185199,-0.390740783,1,0,0,kei..heid,0,54,54,14,1
,,,,,00068,2023-10-18_09h09.56.962,vbt_B2_day3,2022.2.4,Win32,60.05645307,,,,,,,,,,,,,,,,,,,,bevret,images/br_bevret.png,images/cb_bevret.png,,bevrit,,,,,,,,,,,-0.110185199,-0.390740783,1,0,0,bevrit,0,55,55,30,1
,,,,,00068,2023-10-18_09h09.56.962,vbt_B2_day3,2022.2.4,Win32,60.05645307,,,,,,,,,,,,,,,,,,,,leemaken,images/br_leemaken.png,images/cb_leemaken.png,,leem..,,,,,,,,,,,-0.110185199,-0.390740783,1,0,0,leem..,0,56,56,39,1
,,,,,00068,2023-10-18_09h09.56.962,vbt_B2_day3,2022.2.4,Win32,60.05645307,,,,,,,,,,,,,,,,,,,,laken,images/br_laken.png,images/cb_laken.png,,laken,,,,,,,,,,,-0.10092594,-0.390740783,1,0,0,laken,0,57,57,5,1
,,,,,00068,2023-10-18_09h09.56.962,vbt_B2_day3,2022.2.4,Win32,60.05645307,,,,,,,,,,,,,,,,,,,,brappen,images/br_brappen.png,images/cb_brappen.png,,brappen,,,,,,,,,,,-0.10092594,-0.390740783,1,0,0,brappen,0,58,58,35,1
,,,,,00068,2023-10-18_09h09.56.962,vbt_B2_day3,2022.2.4,Win32,60.05645307,,,,,,,,,,,,,,,,,,,,zone,images/br_zone.png,images/cb_zone.png,,.ome,,,,,,,,,,,-0.10092594,-0.390740783,1,0,0,.ome,0,59,59,41,1
,,,,,00068,2023-10-18_09h09.56.962,vbt_B2_day3,2022.2.4,Win32,60.05645307,,,,,,,,,,,,,,,,,,,,,,,,,,,,,,,,,,,,,,,,,,,,,
