welcome_mouse.x,welcome_mouse.y,welcome_mouse.leftButton,welcome_mouse.midButton,welcome_mouse.rightButton,"ID",date,expName,psychopyVersion,OS,frameRate,trainInstr_mouse.x,trainInstr_mouse.y,trainInstr_mouse.leftButton,trainInstr_mouse.midButton,trainInstr_mouse.rightButton,translation_key.keys,translation_key.corr,translation_key.rt,word_rsp.text,trWrd_mouse.x,trWrd_mouse.y,trWrd_mouse.leftButton,trWrd_mouse.midButton,trWrd_mouse.rightButton,train_loop.thisRepN,train_loop.thisTrialN,train_loop.thisN,train_loop.thisIndex,train_loop.ran,nlWrd,brWrd,cbWrd,test,testResp,mouse.x,mouse.y,mouse.leftButton,mouse.midButton,mouse.rightButton,testInstr_mouse.x,testInstr_mouse.y,testInstr_mouse.leftButton,testInstr_mouse.midButton,testInstr_mouse.rightButton,test_mouse.x,test_mouse.y,test_mouse.leftButton,test_mouse.midButton,test_mouse.rightButton,test_response.text,test_loop.thisRepN,test_loop.thisTrialN,test_loop.thisN,test_loop.thisIndex,test_loop.ran
-0.173623047,-0.275253906,1,0,0,00035,2023-09-27_11h11.00.840,vbt_B2_day3,2022.2.4,MacIntel,59.87665409,,,,,,,,,,,,,,,,,,,,,,,,,,,,,,,,,,,,,,,,,,,,,
,,,,,00035,2023-09-27_11h11.00.840,vbt_B2_day3,2022.2.4,MacIntel,59.87665409,-0.173623047,-0.275253906,1,0,0,,,,,,,,,,,,,,,,,,,,,,,,,,,,,,,,,,,,,,,,
,,,,,00035,2023-09-27_11h11.00.840,vbt_B2_day3,2022.2.4,MacIntel,59.87665409,,,,,,down,0,7.7896,,-0.173623047,-0.275253906,1,0,0,0,0,0,186,1,voorraad,images/br_voorraad.png,images/cb_voorraad.png,0,,,,,,,,,,,,,,,,,,,,,,
,,,,,00035,2023-09-27_11h11.00.840,vbt_B2_day3,2022.2.4,MacIntel,59.87665409,,,,,,down,0,7.3081,,0.211855469,-0.112402344,1,0,0,0,1,1,43,1,klauw,images/br_klauw.png,images/cb_klauw.png,0,,,,,,,,,,,,,,,,,,,,,,
,,,,,00035,2023-09-27_11h11.00.840,vbt_B2_day3,2022.2.4,MacIntel,59.87665409,,,,,,down,0,7.7844,,0.381308594,-0.10784668,1,0,0,0,2,2,181,1,toegeven,images/br_toegeven.png,images/cb_toegeven.png,1,toegeven,,,,,,,,,,,,,,,,,,,,,
,,,,,00035,2023-09-27_11h11.00.840,vbt_B2_day3,2022.2.4,MacIntel,59.87665409,,,,,,down,0,3.3167,,0.339492187,-0.179482422,1,0,0,0,3,3,136,1,waarbij,images/br_waarbij.png,images/cb_waarbij.png,0,,,,,,,,,,,,,,,,,,,,,,
,,,,,00035,2023-09-27_11h11.00.840,vbt_B2_day3,2022.2.4,MacIntel,59.87665409,,,,,,down,0,1.797,,0.339492187,-0.179482422,1,0,0,0,4,4,28,1,stal,images/br_stal.png,images/cb_stal.png,0,,,,,,,,,,,,,,,,,,,,,,
,,,,,00035,2023-09-27_11h11.00.840,vbt_B2_day3,2022.2.4,MacIntel,59.87665409,,,,,,down,0,3.8516,,0.339492187,-0.179482422,1,0,0,0,5,5,133,1,seizoen,images/br_seizoen.png,images/cb_seizoen.png,0,,,,,,,,,,,,,,,,,,,,,,
,,,,,00035,2023-09-27_11h11.00.840,vbt_B2_day3,2022.2.4,MacIntel,59.87665409,,,,,,down,0,0.5687,,0.371079102,-0.044370117,1,0,0,0,6,6,71,1,bever,images/br_bever.png,images/cb_bever.png,0,,,,,,,,,,,,,,,,,,,,,,
,,,,,00035,2023-09-27_11h11.00.840,vbt_B2_day3,2022.2.4,MacIntel,59.87665409,,,,,,down,0,37.1139,,0.376303711,-0.044370117,1,0,0,0,7,7,37,1,mijn,images/br_mijn.png,images/cb_mijn.png,0,,,,,,,,,,,,,,,,,,,,,,
,,,,,00035,2023-09-27_11h11.00.840,vbt_B2_day3,2022.2.4,MacIntel,59.87665409,,,,,,down,0,2.4785,,0.376635742,-0.044370117,1,0,0,0,8,8,6,1,diep,images/br_diep.png,images/cb_diep.png,0,,,,,,,,,,,,,,,,,,,,,,
,,,,,00035,2023-09-27_11h11.00.840,vbt_B2_day3,2022.2.4,MacIntel,59.87665409,,,,,,down,0,4.2764,,0.376635742,-0.044370117,1,0,0,0,9,9,117,1,kennis,images/br_kennis.png,images/cb_kennis.png,0,,,,,,,,,,,,,,,,,,,,,,
,,,,,00035,2023-09-27_11h11.00.840,vbt_B2_day3,2022.2.4,MacIntel,59.87665409,,,,,,down,0,7.3665,,0.376635742,-0.044370117,0,0,1,0,10,10,173,1,apparaat,images/br_apparaat.png,images/cb_apparaat.png,0,,,,,,,,,,,,,,,,,,,,,,
,,,,,00035,2023-09-27_11h11.00.840,vbt_B2_day3,2022.2.4,MacIntel,59.87665409,,,,,,down,0,2.8233,,0.267304688,0.013461914,1,0,1,0,11,11,38,1,baai,images/br_baai.png,images/cb_baai.png,0,,,,,,,,,,,,,,,,,,,,,,
,,,,,00035,2023-09-27_11h11.00.840,vbt_B2_day3,2022.2.4,MacIntel,59.87665409,,,,,,down,0,0.3849,,0.365112305,-0.014858398,1,0,1,0,12,12,130,1,keihard,images/br_keihard.png,images/cb_keihard.png,0,,,,,,,,,,,,,,,,,,,,,,
,,,,,00035,2023-09-27_11h11.00.840,vbt_B2_day3,2022.2.4,MacIntel,59.87665409,,,,,,down,0,0.4184,,0.365112305,-0.014858398,1,0,1,0,13,13,56,1,traag,images/br_traag.png,images/cb_traag.png,0,,,,,,,,,,,,,,,,,,,,,,
,,,,,00035,2023-09-27_11h11.00.840,vbt_B2_day3,2022.2.4,MacIntel,59.87665409,,,,,,down,0,7.6835,,0.362651367,-0.018911133,1,0,1,0,14,14,192,1,schaamte,images/br_schaamte.png,images/cb_schaamte.png,0,,,,,,,,,,,,,,,,,,,,,,
,,,,,00035,2023-09-27_11h11.00.840,vbt_B2_day3,2022.2.4,MacIntel,59.87665409,,,,,,down,0,2.0531,,0.362651367,-0.018911133,1,0,1,0,15,15,67,1,zwart,images/br_zwart.png,images/cb_zwart.png,0,,,,,,,,,,,,,,,,,,,,,,
,,,,,00035,2023-09-27_11h11.00.840,vbt_B2_day3,2022.2.4,MacIntel,59.87665409,,,,,,down,0,1.0029,,0.270761719,0.084501953,1,0,1,0,16,16,70,1,ijdel,images/br_ijdel.png,images/cb_ijdel.png,0,,,,,,,,,,,,,,,,,,,,,,
,,,,,00035,2023-09-27_11h11.00.840,vbt_B2_day3,2022.2.4,MacIntel,59.87665409,,,,,,down,0,105.5781,,0.336933594,-0.022636719,1,0,1,0,17,17,110,1,zuster,images/br_zuster.png,images/cb_zuster.png,0,,,,,,,,,,,,,,,,,,,,,,
,,,,,00035,2023-09-27_11h11.00.840,vbt_B2_day3,2022.2.4,MacIntel,59.87665409,,,,,,down,0,9.6884,,0.336933594,-0.022636719,1,0,1,0,18,18,198,1,bedoelen,images/br_bedoelen.png,images/cb_bedoelen.png,0,,,,,,,,,,,,,,,,,,,,,,
,,,,,00035,2023-09-27_11h11.00.840,vbt_B2_day3,2022.2.4,MacIntel,59.87665409,,,,,,down,0,0.2761,,0.338530273,-0.038198242,1,0,1,0,19,19,36,1,vuur,images/br_vuur.png,images/cb_vuur.png,0,,,,,,,,,,,,,,,,,,,,,,
,,,,,00035,2023-09-27_11h11.00.840,vbt_B2_day3,2022.2.4,MacIntel,59.87665409,,,,,,down,0,2.3814,,0.338530273,-0.038198242,1,0,1,0,20,20,176,1,techniek,images/br_techniek.png,images/cb_techniek.png,0,,,,,,,,,,,,,,,,,,,,,,
,,,,,00035,2023-09-27_11h11.00.840,vbt_B2_day3,2022.2.4,MacIntel,59.87665409,,,,,,down,0,5.6146,,0.338530273,-0.038198242,1,0,1,0,21,21,172,1,weigeren,images/br_weigeren.png,images/cb_weigeren.png,0,,,,,,,,,,,,,,,,,,,,,,
,,,,,00035,2023-09-27_11h11.00.840,vbt_B2_day3,2022.2.4,MacIntel,59.87665409,,,,,,down,0,8.5187,,0.147773437,-0.136669922,1,0,1,0,22,22,106,1,zingen,images/br_zingen.png,images/cb_zingen.png,0,,,,,,,,,,,,,,,,,,,,,,
,,,,,00035,2023-09-27_11h11.00.840,vbt_B2_day3,2022.2.4,MacIntel,59.87665409,,,,,,down,0,2.2974,,0.260986328,-0.068232422,1,0,1,0,23,23,9,1,hier,images/br_hier.png,images/cb_hier.png,0,,,,,,,,,,,,,,,,,,,,,,
,,,,,00035,2023-09-27_11h11.00.840,vbt_B2_day3,2022.2.4,MacIntel,59.87665409,,,,,,down,0,12.2772,,0.36684082,-0.166342773,1,0,1,0,24,24,199,1,beseffen,images/br_beseffen.png,images/cb_beseffen.png,0,,,,,,,,,,,,,,,,,,,,,,
,,,,,00035,2023-09-27_11h11.00.840,vbt_B2_day3,2022.2.4,MacIntel,59.87665409,,,,,,down,0,0.8452,,0.36684082,-0.166342773,1,0,1,0,25,25,35,1,lust,images/br_lust.png,images/cb_lust.png,0,,,,,,,,,,,,,,,,,,,,,,
,,,,,00035,2023-09-27_11h11.00.840,vbt_B2_day3,2022.2.4,MacIntel,59.87665409,,,,,,down,0,1.4631,,0.216958008,-0.076875,1,0,1,0,26,26,111,1,ticket,images/br_ticket.png,images/cb_ticket.png,0,,,,,,,,,,,,,,,,,,,,,,
,,,,,00035,2023-09-27_11h11.00.840,vbt_B2_day3,2022.2.4,MacIntel,59.87665409,,,,,,down,0,3.9985,,0.170585938,-0.116254883,1,0,1,0,27,27,21,1,mist,images/br_mist.png,images/cb_mist.png,1,mest,,,,,,,,,,,,,,,,,,,,,
,,,,,00035,2023-09-27_11h11.00.840,vbt_B2_day3,2022.2.4,MacIntel,59.87665409,,,,,,down,0,2.5147,,0.170585938,-0.116254883,1,0,1,0,28,28,48,1,steel,images/br_steel.png,images/cb_steel.png,0,,,,,,,,,,,,,,,,,,,,,,
,,,,,00035,2023-09-27_11h11.00.840,vbt_B2_day3,2022.2.4,MacIntel,59.87665409,,,,,,down,0,0.6777,,0.170585938,-0.116254883,1,0,1,0,29,29,167,1,eenhoorn,images/br_eenhoorn.png,images/cb_eenhoorn.png,0,,,,,,,,,,,,,,,,,,,,,,
,,,,,00035,2023-09-27_11h11.00.840,vbt_B2_day3,2022.2.4,MacIntel,59.87665409,,,,,,down,0,0.6785,,0.170585938,-0.116254883,1,0,1,0,30,30,84,1,lokken,images/br_lokken.png,images/cb_lokken.png,0,,,,,,,,,,,,,,,,,,,,,,
,,,,,00035,2023-09-27_11h11.00.840,vbt_B2_day3,2022.2.4,MacIntel,59.87665409,,,,,,down,0,0.1673,,0.170585938,-0.116254883,1,0,1,0,31,31,58,1,tekst,images/br_tekst.png,images/cb_tekst.png,0,,,,,,,,,,,,,,,,,,,,,,
,,,,,00035,2023-09-27_11h11.00.840,vbt_B2_day3,2022.2.4,MacIntel,59.87665409,,,,,,down,0,15.2334,,0.27449707,-0.056210938,1,0,1,0,32,32,114,1,vullen,images/br_vullen.png,images/cb_vullen.png,0,,,,,,,,,,,,,,,,,,,,,,
,,,,,00035,2023-09-27_11h11.00.840,vbt_B2_day3,2022.2.4,MacIntel,59.87665409,,,,,,down,0,3.8518,,0.323520508,-0.176455078,1,0,1,0,33,33,116,1,besmet,images/br_besmet.png,images/cb_besmet.png,0,,,,,,,,,,,,,,,,,,,,,,
,,,,,00035,2023-09-27_11h11.00.840,vbt_B2_day3,2022.2.4,MacIntel,59.87665409,,,,,,down,0,0.8691,,0.323520508,-0.162963867,1,0,1,0,34,34,122,1,waarvan,images/br_waarvan.png,images/cb_waarvan.png,0,,,,,,,,,,,,,,,,,,,,,,
,,,,,00035,2023-09-27_11h11.00.840,vbt_B2_day3,2022.2.4,MacIntel,59.87665409,,,,,,down,0,19.6182,,0.323520508,-0.162963867,1,0,1,0,35,35,182,1,bijkomen,images/br_bijkomen.png,images/cb_bijkomen.png,1,bijkomen,,,,,,,,,,,,,,,,,,,,,
,,,,,00035,2023-09-27_11h11.00.840,vbt_B2_day3,2022.2.4,MacIntel,59.87665409,,,,,,down,0,0.3923,,0.323520508,-0.162963867,1,0,1,0,36,36,31,1,poes,images/br_poes.png,images/cb_poes.png,0,,,,,,,,,,,,,,,,,,,,,,
,,,,,00035,2023-09-27_11h11.00.840,vbt_B2_day3,2022.2.4,MacIntel,59.87665409,,,,,,down,0,7.4498,,0.337280273,-0.129819336,1,0,1,0,37,37,169,1,oprotten,images/br_oprotten.png,images/cb_oprotten.png,0,,,,,,,,,,,,,,,,,,,,,,
,,,,,00035,2023-09-27_11h11.00.840,vbt_B2_day3,2022.2.4,MacIntel,59.87665409,,,,,,down,0,0.4183,,0.337280273,-0.129819336,1,0,1,0,38,38,105,1,wijlen,images/br_wijlen.png,images/cb_wijlen.png,0,,,,,,,,,,,,,,,,,,,,,,
,,,,,00035,2023-09-27_11h11.00.840,vbt_B2_day3,2022.2.4,MacIntel,59.87665409,,,,,,down,0,7.116,,0.338496094,-0.128588867,1,0,1,0,39,39,126,1,kasteel,images/br_kasteel.png,images/cb_kasteel.png,0,,,,,,,,,,,,,,,,,,,,,,
,,,,,00035,2023-09-27_11h11.00.840,vbt_B2_day3,2022.2.4,MacIntel,59.87665409,,,,,,down,0,6.8148,,0.338496094,-0.128588867,1,0,1,0,40,40,88,1,boeien,images/br_boeien.png,images/cb_boeien.png,0,,,,,,,,,,,,,,,,,,,,,,
,,,,,00035,2023-09-27_11h11.00.840,vbt_B2_day3,2022.2.4,MacIntel,59.87665409,,,,,,down,0,1.3538,,0.328378906,-0.141000977,1,0,1,0,41,41,41,1,maken,images/br_maken.png,images/cb_maken.png,0,,,,,,,,,,,,,,,,,,,,,,
,,,,,00035,2023-09-27_11h11.00.840,vbt_B2_day3,2022.2.4,MacIntel,59.87665409,,,,,,down,0,2.0051,,0.385380859,-0.069697266,1,0,1,0,42,42,32,1,palm,images/br_palm.png,images/cb_palm.png,0,,,,,,,,,,,,,,,,,,,,,,
,,,,,00035,2023-09-27_11h11.00.840,vbt_B2_day3,2022.2.4,MacIntel,59.87665409,,,,,,down,0,4.8111,,0.385380859,-0.069697266,1,0,1,0,43,43,144,1,eetlust,images/br_eetlust.png,images/cb_eetlust.png,0,,,,,,,,,,,,,,,,,,,,,,
,,,,,00035,2023-09-27_11h11.00.840,vbt_B2_day3,2022.2.4,MacIntel,59.87665409,,,,,,down,0,2.6899,,0.385380859,-0.072739258,1,0,1,0,44,44,153,1,vervoer,images/br_vervoer.png,images/cb_vervoer.png,0,,,,,,,,,,,,,,,,,,,,,,
,,,,,00035,2023-09-27_11h11.00.840,vbt_B2_day3,2022.2.4,MacIntel,59.87665409,,,,,,down,0,13.1121,,0.385380859,-0.072739258,1,0,1,0,45,45,81,1,dubbel,images/br_dubbel.png,images/cb_dubbel.png,0,,,,,,,,,,,,,,,,,,,,,,
,,,,,00035,2023-09-27_11h11.00.840,vbt_B2_day3,2022.2.4,MacIntel,59.87665409,,,,,,down,0,7.8603,,0.370249023,-0.065273438,1,0,1,0,46,46,59,1,kring,images/br_kring.png,images/cb_kring.png,0,,,,,,,,,,,,,,,,,,,,,,
,,,,,00035,2023-09-27_11h11.00.840,vbt_B2_day3,2022.2.4,MacIntel,59.87665409,,,,,,down,0,0.1008,,0.370249023,-0.065273438,1,0,1,0,47,47,162,1,uitdelen,images/br_uitdelen.png,images/cb_uitdelen.png,0,,,,,,,,,,,,,,,,,,,,,,
,,,,,00035,2023-09-27_11h11.00.840,vbt_B2_day3,2022.2.4,MacIntel,59.87665409,,,,,,down,0,2.389,,0.385546875,-0.02175293,1,0,1,0,48,48,44,1,flits,images/br_flits.png,images/cb_flits.png,0,,,,,,,,,,,,,,,,,,,,,,
,,,,,00035,2023-09-27_11h11.00.840,vbt_B2_day3,2022.2.4,MacIntel,59.87665409,,,,,,down,0,3.6919,,0.385546875,-0.02175293,1,0,1,0,49,49,151,1,aanzoek,images/br_aanzoek.png,images/cb_aanzoek.png,0,,,,,,,,,,,,,,,,,,,,,,
,,,,,00035,2023-09-27_11h11.00.840,vbt_B2_day3,2022.2.4,MacIntel,59.87665409,,,,,,down,0,3.5676,,0.385546875,-0.02175293,1,0,1,0,50,50,118,1,vinger,images/br_vinger.png,images/cb_vinger.png,0,,,,,,,,,,,,,,,,,,,,,,
,,,,,00035,2023-09-27_11h11.00.840,vbt_B2_day3,2022.2.4,MacIntel,59.87665409,,,,,,down,0,2.8156,,0.385546875,-0.02175293,1,0,1,0,51,51,39,1,laag,images/br_laag.png,images/cb_laag.png,0,,,,,,,,,,,,,,,,,,,,,,
,,,,,00035,2023-09-27_11h11.00.840,vbt_B2_day3,2022.2.4,MacIntel,59.87665409,,,,,,down,0,6.7819,,0.385546875,-0.02175293,1,0,1,0,52,52,170,1,schatten,images/br_schatten.png,images/cb_schatten.png,0,,,,,,,,,,,,,,,,,,,,,,
,,,,,00035,2023-09-27_11h11.00.840,vbt_B2_day3,2022.2.4,MacIntel,59.87665409,,,,,,down,0,18.5405,,0.385546875,-0.02175293,1,0,1,0,53,53,86,1,woning,images/br_woning.png,images/cb_woning.png,0,,,,,,,,,,,,,,,,,,,,,,
,,,,,00035,2023-09-27_11h11.00.840,vbt_B2_day3,2022.2.4,MacIntel,59.87665409,,,,,,down,0,6.624,,0.385546875,-0.02175293,1,0,1,0,54,54,0,1,slak,images/br_slak.png,images/cb_slak.png,0,,,,,,,,,,,,,,,,,,,,,,
,,,,,00035,2023-09-27_11h11.00.840,vbt_B2_day3,2022.2.4,MacIntel,59.87665409,,,,,,down,0,10.5567,,0.376708984,-0.037753906,1,0,1,0,55,55,68,1,schat,images/br_schat.png,images/cb_schat.png,0,,,,,,,,,,,,,,,,,,,,,,
,,,,,00035,2023-09-27_11h11.00.840,vbt_B2_day3,2022.2.4,MacIntel,59.87665409,,,,,,down,0,0.5183,,0.344125977,-0.052197266,1,0,1,0,56,56,7,1,geld,images/br_geld.png,images/cb_geld.png,0,,,,,,,,,,,,,,,,,,,,,,
,,,,,00035,2023-09-27_11h11.00.840,vbt_B2_day3,2022.2.4,MacIntel,59.87665409,,,,,,down,0,2.9329,,0.258540039,-0.135854492,1,0,1,0,57,57,190,1,goedkoop,images/br_goedkoop.png,images/cb_goedkoop.png,0,,,,,,,,,,,,,,,,,,,,,,
,,,,,00035,2023-09-27_11h11.00.840,vbt_B2_day3,2022.2.4,MacIntel,59.87665409,,,,,,down,0,15.0665,,0.356484375,-0.201845703,1,0,1,0,58,58,183,1,getuigen,images/br_getuigen.png,images/cb_getuigen.png,1,getuigen,,,,,,,,,,,,,,,,,,,,,
,,,,,00035,2023-09-27_11h11.00.840,vbt_B2_day3,2022.2.4,MacIntel,59.87665409,,,,,,down,0,3.8424,,0.360537109,-0.201845703,1,0,1,0,59,59,74,1,graaf,images/br_graaf.png,images/cb_graaf.png,0,,,,,,,,,,,,,,,,,,,,,,
,,,,,00035,2023-09-27_11h11.00.840,vbt_B2_day3,2022.2.4,MacIntel,59.87665409,,,,,,down,0,2.4408,,0.360537109,-0.200415039,1,0,1,0,60,60,150,1,gegeven,images/br_gegeven.png,images/cb_gegeven.png,0,,,,,,,,,,,,,,,,,,,,,,
,,,,,00035,2023-09-27_11h11.00.840,vbt_B2_day3,2022.2.4,MacIntel,59.87665409,,,,,,down,0,5.354,,0.321142578,-0.168955078,1,0,1,0,61,61,145,1,invloed,images/br_invloed.png,images/cb_invloed.png,0,,,,,,,,,,,,,,,,,,,,,,
,,,,,00035,2023-09-27_11h11.00.840,vbt_B2_day3,2022.2.4,MacIntel,59.87665409,,,,,,down,0,4.0899,,0.359692383,-0.113291016,1,0,1,0,62,62,62,1,knaap,images/br_knaap.png,images/cb_knaap.png,1,knaap,,,,,,,,,,,,,,,,,,,,,
,,,,,00035,2023-09-27_11h11.00.840,vbt_B2_day3,2022.2.4,MacIntel,59.87665409,,,,,,down,0,7.2576,,0.44940918,-0.211977539,1,0,1,0,63,63,101,1,staren,images/br_staren.png,images/cb_staren.png,1,staren,,,,,,,,,,,,,,,,,,,,,
,,,,,00035,2023-09-27_11h11.00.840,vbt_B2_day3,2022.2.4,MacIntel,59.87665409,,,,,,down,0,2.4724,,0.447158203,-0.211977539,1,0,1,0,64,64,78,1,leren,images/br_leren.png,images/cb_leren.png,0,,,,,,,,,,,,,,,,,,,,,,
,,,,,00035,2023-09-27_11h11.00.840,vbt_B2_day3,2022.2.4,MacIntel,59.87665409,,,,,,down,0,8.2598,,0.447158203,-0.211977539,1,0,1,0,65,65,76,1,afval,images/br_afval.png,images/cb_afval.png,0,,,,,,,,,,,,,,,,,,,,,,
,,,,,00035,2023-09-27_11h11.00.840,vbt_B2_day3,2022.2.4,MacIntel,59.87665409,,,,,,down,0,5.9804,,0.447158203,-0.211977539,1,0,1,0,66,66,193,1,weeshuis,images/br_weeshuis.png,images/cb_weeshuis.png,0,,,,,,,,,,,,,,,,,,,,,,
,,,,,00035,2023-09-27_11h11.00.840,vbt_B2_day3,2022.2.4,MacIntel,59.87665409,,,,,,down,0,5.8299,,0.447158203,-0.211977539,1,0,1,0,67,67,195,1,middelen,images/br_middelen.png,images/cb_middelen.png,0,,,,,,,,,,,,,,,,,,,,,,
,,,,,00035,2023-09-27_11h11.00.840,vbt_B2_day3,2022.2.4,MacIntel,59.87665409,,,,,,down,0,3.7421,,0.447158203,-0.209931641,1,0,1,0,68,68,175,1,heengaan,images/br_heengaan.png,images/cb_heengaan.png,0,,,,,,,,,,,,,,,,,,,,,,
,,,,,00035,2023-09-27_11h11.00.840,vbt_B2_day3,2022.2.4,MacIntel,59.87665409,,,,,,down,0,1.5797,,0.446748047,-0.209511719,1,0,1,0,69,69,15,1,soda,images/br_soda.png,images/cb_soda.png,0,,,,,,,,,,,,,,,,,,,,,,
,,,,,00035,2023-09-27_11h11.00.840,vbt_B2_day3,2022.2.4,MacIntel,59.87665409,,,,,,down,0,2.9905,,0.446748047,-0.209511719,1,0,1,0,70,70,26,1,leuk,images/br_leuk.png,images/cb_leuk.png,0,,,,,,,,,,,,,,,,,,,,,,
,,,,,00035,2023-09-27_11h11.00.840,vbt_B2_day3,2022.2.4,MacIntel,59.87665409,,,,,,down,0,6.6406,,0.446748047,-0.200615234,1,0,1,0,71,71,45,1,piste,images/br_piste.png,images/cb_piste.png,0,,,,,,,,,,,,,,,,,,,,,,
,,,,,00035,2023-09-27_11h11.00.840,vbt_B2_day3,2022.2.4,MacIntel,59.87665409,,,,,,down,0,5.4715,,0.446748047,-0.189892578,1,0,1,0,72,72,64,1,wegen,images/br_wegen.png,images/cb_wegen.png,0,,,,,,,,,,,,,,,,,,,,,,
,,,,,00035,2023-09-27_11h11.00.840,vbt_B2_day3,2022.2.4,MacIntel,59.87665409,,,,,,down,0,0.1678,,0.446748047,-0.189892578,1,0,1,0,73,73,46,1,jagen,images/br_jagen.png,images/cb_jagen.png,0,,,,,,,,,,,,,,,,,,,,,,
,,,,,00035,2023-09-27_11h11.00.840,vbt_B2_day3,2022.2.4,MacIntel,59.87665409,,,,,,down,0,4.4269,,0.446748047,-0.189892578,1,0,1,0,74,74,90,1,geluid,images/br_geluid.png,images/cb_geluid.png,0,,,,,,,,,,,,,,,,,,,,,,
,,,,,00035,2023-09-27_11h11.00.840,vbt_B2_day3,2022.2.4,MacIntel,59.87665409,,,,,,down,0,0.5352,,0.446748047,-0.189892578,1,0,1,0,75,75,73,1,volop,images/br_volop.png,images/cb_volop.png,0,,,,,,,,,,,,,,,,,,,,,,
,,,,,00035,2023-09-27_11h11.00.840,vbt_B2_day3,2022.2.4,MacIntel,59.87665409,,,,,,down,0,1.5635,,0.446748047,-0.189892578,1,0,1,0,76,76,10,1,leek,images/br_leek.png,images/cb_leek.png,0,,,,,,,,,,,,,,,,,,,,,,
,,,,,00035,2023-09-27_11h11.00.840,vbt_B2_day3,2022.2.4,MacIntel,59.87665409,,,,,,down,0,0.4334,,0.446748047,-0.189892578,1,0,1,0,77,77,19,1,geit,images/br_geit.png,images/cb_geit.png,0,,,,,,,,,,,,,,,,,,,,,,
,,,,,00035,2023-09-27_11h11.00.840,vbt_B2_day3,2022.2.4,MacIntel,59.87665409,,,,,,down,0,2.2721,,0.446748047,-0.189892578,1,0,1,0,78,78,2,1,jaar,images/br_jaar.png,images/cb_jaar.png,0,,,,,,,,,,,,,,,,,,,,,,
,,,,,00035,2023-09-27_11h11.00.840,vbt_B2_day3,2022.2.4,MacIntel,59.87665409,,,,,,down,0,4.2265,,0.446748047,-0.189892578,1,0,1,0,79,79,159,1,sufferd,images/br_sufferd.png,images/cb_sufferd.png,0,,,,,,,,,,,,,,,,,,,,,,
,,,,,00035,2023-09-27_11h11.00.840,vbt_B2_day3,2022.2.4,MacIntel,59.87665409,,,,,,down,0,1.0193,,0.446748047,-0.189892578,1,0,1,0,80,80,66,1,lever,images/br_lever.png,images/cb_lever.png,0,,,,,,,,,,,,,,,,,,,,,,
,,,,,00035,2023-09-27_11h11.00.840,vbt_B2_day3,2022.2.4,MacIntel,59.87665409,,,,,,down,0,3.8185,,0.446748047,-0.180141602,1,0,1,0,81,81,20,1,site,images/br_site.png,images/cb_site.png,1,site,,,,,,,,,,,,,,,,,,,,,
,,,,,00035,2023-09-27_11h11.00.840,vbt_B2_day3,2022.2.4,MacIntel,59.87665409,,,,,,down,0,3.074,,0.446748047,-0.183325195,1,0,1,0,82,82,82,1,muziek,images/br_muziek.png,images/cb_muziek.png,0,,,,,,,,,,,,,,,,,,,,,,
,,,,,00035,2023-09-27_11h11.00.840,vbt_B2_day3,2022.2.4,MacIntel,59.87665409,,,,,,down,0,0.4685,,0.444443359,-0.192314453,1,0,1,0,83,83,148,1,smullen,images/br_smullen.png,images/cb_smullen.png,0,,,,,,,,,,,,,,,,,,,,,,
,,,,,00035,2023-09-27_11h11.00.840,vbt_B2_day3,2022.2.4,MacIntel,59.87665409,,,,,,down,0,0.2845,,0.444443359,-0.192314453,1,0,1,0,84,84,178,1,huisdier,images/br_huisdier.png,images/cb_huisdier.png,0,,,,,,,,,,,,,,,,,,,,,,
,,,,,00035,2023-09-27_11h11.00.840,vbt_B2_day3,2022.2.4,MacIntel,59.87665409,,,,,,down,0,6.0304,,0.444443359,-0.192314453,1,0,1,0,85,85,55,1,praat,images/br_praat.png,images/cb_praat.png,0,,,,,,,,,,,,,,,,,,,,,,
,,,,,00035,2023-09-27_11h11.00.840,vbt_B2_day3,2022.2.4,MacIntel,59.87665409,,,,,,down,0,6.691,,0.454296875,-0.155332031,1,0,1,0,86,86,11,1,mode,images/br_mode.png,images/cb_mode.png,0,,,,,,,,,,,,,,,,,,,,,,
,,,,,00035,2023-09-27_11h11.00.840,vbt_B2_day3,2022.2.4,MacIntel,59.87665409,,,,,,down,0,33.6732,,0.454296875,-0.155332031,1,0,1,0,87,87,85,1,heilig,images/br_heilig.png,images/cb_heilig.png,0,,,,,,,,,,,,,,,,,,,,,,
,,,,,00035,2023-09-27_11h11.00.840,vbt_B2_day3,2022.2.4,MacIntel,59.87665409,,,,,,down,0,2.6565,,0.454296875,-0.151230469,1,0,1,0,88,88,160,1,daarheen,images/br_daarheen.png,images/cb_daarheen.png,0,,,,,,,,,,,,,,,,,,,,,,
,,,,,00035,2023-09-27_11h11.00.840,vbt_B2_day3,2022.2.4,MacIntel,59.87665409,,,,,,down,0,3.6917,,0.454296875,-0.151230469,1,0,1,0,89,89,34,1,vorm,images/br_vorm.png,images/cb_vorm.png,0,,,,,,,,,,,,,,,,,,,,,,
,,,,,00035,2023-09-27_11h11.00.840,vbt_B2_day3,2022.2.4,MacIntel,59.87665409,,,,,,down,0,0.2011,,0.454296875,-0.151230469,1,0,1,0,90,90,5,1,blad,images/br_blad.png,images/cb_blad.png,0,,,,,,,,,,,,,,,,,,,,,,
,,,,,00035,2023-09-27_11h11.00.840,vbt_B2_day3,2022.2.4,MacIntel,59.87665409,,,,,,down,0,4.5526,,0.454296875,-0.147055664,1,0,1,0,91,91,121,1,twijfel,images/br_twijfel.png,images/cb_twijfel.png,0,,,,,,,,,,,,,,,,,,,,,,
,,,,,00035,2023-09-27_11h11.00.840,vbt_B2_day3,2022.2.4,MacIntel,59.87665409,,,,,,down,0,9.5381,,0.454296875,-0.144526367,1,0,1,0,92,92,60,1,jasje,images/br_jasje.png,images/cb_jasje.png,1,jasje,,,,,,,,,,,,,,,,,,,,,
,,,,,00035,2023-09-27_11h11.00.840,vbt_B2_day3,2022.2.4,MacIntel,59.87665409,,,,,,down,0,16.5063,,0.454296875,-0.144526367,1,0,1,0,93,93,49,1,laken,images/br_laken.png,images/cb_laken.png,0,,,,,,,,,,,,,,,,,,,,,,
,,,,,00035,2023-09-27_11h11.00.840,vbt_B2_day3,2022.2.4,MacIntel,59.87665409,,,,,,down,0,0.2098,,0.454296875,-0.144526367,1,0,1,0,94,94,3,1,mand,images/br_mand.png,images/cb_mand.png,0,,,,,,,,,,,,,,,,,,,,,,
,,,,,00035,2023-09-27_11h11.00.840,vbt_B2_day3,2022.2.4,MacIntel,59.87665409,,,,,,down,0,5.9359,,0.402944336,-0.167875977,1,0,1,0,95,95,188,1,strekken,images/br_strekken.png,images/cb_strekken.png,0,,,,,,,,,,,,,,,,,,,,,,
,,,,,00035,2023-09-27_11h11.00.840,vbt_B2_day3,2022.2.4,MacIntel,59.87665409,,,,,,down,0,4.026,,0.39925293,-0.165004883,1,0,1,0,96,96,89,1,slapen,images/br_slapen.png,images/cb_slapen.png,0,,,,,,,,,,,,,,,,,,,,,,
,,,,,00035,2023-09-27_11h11.00.840,vbt_B2_day3,2022.2.4,MacIntel,59.87665409,,,,,,down,0,21.3734,,0.377832031,-0.058320312,1,0,1,0,97,97,194,1,driemaal,images/br_driemaal.png,images/cb_driemaal.png,0,,,,,,,,,,,,,,,,,,,,,,
,,,,,00035,2023-09-27_11h11.00.840,vbt_B2_day3,2022.2.4,MacIntel,59.87665409,,,,,,down,0,9.747,,0.32809082,-0.117807617,1,0,1,0,98,98,109,1,totaal,images/br_totaal.png,images/cb_totaal.png,0,,,,,,,,,,,,,,,,,,,,,,
,,,,,00035,2023-09-27_11h11.00.840,vbt_B2_day3,2022.2.4,MacIntel,59.87665409,,,,,,down,0,6.1973,,0.319482422,-0.103115234,1,0,1,0,99,99,179,1,woestijn,images/br_woestijn.png,images/cb_woestijn.png,0,,,,,,,,,,,,,,,,,,,,,,
,,,,,00035,2023-09-27_11h11.00.840,vbt_B2_day3,2022.2.4,MacIntel,59.87665409,,,,,,down,0,6.7486,,0.319482422,-0.103115234,1,0,1,0,100,100,164,1,anarchie,images/br_anarchie.png,images/cb_anarchie.png,0,,,,,,,,,,,,,,,,,,,,,,
,,,,,00035,2023-09-27_11h11.00.840,vbt_B2_day3,2022.2.4,MacIntel,59.87665409,,,,,,down,0,26.2824,,0.435820312,-0.059541016,1,0,1,0,101,101,120,1,klimmen,images/br_klimmen.png,images/cb_klimmen.png,0,,,,,,,,,,,,,,,,,,,,,,
,,,,,00035,2023-09-27_11h11.00.840,vbt_B2_day3,2022.2.4,MacIntel,59.87665409,,,,,,down,0,13.4797,,0.435820312,-0.059541016,1,0,1,0,102,102,157,1,uitlaat,images/br_uitlaat.png,images/cb_uitlaat.png,0,,,,,,,,,,,,,,,,,,,,,,
,,,,,00035,2023-09-27_11h11.00.840,vbt_B2_day3,2022.2.4,MacIntel,59.87665409,,,,,,down,0,7.9196,,0.435820312,-0.059541016,1,0,1,0,103,103,47,1,kabel,images/br_kabel.png,images/cb_kabel.png,0,,,,,,,,,,,,,,,,,,,,,,
,,,,,00035,2023-09-27_11h11.00.840,vbt_B2_day3,2022.2.4,MacIntel,59.87665409,,,,,,down,0,6.3978,,0.435820312,-0.059541016,1,0,1,0,104,104,107,1,maling,images/br_maling.png,images/cb_maling.png,0,,,,,,,,,,,,,,,,,,,,,,
,,,,,00035,2023-09-27_11h11.00.840,vbt_B2_day3,2022.2.4,MacIntel,59.87665409,,,,,,down,0,6.5816,,0.435820312,-0.059541016,1,0,1,0,105,105,187,1,opkijken,images/br_opkijken.png,images/cb_opkijken.png,0,,,,,,,,,,,,,,,,,,,,,,
,,,,,00035,2023-09-27_11h11.00.840,vbt_B2_day3,2022.2.4,MacIntel,59.87665409,,,,,,down,0,10.5493,,0.435820312,-0.059541016,1,0,1,0,106,106,94,1,oceaan,images/br_oceaan.png,images/cb_oceaan.png,0,,,,,,,,,,,,,,,,,,,,,,
,,,,,00035,2023-09-27_11h11.00.840,vbt_B2_day3,2022.2.4,MacIntel,59.87665409,,,,,,down,0,6.3474,,0.435820312,-0.059541016,1,0,1,0,107,107,14,1,rijp,images/br_rijp.png,images/cb_rijp.png,0,,,,,,,,,,,,,,,,,,,,,,
,,,,,00035,2023-09-27_11h11.00.840,vbt_B2_day3,2022.2.4,MacIntel,59.87665409,,,,,,down,0,3.4081,,0.435820312,-0.059541016,1,0,1,0,108,108,75,1,snoep,images/br_snoep.png,images/cb_snoep.png,0,,,,,,,,,,,,,,,,,,,,,,
,,,,,00035,2023-09-27_11h11.00.840,vbt_B2_day3,2022.2.4,MacIntel,59.87665409,,,,,,down,0,10.197,,0.433452148,-0.118149414,1,0,1,0,109,109,180,1,openbaar,images/br_openbaar.png,images/cb_openbaar.png,1,openbaar,,,,,,,,,,,,,,,,,,,,,
,,,,,00035,2023-09-27_11h11.00.840,vbt_B2_day3,2022.2.4,MacIntel,59.87665409,,,,,,down,0,8.8561,,0.47824707,-0.06059082,1,0,1,0,110,110,23,1,zout,images/br_zout.png,images/cb_zout.png,1,zout,,,,,,,,,,,,,,,,,,,,,
,,,,,00035,2023-09-27_11h11.00.840,vbt_B2_day3,2022.2.4,MacIntel,59.87665409,,,,,,down,0,1.8806,,0.353701172,-0.188056641,1,0,1,0,111,111,25,1,plek,images/br_plek.png,images/cb_plek.png,0,,,,,,,,,,,,,,,,,,,,,,
,,,,,00035,2023-09-27_11h11.00.840,vbt_B2_day3,2022.2.4,MacIntel,59.87665409,,,,,,down,0,1.9885,,0.35815918,-0.192919922,1,0,1,0,112,112,163,1,schuilen,images/br_schuilen.png,images/cb_schuilen.png,0,,,,,,,,,,,,,,,,,,,,,,
,,,,,00035,2023-09-27_11h11.00.840,vbt_B2_day3,2022.2.4,MacIntel,59.87665409,,,,,,down,0,0.4949,,0.35815918,-0.192919922,1,0,1,0,113,113,69,1,waken,images/br_waken.png,images/cb_waken.png,0,,,,,,,,,,,,,,,,,,,,,,
,,,,,00035,2023-09-27_11h11.00.840,vbt_B2_day3,2022.2.4,MacIntel,59.87665409,,,,,,down,0,0.7783,,0.35815918,-0.192919922,1,0,1,0,114,114,168,1,bisschop,images/br_bisschop.png,images/cb_bisschop.png,0,,,,,,,,,,,,,,,,,,,,,,
,,,,,00035,2023-09-27_11h11.00.840,vbt_B2_day3,2022.2.4,MacIntel,59.87665409,,,,,,down,0,0.0919,,0.358969727,-0.193730469,1,0,1,0,115,115,127,1,doodmoe,images/br_doodmoe.png,images/cb_doodmoe.png,0,,,,,,,,,,,,,,,,,,,,,,
,,,,,00035,2023-09-27_11h11.00.840,vbt_B2_day3,2022.2.4,MacIntel,59.87665409,,,,,,down,0,0.3682,,0.356103516,-0.193730469,1,0,1,0,116,116,131,1,opzicht,images/br_opzicht.png,images/cb_opzicht.png,0,,,,,,,,,,,,,,,,,,,,,,
,,,,,00035,2023-09-27_11h11.00.840,vbt_B2_day3,2022.2.4,MacIntel,59.87665409,,,,,,down,0,0.7019,,0.356103516,-0.193730469,1,0,1,0,117,117,161,1,attentie,images/br_attentie.png,images/cb_attentie.png,0,,,,,,,,,,,,,,,,,,,,,,
,,,,,00035,2023-09-27_11h11.00.840,vbt_B2_day3,2022.2.4,MacIntel,59.87665409,,,,,,down,0,11.8936,,0.356103516,-0.193730469,1,0,1,0,118,118,99,1,koffie,images/br_koffie.png,images/cb_koffie.png,0,,,,,,,,,,,,,,,,,,,,,,
,,,,,00035,2023-09-27_11h11.00.840,vbt_B2_day3,2022.2.4,MacIntel,59.87665409,,,,,,down,0,22.9001,,0.539755859,0.125737305,1,0,1,0,119,119,22,1,stof,images/br_stof.png,images/cb_stof.png,1,stof,,,,,,,,,,,,,,,,,,,,,
,,,,,00035,2023-09-27_11h11.00.840,vbt_B2_day3,2022.2.4,MacIntel,59.87665409,,,,,,down,0,2.1555,,0.408149414,-0.171826172,1,0,1,0,120,120,52,1,wagon,images/br_wagon.png,images/cb_wagon.png,0,,,,,,,,,,,,,,,,,,,,,,
,,,,,00035,2023-09-27_11h11.00.840,vbt_B2_day3,2022.2.4,MacIntel,59.87665409,,,,,,down,0,6.4314,,0.408149414,-0.171826172,1,0,1,0,121,121,16,1,ziek,images/br_ziek.png,images/cb_ziek.png,0,,,,,,,,,,,,,,,,,,,,,,
,,,,,00035,2023-09-27_11h11.00.840,vbt_B2_day3,2022.2.4,MacIntel,59.87665409,,,,,,down,0,4.4437,,0.408149414,-0.171826172,1,0,1,0,122,122,42,1,bleek,images/br_bleek.png,images/cb_bleek.png,0,,,,,,,,,,,,,,,,,,,,,,
,,,,,00035,2023-09-27_11h11.00.840,vbt_B2_day3,2022.2.4,MacIntel,59.87665409,,,,,,down,0,3.9131,,0.408149414,-0.171826172,1,0,1,0,123,123,30,1,uien,images/br_uien.png,images/cb_uien.png,0,,,,,,,,,,,,,,,,,,,,,,
,,,,,00035,2023-09-27_11h11.00.840,vbt_B2_day3,2022.2.4,MacIntel,59.87665409,,,,,,down,0,6.9321,,0.408149414,-0.171826172,1,0,1,0,124,124,115,1,kleren,images/br_kleren.png,images/cb_kleren.png,0,,,,,,,,,,,,,,,,,,,,,,
,,,,,00035,2023-09-27_11h11.00.840,vbt_B2_day3,2022.2.4,MacIntel,59.87665409,,,,,,down,0,6.1469,,0.408149414,-0.171826172,1,0,1,0,125,125,184,1,aandelen,images/br_aandelen.png,images/cb_aandelen.png,0,,,,,,,,,,,,,,,,,,,,,,
,,,,,00035,2023-09-27_11h11.00.840,vbt_B2_day3,2022.2.4,MacIntel,59.87665409,,,,,,down,0,0.3605,,0.408149414,-0.171826172,1,0,1,0,126,126,171,1,aarzelen,images/br_aarzelen.png,images/cb_aarzelen.png,0,,,,,,,,,,,,,,,,,,,,,,
,,,,,00035,2023-09-27_11h11.00.840,vbt_B2_day3,2022.2.4,MacIntel,59.87665409,,,,,,down,0,3.6013,,0.408149414,-0.171826172,1,0,1,0,127,127,98,1,kreeft,images/br_kreeft.png,images/cb_kreeft.png,0,,,,,,,,,,,,,,,,,,,,,,
,,,,,00035,2023-09-27_11h11.00.840,vbt_B2_day3,2022.2.4,MacIntel,59.87665409,,,,,,down,0,4.7777,,0.408149414,-0.171826172,1,0,1,0,128,128,80,1,kanjer,images/br_kanjer.png,images/cb_kanjer.png,0,,,,,,,,,,,,,,,,,,,,,,
,,,,,00035,2023-09-27_11h11.00.840,vbt_B2_day3,2022.2.4,MacIntel,59.87665409,,,,,,down,0,6.3478,,0.408149414,-0.171826172,1,0,1,0,129,129,125,1,aanzien,images/br_aanzien.png,images/cb_aanzien.png,0,,,,,,,,,,,,,,,,,,,,,,
,,,,,00035,2023-09-27_11h11.00.840,vbt_B2_day3,2022.2.4,MacIntel,59.87665409,,,,,,down,0,5.3788,,0.412202148,-0.17262207,1,0,1,0,130,130,177,1,maaltijd,images/br_maaltijd.png,images/cb_maaltijd.png,0,,,,,,,,,,,,,,,,,,,,,,
,,,,,00035,2023-09-27_11h11.00.840,vbt_B2_day3,2022.2.4,MacIntel,59.87665409,,,,,,down,0,4.1096,,0.412202148,-0.17262207,1,0,1,0,131,131,149,1,redding,images/br_redding.png,images/cb_redding.png,0,,,,,,,,,,,,,,,,,,,,,,
,,,,,00035,2023-09-27_11h11.00.840,vbt_B2_day3,2022.2.4,MacIntel,59.87665409,,,,,,down,0,4.3934,,0.412202148,-0.17262207,1,0,1,0,132,132,154,1,aflopen,images/br_aflopen.png,images/cb_aflopen.png,0,,,,,,,,,,,,,,,,,,,,,,
,,,,,00035,2023-09-27_11h11.00.840,vbt_B2_day3,2022.2.4,MacIntel,59.87665409,,,,,,down,0,2.0719,,0.412202148,-0.17262207,1,0,1,0,133,133,128,1,prikken,images/br_prikken.png,images/cb_prikken.png,0,,,,,,,,,,,,,,,,,,,,,,
,,,,,00035,2023-09-27_11h11.00.840,vbt_B2_day3,2022.2.4,MacIntel,59.87665409,,,,,,down,0,0.2424,,0.412202148,-0.17262207,1,0,1,0,134,134,29,1,baas,images/br_baas.png,images/cb_baas.png,0,,,,,,,,,,,,,,,,,,,,,,
,,,,,00035,2023-09-27_11h11.00.840,vbt_B2_day3,2022.2.4,MacIntel,59.87665409,,,,,,down,0,1.8948,,0.414228516,-0.174243164,1,0,1,0,135,135,197,1,spanning,images/br_spanning.png,images/cb_spanning.png,0,,,,,,,,,,,,,,,,,,,,,,
,,,,,00035,2023-09-27_11h11.00.840,vbt_B2_day3,2022.2.4,MacIntel,59.87665409,,,,,,down,0,4.6532,,0.414228516,-0.174243164,1,0,1,0,136,136,185,1,mijnheer,images/br_mijnheer.png,images/cb_mijnheer.png,0,,,,,,,,,,,,,,,,,,,,,,
,,,,,00035,2023-09-27_11h11.00.840,vbt_B2_day3,2022.2.4,MacIntel,59.87665409,,,,,,down,0,11.5257,,0.437148437,-0.150234375,1,0,1,0,137,137,97,1,loyaal,images/br_loyaal.png,images/cb_loyaal.png,0,,,,,,,,,,,,,,,,,,,,,,
,,,,,00035,2023-09-27_11h11.00.840,vbt_B2_day3,2022.2.4,MacIntel,59.87665409,,,,,,down,0,23.067,,0.437148437,-0.150234375,1,0,1,0,138,138,63,1,flirt,images/br_flirt.png,images/cb_flirt.png,1,flirt,,,,,,,,,,,,,,,,,,,,,
,,,,,00035,2023-09-27_11h11.00.840,vbt_B2_day3,2022.2.4,MacIntel,59.87665409,,,,,,down,0,23.8868,,0.670234375,-0.130991211,1,0,1,0,139,139,137,1,trekker,images/br_trekker.png,images/cb_trekker.png,0,,,,,,,,,,,,,,,,,,,,,,
,,,,,00035,2023-09-27_11h11.00.840,vbt_B2_day3,2022.2.4,MacIntel,59.87665409,,,,,,down,0,13.655,,0.670234375,-0.130991211,1,0,1,0,140,140,123,1,hiervan,images/br_hiervan.png,images/cb_hiervan.png,0,,,,,,,,,,,,,,,,,,,,,,
,,,,,00035,2023-09-27_11h11.00.840,vbt_B2_day3,2022.2.4,MacIntel,59.87665409,,,,,,down,0,8.9869,,0.548334961,-0.134179688,1,0,1,0,141,141,147,1,komisch,images/br_komisch.png,images/cb_komisch.png,0,,,,,,,,,,,,,,,,,,,,,,
,,,,,00035,2023-09-27_11h11.00.840,vbt_B2_day3,2022.2.4,MacIntel,59.87665409,,,,,,down,0,5.2536,,0.548334961,-0.134179688,1,0,1,0,142,142,50,1,stoom,images/br_stoom.png,images/cb_stoom.png,0,,,,,,,,,,,,,,,,,,,,,,
,,,,,00035,2023-09-27_11h11.00.840,vbt_B2_day3,2022.2.4,MacIntel,59.87665409,,,,,,down,0,14.8393,,0.652944336,-0.114707031,1,0,1,0,143,143,142,1,snuiven,images/br_snuiven.png,images/cb_snuiven.png,1,snuiven,,,,,,,,,,,,,,,,,,,,,
,,,,,00035,2023-09-27_11h11.00.840,vbt_B2_day3,2022.2.4,MacIntel,59.87665409,,,,,,down,0,3.5585,,0.566796875,-0.120595703,1,0,1,0,144,144,61,1,groen,images/br_groen.png,images/cb_groen.png,1,groen,,,,,,,,,,,,,,,,,,,,,
,,,,,00035,2023-09-27_11h11.00.840,vbt_B2_day3,2022.2.4,MacIntel,59.87665409,,,,,,down,0,2.69,,0.566796875,-0.120595703,1,0,1,0,145,145,196,1,nakijken,images/br_nakijken.png,images/cb_nakijken.png,0,,,,,,,,,,,,,,,,,,,,,,
,,,,,00035,2023-09-27_11h11.00.840,vbt_B2_day3,2022.2.4,MacIntel,59.87665409,,,,,,down,0,1.4706,,0.577807617,-0.12262207,1,0,1,0,146,146,54,1,gebit,images/br_gebit.png,images/cb_gebit.png,0,,,,,,,,,,,,,,,,,,,,,,
,,,,,00035,2023-09-27_11h11.00.840,vbt_B2_day3,2022.2.4,MacIntel,59.87665409,,,,,,down,0,1.8917,,0.577807617,-0.12262207,1,0,1,0,147,147,51,1,samen,images/br_samen.png,images/cb_samen.png,0,,,,,,,,,,,,,,,,,,,,,,
,,,,,00035,2023-09-27_11h11.00.840,vbt_B2_day3,2022.2.4,MacIntel,59.87665409,,,,,,down,0,0.2679,,0.58753418,-0.129916992,1,0,1,0,148,148,112,1,lukken,images/br_lukken.png,images/cb_lukken.png,0,,,,,,,,,,,,,,,,,,,,,,
,,,,,00035,2023-09-27_11h11.00.840,vbt_B2_day3,2022.2.4,MacIntel,59.87665409,,,,,,down,0,0.8358,,0.58753418,-0.130322266,1,0,1,0,149,149,93,1,waarop,images/br_waarop.png,images/cb_waarop.png,0,,,,,,,,,,,,,,,,,,,,,,
,,,,,00035,2023-09-27_11h11.00.840,vbt_B2_day3,2022.2.4,MacIntel,59.87665409,,,,,,down,0,4.7187,,0.58753418,-0.130322266,1,0,1,0,150,150,166,1,strikken,images/br_strikken.png,images/cb_strikken.png,0,,,,,,,,,,,,,,,,,,,,,,
,,,,,00035,2023-09-27_11h11.00.840,vbt_B2_day3,2022.2.4,MacIntel,59.87665409,,,,,,down,0,1.3958,,0.58753418,-0.130322266,1,0,1,0,151,151,156,1,rechten,images/br_rechten.png,images/cb_rechten.png,0,,,,,,,,,,,,,,,,,,,,,,
,,,,,00035,2023-09-27_11h11.00.840,vbt_B2_day3,2022.2.4,MacIntel,59.87665409,,,,,,down,0,2.9905,,0.58753418,-0.130322266,1,0,1,0,152,152,174,1,stemming,images/br_stemming.png,images/cb_stemming.png,0,,,,,,,,,,,,,,,,,,,,,,
,,,,,00035,2023-09-27_11h11.00.840,vbt_B2_day3,2022.2.4,MacIntel,59.87665409,,,,,,down,0,3.2239,,0.58753418,-0.130322266,1,0,1,0,153,153,33,1,vlek,images/br_vlek.png,images/cb_vlek.png,0,,,,,,,,,,,,,,,,,,,,,,
,,,,,00035,2023-09-27_11h11.00.840,vbt_B2_day3,2022.2.4,MacIntel,59.87665409,,,,,,down,0,0.8741,,0.58753418,-0.130322266,1,0,1,0,154,154,4,1,moes,images/br_moes.png,images/cb_moes.png,0,,,,,,,,,,,,,,,,,,,,,,
,,,,,00035,2023-09-27_11h11.00.840,vbt_B2_day3,2022.2.4,MacIntel,59.87665409,,,,,,down,0,2.9493,,0.58753418,-0.130322266,1,0,1,0,155,155,77,1,woede,images/br_woede.png,images/cb_woede.png,0,,,,,,,,,,,,,,,,,,,,,,
,,,,,00035,2023-09-27_11h11.00.840,vbt_B2_day3,2022.2.4,MacIntel,59.87665409,,,,,,down,0,2.5227,,0.58753418,-0.130322266,1,0,1,0,156,156,65,1,parel,images/br_parel.png,images/cb_parel.png,0,,,,,,,,,,,,,,,,,,,,,,
,,,,,00035,2023-09-27_11h11.00.840,vbt_B2_day3,2022.2.4,MacIntel,59.87665409,,,,,,down,0,1.1532,,0.58753418,-0.130322266,1,0,1,0,157,157,79,1,nodig,images/br_nodig.png,images/cb_nodig.png,0,,,,,,,,,,,,,,,,,,,,,,
,,,,,00035,2023-09-27_11h11.00.840,vbt_B2_day3,2022.2.4,MacIntel,59.87665409,,,,,,down,0,0.4848,,0.58753418,-0.130322266,1,0,1,0,158,158,146,1,opkomen,images/br_opkomen.png,images/cb_opkomen.png,0,,,,,,,,,,,,,,,,,,,,,,
,,,,,00035,2023-09-27_11h11.00.840,vbt_B2_day3,2022.2.4,MacIntel,59.87665409,,,,,,down,0,0.2345,,0.58753418,-0.130322266,1,0,1,0,159,159,17,1,taal,images/br_taal.png,images/cb_taal.png,0,,,,,,,,,,,,,,,,,,,,,,
,,,,,00035,2023-09-27_11h11.00.840,vbt_B2_day3,2022.2.4,MacIntel,59.87665409,,,,,,down,0,0.3347,,0.58753418,-0.130322266,1,0,1,0,160,160,155,1,gerucht,images/br_gerucht.png,images/cb_gerucht.png,0,,,,,,,,,,,,,,,,,,,,,,
,,,,,00035,2023-09-27_11h11.00.840,vbt_B2_day3,2022.2.4,MacIntel,59.87665409,,,,,,down,0,0.4014,,0.58753418,-0.130322266,1,0,1,0,161,161,92,1,geheim,images/br_geheim.png,images/cb_geheim.png,0,,,,,,,,,,,,,,,,,,,,,,
,,,,,00035,2023-09-27_11h11.00.840,vbt_B2_day3,2022.2.4,MacIntel,59.87665409,,,,,,down,0,10.8406,,0.58753418,-0.130322266,1,0,1,0,162,162,18,1,blik,images/br_blik.png,images/cb_blik.png,0,,,,,,,,,,,,,,,,,,,,,,
,,,,,00035,2023-09-27_11h11.00.840,vbt_B2_day3,2022.2.4,MacIntel,59.87665409,,,,,,down,0,1.721,,0.58753418,-0.130322266,1,0,1,0,163,163,165,1,feestdag,images/br_feestdag.png,images/cb_feestdag.png,0,,,,,,,,,,,,,,,,,,,,,,
,,,,,00035,2023-09-27_11h11.00.840,vbt_B2_day3,2022.2.4,MacIntel,59.87665409,,,,,,down,0,4.7027,,0.58875,-0.130322266,1,0,1,0,164,164,113,1,koppen,images/br_koppen.png,images/cb_koppen.png,0,,,,,,,,,,,,,,,,,,,,,,
,,,,,00035,2023-09-27_11h11.00.840,vbt_B2_day3,2022.2.4,MacIntel,59.87665409,,,,,,down,0,15.601,,0.58875,-0.130322266,1,0,1,0,165,165,141,1,knielen,images/br_knielen.png,images/cb_knielen.png,1,knielen,,,,,,,,,,,,,,,,,,,,,
,,,,,00035,2023-09-27_11h11.00.840,vbt_B2_day3,2022.2.4,MacIntel,59.87665409,,,,,,down,0,2.0215,,0.477089844,-0.103813477,1,0,0,0,166,166,13,1,kaal,images/br_kaal.png,images/cb_kaal.png,0,,,,,,,,,,,,,,,,,,,,,,
,,,,,00035,2023-09-27_11h11.00.840,vbt_B2_day3,2022.2.4,MacIntel,59.87665409,,,,,,down,0,1.1697,,0.477089844,-0.103813477,1,0,0,0,167,167,104,1,zweven,images/br_zweven.png,images/cb_zweven.png,0,,,,,,,,,,,,,,,,,,,,,,
,,,,,00035,2023-09-27_11h11.00.840,vbt_B2_day3,2022.2.4,MacIntel,59.87665409,,,,,,down,0,1.1366,,0.477089844,-0.103813477,1,0,0,0,168,168,1,1,zaal,images/br_zaal.png,images/cb_zaal.png,0,,,,,,,,,,,,,,,,,,,,,,
,,,,,00035,2023-09-27_11h11.00.840,vbt_B2_day3,2022.2.4,MacIntel,59.87665409,,,,,,down,0,0.435,,0.477089844,-0.103813477,1,0,0,0,169,169,152,1,afnemen,images/br_afnemen.png,images/cb_afnemen.png,0,,,,,,,,,,,,,,,,,,,,,,
,,,,,00035,2023-09-27_11h11.00.840,vbt_B2_day3,2022.2.4,MacIntel,59.87665409,,,,,,down,0,0.7301,,0.477089844,-0.103813477,1,0,0,0,170,170,87,1,toeval,images/br_toeval.png,images/cb_toeval.png,0,,,,,,,,,,,,,,,,,,,,,,
,,,,,00035,2023-09-27_11h11.00.840,vbt_B2_day3,2022.2.4,MacIntel,59.87665409,,,,,,down,0,8.6693,,0.477089844,-0.103813477,1,0,0,0,171,171,108,1,excuus,images/br_excuus.png,images/cb_excuus.png,0,,,,,,,,,,,,,,,,,,,,,,
,,,,,00035,2023-09-27_11h11.00.840,vbt_B2_day3,2022.2.4,MacIntel,59.87665409,,,,,,down,0,14.5822,,0.477089844,-0.103813477,0,0,1,0,172,172,24,1,jurk,images/br_jurk.png,images/cb_jurk.png,0,,,,,,,,,,,,,,,,,,,,,,
,,,,,00035,2023-09-27_11h11.00.840,vbt_B2_day3,2022.2.4,MacIntel,59.87665409,,,,,,down,0,10.1981,,0.411630859,-0.009829102,1,0,1,0,173,173,40,1,schep,images/br_schep.png,images/cb_schep.png,0,,,,,,,,,,,,,,,,,,,,,,
,,,,,00035,2023-09-27_11h11.00.840,vbt_B2_day3,2022.2.4,MacIntel,59.87665409,,,,,,down,0,7.5336,,0.411630859,-0.009829102,1,0,1,0,174,174,91,1,gezond,images/br_gezond.png,images/cb_gezond.png,0,,,,,,,,,,,,,,,,,,,,,,
,,,,,00035,2023-09-27_11h11.00.840,vbt_B2_day3,2022.2.4,MacIntel,59.87665409,,,,,,down,0,1.7212,,0.411630859,-0.009829102,1,0,1,0,175,175,191,1,opheffen,images/br_opheffen.png,images/cb_opheffen.png,0,,,,,,,,,,,,,,,,,,,,,,
,,,,,00035,2023-09-27_11h11.00.840,vbt_B2_day3,2022.2.4,MacIntel,59.87665409,,,,,,down,0,0.2846,,0.411630859,-0.009829102,1,0,1,0,176,176,189,1,aanraden,images/br_aanraden.png,images/cb_aanraden.png,0,,,,,,,,,,,,,,,,,,,,,,
,,,,,00035,2023-09-27_11h11.00.840,vbt_B2_day3,2022.2.4,MacIntel,59.87665409,,,,,,down,0,5.8799,,0.411630859,-0.009829102,1,0,1,0,177,177,72,1,strak,images/br_strak.png,images/cb_strak.png,0,,,,,,,,,,,,,,,,,,,,,,
,,,,,00035,2023-09-27_11h11.00.840,vbt_B2_day3,2022.2.4,MacIntel,59.87665409,,,,,,down,0,4.3021,,0.411630859,-0.008125,1,0,1,0,178,178,53,1,baron,images/br_baron.png,images/cb_baron.png,0,,,,,,,,,,,,,,,,,,,,,,
,,,,,00035,2023-09-27_11h11.00.840,vbt_B2_day3,2022.2.4,MacIntel,59.87665409,,,,,,down,0,0.6186,,0.411630859,-0.008125,1,0,1,0,179,179,138,1,akkoord,images/br_akkoord.png,images/cb_akkoord.png,0,,,,,,,,,,,,,,,,,,,,,,
,,,,,00035,2023-09-27_11h11.00.840,vbt_B2_day3,2022.2.4,MacIntel,59.87665409,,,,,,down,0,2.615,,0.411630859,-0.008125,1,0,1,0,180,180,83,1,mening,images/br_mening.png,images/cb_mening.png,0,,,,,,,,,,,,,,,,,,,,,,
,,,,,00035,2023-09-27_11h11.00.840,vbt_B2_day3,2022.2.4,MacIntel,59.87665409,,,,,,down,0,2.4249,,0.411630859,-0.008125,1,0,1,0,181,181,27,1,dans,images/br_dans.png,images/cb_dans.png,0,,,,,,,,,,,,,,,,,,,,,,
,,,,,00035,2023-09-27_11h11.00.840,vbt_B2_day3,2022.2.4,MacIntel,59.87665409,,,,,,down,0,8.5195,,0.394487305,-0.025517578,1,0,1,0,182,182,100,1,geduld,images/br_geduld.png,images/cb_geduld.png,1,geduld,,,,,,,,,,,,,,,,,,,,,
,,,,,00035,2023-09-27_11h11.00.840,vbt_B2_day3,2022.2.4,MacIntel,59.87665409,,,,,,down,0,0.06,,0.394892578,-0.024287109,1,0,1,0,183,183,124,1,bloeien,images/br_bloeien.png,images/cb_bloeien.png,0,,,,,,,,,,,,,,,,,,,,,,
,,,,,00035,2023-09-27_11h11.00.840,vbt_B2_day3,2022.2.4,MacIntel,59.87665409,,,,,,down,0,0.3613,,0.394892578,-0.024287109,1,0,1,0,184,184,129,1,verhaal,images/br_verhaal.png,images/cb_verhaal.png,0,,,,,,,,,,,,,,,,,,,,,,
,,,,,00035,2023-09-27_11h11.00.840,vbt_B2_day3,2022.2.4,MacIntel,59.87665409,,,,,,down,0,5.9802,,0.398725586,-0.022612305,1,0,1,0,185,185,119,1,liefje,images/br_liefje.png,images/cb_liefje.png,0,,,,,,,,,,,,,,,,,,,,,,
,,,,,00035,2023-09-27_11h11.00.840,vbt_B2_day3,2022.2.4,MacIntel,59.87665409,,,,,,down,0,3.5078,,0.388530273,-0.031899414,1,0,1,0,186,186,96,1,slagen,images/br_slagen.png,images/cb_slagen.png,0,,,,,,,,,,,,,,,,,,,,,,
,,,,,00035,2023-09-27_11h11.00.840,vbt_B2_day3,2022.2.4,MacIntel,59.87665409,,,,,,down,0,10.5321,,0.375615234,-0.027919922,1,0,1,0,187,187,95,1,vreten,images/br_vreten.png,images/cb_vreten.png,0,,,,,,,,,,,,,,,,,,,,,,
,,,,,00035,2023-09-27_11h11.00.840,vbt_B2_day3,2022.2.4,MacIntel,59.87665409,,,,,,down,0,10.9579,,0.375615234,-0.027919922,1,0,1,0,188,188,103,1,joggen,images/br_joggen.png,images/cb_joggen.png,1,joggen,,,,,,,,,,,,,,,,,,,,,
,,,,,00035,2023-09-27_11h11.00.840,vbt_B2_day3,2022.2.4,MacIntel,59.87665409,,,,,,down,0,6.2979,,0.429067383,-0.033393555,1,0,1,0,189,189,102,1,legaal,images/br_legaal.png,images/cb_legaal.png,1,legaal,,,,,,,,,,,,,,,,,,,,,
,,,,,00035,2023-09-27_11h11.00.840,vbt_B2_day3,2022.2.4,MacIntel,59.87665409,,,,,,down,0,1.7043,,0.429067383,-0.033393555,1,0,1,0,190,190,135,1,gedicht,images/br_gedicht.png,images/cb_gedicht.png,0,,,,,,,,,,,,,,,,,,,,,,
,,,,,00035,2023-09-27_11h11.00.840,vbt_B2_day3,2022.2.4,MacIntel,59.87665409,,,,,,down,0,0.8189,,0.437983398,-0.040087891,1,0,1,0,191,191,134,1,geliefd,images/br_geliefd.png,images/cb_geliefd.png,0,,,,,,,,,,,,,,,,,,,,,,
,,,,,00035,2023-09-27_11h11.00.840,vbt_B2_day3,2022.2.4,MacIntel,59.87665409,,,,,,down,0,0.8615,,0.412304687,-0.011132813,1,0,1,0,192,192,8,1,knie,images/br_knie.png,images/cb_knie.png,0,,,,,,,,,,,,,,,,,,,,,,
,,,,,00035,2023-09-27_11h11.00.840,vbt_B2_day3,2022.2.4,MacIntel,59.87665409,,,,,,down,0,0.8692,,0.412304687,-0.011132813,1,0,1,0,193,193,12,1,kust,images/br_kust.png,images/cb_kust.png,0,,,,,,,,,,,,,,,,,,,,,,
,,,,,00035,2023-09-27_11h11.00.840,vbt_B2_day3,2022.2.4,MacIntel,59.87665409,,,,,,down,0,1.1701,,0.412304687,-0.011132813,1,0,1,0,194,194,139,1,stiekem,images/br_stiekem.png,images/cb_stiekem.png,0,,,,,,,,,,,,,,,,,,,,,,
,,,,,00035,2023-09-27_11h11.00.840,vbt_B2_day3,2022.2.4,MacIntel,59.87665409,,,,,,down,0,12.3439,,0.412324219,-0.012202148,1,0,1,0,195,195,143,1,hechten,images/br_hechten.png,images/cb_hechten.png,1,hechten,,,,,,,,,,,,,,,,,,,,,
,,,,,00035,2023-09-27_11h11.00.840,vbt_B2_day3,2022.2.4,MacIntel,59.87665409,,,,,,down,0,1.8307,,0.412324219,-0.012202148,1,0,1,0,196,196,132,1,grappen,images/br_grappen.png,images/cb_grappen.png,0,,,,,,,,,,,,,,,,,,,,,,
,,,,,00035,2023-09-27_11h11.00.840,vbt_B2_day3,2022.2.4,MacIntel,59.87665409,,,,,,down,0,0.2267,,0.412324219,-0.012202148,1,0,1,0,197,197,158,1,innemen,images/br_innemen.png,images/cb_innemen.png,0,,,,,,,,,,,,,,,,,,,,,,
,,,,,00035,2023-09-27_11h11.00.840,vbt_B2_day3,2022.2.4,MacIntel,59.87665409,,,,,,down,0,0.7022,,0.412324219,-0.027416992,1,0,1,0,198,198,57,1,steek,images/br_steek.png,images/cb_steek.png,0,,,,,,,,,,,,,,,,,,,,,,
,,,,,00035,2023-09-27_11h11.00.840,vbt_B2_day3,2022.2.4,MacIntel,59.87665409,,,,,,down,0,6.8322,,0.414082031,-0.027416992,1,0,1,0,199,199,140,1,blijven,images/br_blijven.png,images/cb_blijven.png,1,blijven,,,,,,,,,,,,,,,,,,,,,
,,,,,00035,2023-09-27_11h11.00.840,vbt_B2_day3,2022.2.4,MacIntel,59.87665409,,,,,,,,,,,,,,,,,,,,,,,,,0.414082031,-0.027416992,0,0,1,,,,,,,,,,,,,,,,
,,,,,00035,2023-09-27_11h11.00.840,vbt_B2_day3,2022.2.4,MacIntel,59.87665409,,,,,,,,,,,,,,,,,,,,,,,,,,,,,,0.414082031,-0.027416992,1,0,1,,,,,,,,,,,
,,,,,00035,2023-09-27_11h11.00.840,vbt_B2_day3,2022.2.4,MacIntel,59.87665409,,,,,,,,,,,,,,,,,,,,laken,images/br_laken.png,images/cb_laken.png,,laken,,,,,,,,,,,0.109707031,-0.009799805,1,0,1,laken,0,0,0,5,1
,,,,,00035,2023-09-27_11h11.00.840,vbt_B2_day3,2022.2.4,MacIntel,59.87665409,,,,,,,,,,,,,,,,,,,,makieren,images/br_makieren.png,images/cb_makieren.png,,mak...,,,,,,,,,,,-0.145581055,-0.055297852,1,0,1,mak...,0,1,1,36,1
,,,,,00035,2023-09-27_11h11.00.840,vbt_B2_day3,2022.2.4,MacIntel,59.87665409,,,,,,,,,,,,,,,,,,,,prikken,images/br_prikken.png,images/cb_prikken.png,,prikken,,,,,,,,,,,-0.145581055,-0.055297852,1,0,1,prikken,0,2,2,12,1
,,,,,00035,2023-09-27_11h11.00.840,vbt_B2_day3,2022.2.4,MacIntel,59.87665409,,,,,,,,,,,,,,,,,,,,glijden,images/br_glijden.png,images/cb_glijden.png,,glijden,,,,,,,,,,,-0.321445313,-0.090629883,1,0,1,glijden,0,3,3,53,1
,,,,,00035,2023-09-27_11h11.00.840,vbt_B2_day3,2022.2.4,MacIntel,59.87665409,,,,,,,,,,,,,,,,,,,,geluid,images/br_geluid.png,images/cb_geluid.png,,geluid,,,,,,,,,,,-0.066865234,-0.008134766,1,0,1,geluid,0,4,4,10,1
,,,,,00035,2023-09-27_11h11.00.840,vbt_B2_day3,2022.2.4,MacIntel,59.87665409,,,,,,,,,,,,,,,,,,,,begrip,images/br_begrip.png,images/cb_begrip.png,,begrip,,,,,,,,,,,0.180263672,0.019897461,1,0,1,begrip,0,5,5,48,1
,,,,,00035,2023-09-27_11h11.00.840,vbt_B2_day3,2022.2.4,MacIntel,59.87665409,,,,,,,,,,,,,,,,,,,,steel,images/br_steel.png,images/cb_steel.png,,steel,,,,,,,,,,,0.30480957,-0.006357422,1,0,1,steel,0,6,6,4,1
,,,,,00035,2023-09-27_11h11.00.840,vbt_B2_day3,2022.2.4,MacIntel,59.87665409,,,,,,,,,,,,,,,,,,,,verhaal,images/br_verhaal.png,images/cb_verhaal.png,,verhaal,,,,,,,,,,,0.472226563,0.038457031,1,0,1,verhaal,0,7,7,13,1
,,,,,00035,2023-09-27_11h11.00.840,vbt_B2_day3,2022.2.4,MacIntel,59.87665409,,,,,,,,,,,,,,,,,,,,mode,images/br_mode.png,images/cb_mode.png,,mode,,,,,,,,,,,0.342319336,-0.078608398,1,0,1,mode,0,8,8,3,1
,,,,,00035,2023-09-27_11h11.00.840,vbt_B2_day3,2022.2.4,MacIntel,59.87665409,,,,,,,,,,,,,,,,,,,,leek,images/br_leek.png,images/cb_leek.png,,leek,,,,,,,,,,,0.307431641,-0.101826172,1,0,1,leek,0,9,9,2,1
,,,,,00035,2023-09-27_11h11.00.840,vbt_B2_day3,2022.2.4,MacIntel,59.87665409,,,,,,,,,,,,,,,,,,,,zone,images/br_zone.png,images/cb_zone.png,,zone,,,,,,,,,,,0.337695313,-0.054301758,1,0,1,zone,0,10,10,41,1
,,,,,00035,2023-09-27_11h11.00.840,vbt_B2_day3,2022.2.4,MacIntel,59.87665409,,,,,,,,,,,,,,,,,,,,hust,images/br_hust.png,images/cb_hust.png,,hust ,,,,,,,,,,,0.386401367,0.089501953,1,0,1,hust ,0,11,11,23,1
,,,,,00035,2023-09-27_11h11.00.840,vbt_B2_day3,2022.2.4,MacIntel,59.87665409,,,,,,,,,,,,,,,,,,,,stallen,images/br_stallen.png,images/cb_stallen.png,,stallen,,,,,,,,,,,0.386401367,0.089501953,1,0,1,stallen,0,12,12,52,1
,,,,,00035,2023-09-27_11h11.00.840,vbt_B2_day3,2022.2.4,MacIntel,59.87665409,,,,,,,,,,,,,,,,,,,,twaaf,images/br_twaaf.png,images/cb_twaaf.png,,twaaf,,,,,,,,,,,0.386401367,0.089501953,1,0,1,twaaf,0,13,13,24,1
,,,,,00035,2023-09-27_11h11.00.840,vbt_B2_day3,2022.2.4,MacIntel,59.87665409,,,,,,,,,,,,,,,,,,,,onrecht,images/br_onrecht.png,images/cb_onrecht.png,,onrecht,,,,,,,,,,,0.607197266,0.11855957,1,0,1,onrecht,0,14,14,55,1
,,,,,00035,2023-09-27_11h11.00.840,vbt_B2_day3,2022.2.4,MacIntel,59.87665409,,,,,,,,,,,,,,,,,,,,gezond,images/br_gezond.png,images/cb_gezond.png,,gezond,,,,,,,,,,,0.607197266,0.11855957,1,0,1,gezond,0,15,15,11,1
,,,,,00035,2023-09-27_11h11.00.840,vbt_B2_day3,2022.2.4,MacIntel,59.87665409,,,,,,,,,,,,,,,,,,,,leugeren,images/br_leugeren.png,images/cb_leugeren.png,,leugeren ,,,,,,,,,,,0.381479492,0.16887207,1,0,1,leugeren ,0,16,16,37,1
,,,,,00035,2023-09-27_11h11.00.840,vbt_B2_day3,2022.2.4,MacIntel,59.87665409,,,,,,,,,,,,,,,,,,,,samen,images/br_samen.png,images/cb_samen.png,,samen,,,,,,,,,,,0.381479492,0.16887207,1,0,1,samen,0,17,17,7,1
,,,,,00035,2023-09-27_11h11.00.840,vbt_B2_day3,2022.2.4,MacIntel,59.87665409,,,,,,,,,,,,,,,,,,,,theeting,images/br_theeting.png,images/cb_theeting.png,,theeting ,,,,,,,,,,,0.361782227,0.183144531,1,0,1,theeting ,0,18,18,38,1
,,,,,00035,2023-09-27_11h11.00.840,vbt_B2_day3,2022.2.4,MacIntel,59.87665409,,,,,,,,,,,,,,,,,,,,verwoor,images/br_verwoor.png,images/cb_verwoor.png,,verwaar ,,,,,,,,,,,0.361782227,0.183144531,1,0,1,verwaar ,0,19,19,32,1
,,,,,00035,2023-09-27_11h11.00.840,vbt_B2_day3,2022.2.4,MacIntel,59.87665409,,,,,,,,,,,,,,,,,,,,kaas,images/br_kaas.png,images/cb_kaas.png,,kaas,,,,,,,,,,,0.432368164,0.241162109,1,0,1,kaas,0,20,20,42,1
,,,,,00035,2023-09-27_11h11.00.840,vbt_B2_day3,2022.2.4,MacIntel,59.87665409,,,,,,,,,,,,,,,,,,,,jongelui,images/br_jongelui.png,images/cb_jongelui.png,,?,,,,,,,,,,,0.499067383,0.082509766,1,0,1,?,0,21,21,59,1
,,,,,00035,2023-09-27_11h11.00.840,vbt_B2_day3,2022.2.4,MacIntel,59.87665409,,,,,,,,,,,,,,,,,,,,schatten,images/br_schatten.png,images/cb_schatten.png,,schatten ,,,,,,,,,,,0.46984375,0.153066406,1,0,1,schatten ,0,22,22,18,1
,,,,,00035,2023-09-27_11h11.00.840,vbt_B2_day3,2022.2.4,MacIntel,59.87665409,,,,,,,,,,,,,,,,,,,,slapen,images/br_slapen.png,images/cb_slapen.png,,slapen,,,,,,,,,,,0.100048828,-0.183193359,1,0,1,slapen,0,23,23,9,1
,,,,,00035,2023-09-27_11h11.00.840,vbt_B2_day3,2022.2.4,MacIntel,59.87665409,,,,,,,,,,,,,,,,,,,,afbopen,images/br_afbopen.png,images/cb_afbopen.png,,afbouwen,,,,,,,,,,,0.282255859,-0.060200195,1,0,1,afbouwen,0,24,24,34,1
,,,,,00035,2023-09-27_11h11.00.840,vbt_B2_day3,2022.2.4,MacIntel,59.87665409,,,,,,,,,,,,,,,,,,,,aarzelen,images/br_aarzelen.png,images/cb_aarzelen.png,,aarzelen,,,,,,,,,,,0.280058594,-0.014560547,1,0,1,aarzelen,0,25,25,19,1
,,,,,00035,2023-09-27_11h11.00.840,vbt_B2_day3,2022.2.4,MacIntel,59.87665409,,,,,,,,,,,,,,,,,,,,alsof,images/br_alsof.png,images/cb_alsof.png,,alsof,,,,,,,,,,,0.390615234,0.087758789,1,0,1,alsof,0,26,26,44,1
,,,,,00035,2023-09-27_11h11.00.840,vbt_B2_day3,2022.2.4,MacIntel,59.87665409,,,,,,,,,,,,,,,,,,,,verraden,images/br_verraden.png,images/cb_verraden.png,,verraden ,,,,,,,,,,,0.241850586,0.129907227,1,0,1,verraden ,0,27,27,58,1
,,,,,00035,2023-09-27_11h11.00.840,vbt_B2_day3,2022.2.4,MacIntel,59.87665409,,,,,,,,,,,,,,,,,,,,opzicht,images/br_opzicht.png,images/cb_opzicht.png,,opzicht ,,,,,,,,,,,0.428422852,-0.128779297,1,0,1,opzicht ,0,28,28,15,1
,,,,,00035,2023-09-27_11h11.00.840,vbt_B2_day3,2022.2.4,MacIntel,59.87665409,,,,,,,,,,,,,,,,,,,,leemaken,images/br_leemaken.png,images/cb_leemaken.png,,leemawen ,,,,,,,,,,,0.448671875,-0.039038086,1,0,1,leemawen ,0,29,29,39,1
,,,,,00035,2023-09-27_11h11.00.840,vbt_B2_day3,2022.2.4,MacIntel,59.87665409,,,,,,,,,,,,,,,,,,,,opzetten,images/br_opzetten.png,images/cb_opzetten.png,,opzetten,,,,,,,,,,,0.460371094,-0.028725586,1,0,1,opzetten,0,30,30,56,1
,,,,,00035,2023-09-27_11h11.00.840,vbt_B2_day3,2022.2.4,MacIntel,59.87665409,,,,,,,,,,,,,,,,,,,,schodel,images/br_schodel.png,images/cb_schodel.png,,schodel ,,,,,,,,,,,-0.01046875,-0.202416992,1,0,1,schodel ,0,31,31,33,1
,,,,,00035,2023-09-27_11h11.00.840,vbt_B2_day3,2022.2.4,MacIntel,59.87665409,,,,,,,,,,,,,,,,,,,,hint,images/br_hint.png,images/cb_hint.png,,?,,,,,,,,,,,0.083422852,-0.13487793,1,0,1,?,0,32,32,43,1
,,,,,00035,2023-09-27_11h11.00.840,vbt_B2_day3,2022.2.4,MacIntel,59.87665409,,,,,,,,,,,,,,,,,,,,stoom,images/br_stoom.png,images/cb_stoom.png,,stoom,,,,,,,,,,,0.043320312,-0.037285156,1,0,1,stoom,0,33,33,6,1
,,,,,00035,2023-09-27_11h11.00.840,vbt_B2_day3,2022.2.4,MacIntel,59.87665409,,,,,,,,,,,,,,,,,,,,mugeek,images/br_mugeek.png,images/cb_mugeek.png,,?,,,,,,,,,,,0.048491211,-0.023730469,1,0,1,?,0,34,34,29,1
,,,,,00035,2023-09-27_11h11.00.840,vbt_B2_day3,2022.2.4,MacIntel,59.87665409,,,,,,,,,,,,,,,,,,,,booien,images/br_booien.png,images/cb_booien.png,,,,,,,,,,,,,0.224321289,-0.078891602,1,0,1,,0,35,35,31,1
,,,,,00035,2023-09-27_11h11.00.840,vbt_B2_day3,2022.2.4,MacIntel,59.87665409,,,,,,,,,,,,,,,,,,,,croo,images/br_croo.png,images/cb_croo.png,,croo ,,,,,,,,,,,0.224321289,-0.078891602,1,0,1,croo ,0,36,36,22,1
,,,,,00035,2023-09-27_11h11.00.840,vbt_B2_day3,2022.2.4,MacIntel,59.87665409,,,,,,,,,,,,,,,,,,,,eens,images/br_eens.png,images/cb_eens.png,,eens,,,,,,,,,,,0.224321289,-0.078891602,1,0,1,eens,0,37,37,40,1
,,,,,00035,2023-09-27_11h11.00.840,vbt_B2_day3,2022.2.4,MacIntel,59.87665409,,,,,,,,,,,,,,,,,,,,gebod,images/br_gebod.png,images/cb_gebod.png,,gebod,,,,,,,,,,,0.224321289,-0.078891602,1,0,1,gebod,0,38,38,45,1
,,,,,00035,2023-09-27_11h11.00.840,vbt_B2_day3,2022.2.4,MacIntel,59.87665409,,,,,,,,,,,,,,,,,,,,kest,images/br_kest.png,images/cb_kest.png,,kist,,,,,,,,,,,0.224321289,-0.078891602,1,0,1,kist,0,39,39,21,1
,,,,,00035,2023-09-27_11h11.00.840,vbt_B2_day3,2022.2.4,MacIntel,59.87665409,,,,,,,,,,,,,,,,,,,,keihard,images/br_keihard.png,images/cb_keihard.png,,keihard,,,,,,,,,,,0.204575195,0.002856445,1,0,1,keihard,0,40,40,14,1
,,,,,00035,2023-09-27_11h11.00.840,vbt_B2_day3,2022.2.4,MacIntel,59.87665409,,,,,,,,,,,,,,,,,,,,boeien,images/br_boeien.png,images/cb_boeien.png,,boeien,,,,,,,,,,,0.204575195,0.002856445,1,0,1,boeien,0,41,41,8,1
,,,,,00035,2023-09-27_11h11.00.840,vbt_B2_day3,2022.2.4,MacIntel,59.87665409,,,,,,,,,,,,,,,,,,,,brappen,images/br_brappen.png,images/cb_brappen.png,,brappen ,,,,,,,,,,,-0.086787109,0.087402344,1,0,1,brappen ,0,42,42,35,1
,,,,,00035,2023-09-27_11h11.00.840,vbt_B2_day3,2022.2.4,MacIntel,59.87665409,,,,,,,,,,,,,,,,,,,,beslag,images/br_beslag.png,images/cb_beslag.png,,beslag,,,,,,,,,,,-0.165073242,0.24449707,1,0,1,beslag,0,43,43,51,1
,,,,,00035,2023-09-27_11h11.00.840,vbt_B2_day3,2022.2.4,MacIntel,59.87665409,,,,,,,,,,,,,,,,,,,,dwang,images/br_dwang.png,images/cb_dwang.png,,dwang,,,,,,,,,,,-0.250019531,0.240351563,1,0,1,dwang,0,44,44,47,1
,,,,,00035,2023-09-27_11h11.00.840,vbt_B2_day3,2022.2.4,MacIntel,59.87665409,,,,,,,,,,,,,,,,,,,,stikken,images/br_stikken.png,images/cb_stikken.png,,stikken,,,,,,,,,,,-0.250019531,0.240351563,1,0,1,stikken,0,45,45,54,1
,,,,,00035,2023-09-27_11h11.00.840,vbt_B2_day3,2022.2.4,MacIntel,59.87665409,,,,,,,,,,,,,,,,,,,,vlager,images/br_vlager.png,images/cb_vlager.png,,vlagen,,,,,,,,,,,-0.250019531,0.240351563,1,0,1,vlagen,0,46,46,28,1
,,,,,00035,2023-09-27_11h11.00.840,vbt_B2_day3,2022.2.4,MacIntel,59.87665409,,,,,,,,,,,,,,,,,,,,oprotten,images/br_oprotten.png,images/cb_oprotten.png,,oprotten,,,,,,,,,,,-0.254213867,0.231606445,1,0,1,oprotten,0,47,47,17,1
,,,,,00035,2023-09-27_11h11.00.840,vbt_B2_day3,2022.2.4,MacIntel,59.87665409,,,,,,,,,,,,,,,,,,,,hier,images/br_hier.png,images/cb_hier.png,,hier ,,,,,,,,,,,-0.092944336,0.33769043,1,0,1,hier ,0,48,48,1,1
,,,,,00035,2023-09-27_11h11.00.840,vbt_B2_day3,2022.2.4,MacIntel,59.87665409,,,,,,,,,,,,,,,,,,,,paken,images/br_paken.png,images/cb_paken.png,,paken ,,,,,,,,,,,-0.194638672,0.331166992,1,0,1,paken ,0,49,49,27,1
,,,,,00035,2023-09-27_11h11.00.840,vbt_B2_day3,2022.2.4,MacIntel,59.87665409,,,,,,,,,,,,,,,,,,,,knie,images/br_knie.png,images/cb_knie.png,,knie,,,,,,,,,,,-0.204550781,0.320336914,1,0,1,knie,0,50,50,0,1
,,,,,00035,2023-09-27_11h11.00.840,vbt_B2_day3,2022.2.4,MacIntel,59.87665409,,,,,,,,,,,,,,,,,,,,sluier,images/br_sluier.png,images/cb_sluier.png,,sluier ,,,,,,,,,,,-0.11168457,0.384541016,1,0,1,sluier ,0,51,51,50,1
,,,,,00035,2023-09-27_11h11.00.840,vbt_B2_day3,2022.2.4,MacIntel,59.87665409,,,,,,,,,,,,,,,,,,,,kwaas,images/br_kwaas.png,images/cb_kwaas.png,,kwaad ,,,,,,,,,,,-0.127143555,0.02902832,1,0,1,kwaad ,0,52,52,26,1
,,,,,00035,2023-09-27_11h11.00.840,vbt_B2_day3,2022.2.4,MacIntel,59.87665409,,,,,,,,,,,,,,,,,,,,sultan,images/br_sultan.png,images/cb_sultan.png,,sultan,,,,,,,,,,,0.224433594,0.027236328,1,0,1,sultan,0,53,53,49,1
,,,,,00035,2023-09-27_11h11.00.840,vbt_B2_day3,2022.2.4,MacIntel,59.87665409,,,,,,,,,,,,,,,,,,,,uviek,images/br_uviek.png,images/cb_uviek.png,,uniek ,,,,,,,,,,,0.261425781,0.033774414,1,0,1,uniek ,0,54,54,25,1
,,,,,00035,2023-09-27_11h11.00.840,vbt_B2_day3,2022.2.4,MacIntel,59.87665409,,,,,,,,,,,,,,,,,,,,invallen,images/br_invallen.png,images/cb_invallen.png,,?,,,,,,,,,,,0.059248047,-0.107436523,1,0,1,?,0,55,55,57,1
,,,,,00035,2023-09-27_11h11.00.840,vbt_B2_day3,2022.2.4,MacIntel,59.87665409,,,,,,,,,,,,,,,,,,,,uniek,images/br_uniek.png,images/cb_uniek.png,,uniek,,,,,,,,,,,0.362578125,0.03574707,1,0,1,uniek,0,56,56,46,1
,,,,,00035,2023-09-27_11h11.00.840,vbt_B2_day3,2022.2.4,MacIntel,59.87665409,,,,,,,,,,,,,,,,,,,,gout,images/br_gout.png,images/cb_gout.png,,gout ,,,,,,,,,,,0.210073242,0.030717773,1,0,1,gout ,0,57,57,20,1
,,,,,00035,2023-09-27_11h11.00.840,vbt_B2_day3,2022.2.4,MacIntel,59.87665409,,,,,,,,,,,,,,,,,,,,bevret,images/br_bevret.png,images/cb_bevret.png,,bevret ,,,,,,,,,,,-0.14684082,-0.048955078,1,0,1,bevret ,0,58,58,30,1
,,,,,00035,2023-09-27_11h11.00.840,vbt_B2_day3,2022.2.4,MacIntel,59.87665409,,,,,,,,,,,,,,,,,,,,bisschop,images/br_bisschop.png,images/cb_bisschop.png,,?,,,,,,,,,,,-0.054472656,0.029736328,1,0,1,?,0,59,59,16,1
,,,,,00035,2023-09-27_11h11.00.840,vbt_B2_day3,2022.2.4,MacIntel,59.87665409,,,,,,,,,,,,,,,,,,,,,,,,,,,,,,,,,,,,,,,,,,,,,
