welcome_mouse.x,welcome_mouse.y,welcome_mouse.leftButton,welcome_mouse.midButton,welcome_mouse.rightButton,"ID",date,expName,psychopyVersion,OS,frameRate,trainInstr_mouse.x,trainInstr_mouse.y,trainInstr_mouse.leftButton,trainInstr_mouse.midButton,trainInstr_mouse.rightButton,translation_key.keys,translation_key.corr,translation_key.rt,word_rsp.text,trWrd_mouse.x,trWrd_mouse.y,trWrd_mouse.leftButton,trWrd_mouse.midButton,trWrd_mouse.rightButton,train_loop.thisRepN,train_loop.thisTrialN,train_loop.thisN,train_loop.thisIndex,train_loop.ran,nlWrd,brWrd,cbWrd,test,testResp,mouse.x,mouse.y,mouse.leftButton,mouse.midButton,mouse.rightButton,testInstr_mouse.x,testInstr_mouse.y,testInstr_mouse.leftButton,testInstr_mouse.midButton,testInstr_mouse.rightButton,test_mouse.x,test_mouse.y,test_mouse.leftButton,test_mouse.midButton,test_mouse.rightButton,test_response.text,test_loop.thisRepN,test_loop.thisTrialN,test_loop.thisN,test_loop.thisIndex,test_loop.ran
-0.186111111,-0.283333333,1,0,0,00036,2023-09-28_19h14.39.538,vbt_B2_day3,2022.2.4,Win32,60.2373351,,,,,,,,,,,,,,,,,,,,,,,,,,,,,,,,,,,,,,,,,,,,,
,,,,,00036,2023-09-28_19h14.39.538,vbt_B2_day3,2022.2.4,Win32,60.2373351,-0.186111111,-0.283333333,1,0,0,,,,,,,,,,,,,,,,,,,,,,,,,,,,,,,,,,,,,,,,
,,,,,00036,2023-09-28_19h14.39.538,vbt_B2_day3,2022.2.4,Win32,60.2373351,,,,,,down,0,1.9734,,-0.186111111,-0.283333333,1,0,0,0,0,0,68,1,schat,images/br_schat.png,images/cb_schat.png,0,,,,,,,,,,,,,,,,,,,,,,
,,,,,00036,2023-09-28_19h14.39.538,vbt_B2_day3,2022.2.4,Win32,60.2373351,,,,,,down,0,0.1503,,-0.186111111,-0.283333333,1,0,0,0,1,1,109,1,totaal,images/br_totaal.png,images/cb_totaal.png,0,,,,,,,,,,,,,,,,,,,,,,
,,,,,00036,2023-09-28_19h14.39.538,vbt_B2_day3,2022.2.4,Win32,60.2373351,,,,,,down,0,0.4886,,-0.186111111,-0.283333333,1,0,0,0,2,2,79,1,nodig,images/br_nodig.png,images/cb_nodig.png,0,,,,,,,,,,,,,,,,,,,,,,
,,,,,00036,2023-09-28_19h14.39.538,vbt_B2_day3,2022.2.4,Win32,60.2373351,,,,,,down,0,0.4846,,-0.186111111,-0.283333333,1,0,0,0,3,3,187,1,opkijken,images/br_opkijken.png,images/cb_opkijken.png,0,,,,,,,,,,,,,,,,,,,,,,
,,,,,00036,2023-09-28_19h14.39.538,vbt_B2_day3,2022.2.4,Win32,60.2373351,,,,,,down,0,6.7174,,-0.186111111,-0.283333333,1,0,0,0,4,4,100,1,geduld,images/br_geduld.png,images/cb_geduld.png,1,gejlj,,,,,,,,,,,,,,,,,,,,,
,,,,,00036,2023-09-28_19h14.39.538,vbt_B2_day3,2022.2.4,Win32,60.2373351,,,,,,down,0,0.573,,-0.186111111,-0.283333333,1,0,0,0,5,5,31,1,poes,images/br_poes.png,images/cb_poes.png,0,,,,,,,,,,,,,,,,,,,,,,
,,,,,00036,2023-09-28_19h14.39.538,vbt_B2_day3,2022.2.4,Win32,60.2373351,,,,,,down,0,0.0546,,-0.186111111,-0.283333333,1,0,0,0,6,6,83,1,mening,images/br_mening.png,images/cb_mening.png,0,,,,,,,,,,,,,,,,,,,,,,
,,,,,00036,2023-09-28_19h14.39.538,vbt_B2_day3,2022.2.4,Win32,60.2373351,,,,,,down,0,0.3633,,-0.186111111,-0.283333333,1,0,0,0,7,7,157,1,uitlaat,images/br_uitlaat.png,images/cb_uitlaat.png,0,,,,,,,,,,,,,,,,,,,,,,
,,,,,00036,2023-09-28_19h14.39.538,vbt_B2_day3,2022.2.4,Win32,60.2373351,,,,,,down,0,5.4759,,-0.186111111,-0.283333333,1,0,0,0,8,8,49,1,laken,images/br_laken.png,images/cb_laken.png,0,,,,,,,,,,,,,,,,,,,,,,
,,,,,00036,2023-09-28_19h14.39.538,vbt_B2_day3,2022.2.4,Win32,60.2373351,,,,,,down,0,8.2828,,-0.186111111,-0.283333333,1,0,0,0,9,9,183,1,getuigen,images/br_getuigen.png,images/cb_getuigen.png,1,getuigen,,,,,,,,,,,,,,,,,,,,,
,,,,,00036,2023-09-28_19h14.39.538,vbt_B2_day3,2022.2.4,Win32,60.2373351,,,,,,down,0,1.0104,,-0.186111111,-0.283333333,1,0,0,0,10,10,43,1,klauw,images/br_klauw.png,images/cb_klauw.png,0,,,,,,,,,,,,,,,,,,,,,,
,,,,,00036,2023-09-28_19h14.39.538,vbt_B2_day3,2022.2.4,Win32,60.2373351,,,,,,down,0,0.1097,,-0.186111111,-0.283333333,1,0,0,0,11,11,99,1,koffie,images/br_koffie.png,images/cb_koffie.png,0,,,,,,,,,,,,,,,,,,,,,,
,,,,,00036,2023-09-28_19h14.39.538,vbt_B2_day3,2022.2.4,Win32,60.2373351,,,,,,down,0,0.7141,,-0.186111111,-0.283333333,1,0,0,0,12,12,126,1,kasteel,images/br_kasteel.png,images/cb_kasteel.png,0,,,,,,,,,,,,,,,,,,,,,,
,,,,,00036,2023-09-28_19h14.39.538,vbt_B2_day3,2022.2.4,Win32,60.2373351,,,,,,down,0,2.1005,,-0.186111111,-0.283333333,1,0,0,0,13,13,29,1,baas,images/br_baas.png,images/cb_baas.png,0,,,,,,,,,,,,,,,,,,,,,,
,,,,,00036,2023-09-28_19h14.39.538,vbt_B2_day3,2022.2.4,Win32,60.2373351,,,,,,down,0,0.6571,,-0.186111111,-0.283333333,1,0,0,0,14,14,10,1,leek,images/br_leek.png,images/cb_leek.png,0,,,,,,,,,,,,,,,,,,,,,,
,,,,,00036,2023-09-28_19h14.39.538,vbt_B2_day3,2022.2.4,Win32,60.2373351,,,,,,down,0,1.0007,,-0.186111111,-0.283333333,1,0,0,0,15,15,64,1,wegen,images/br_wegen.png,images/cb_wegen.png,0,,,,,,,,,,,,,,,,,,,,,,
,,,,,00036,2023-09-28_19h14.39.538,vbt_B2_day3,2022.2.4,Win32,60.2373351,,,,,,down,0,0.9005,,-0.186111111,-0.283333333,1,0,0,0,16,16,188,1,strekken,images/br_strekken.png,images/cb_strekken.png,0,,,,,,,,,,,,,,,,,,,,,,
,,,,,00036,2023-09-28_19h14.39.538,vbt_B2_day3,2022.2.4,Win32,60.2373351,,,,,,down,0,0.1662,,-0.186111111,-0.283333333,1,0,0,0,17,17,75,1,snoep,images/br_snoep.png,images/cb_snoep.png,0,,,,,,,,,,,,,,,,,,,,,,
,,,,,00036,2023-09-28_19h14.39.538,vbt_B2_day3,2022.2.4,Win32,60.2373351,,,,,,down,0,4.2383,,-0.186111111,-0.283333333,1,0,0,0,18,18,21,1,mist,images/br_mist.png,images/cb_mist.png,1,mest,,,,,,,,,,,,,,,,,,,,,
,,,,,00036,2023-09-28_19h14.39.538,vbt_B2_day3,2022.2.4,Win32,60.2373351,,,,,,down,0,0.1176,,-0.186111111,-0.283333333,1,0,0,0,19,19,98,1,kreeft,images/br_kreeft.png,images/cb_kreeft.png,0,,,,,,,,,,,,,,,,,,,,,,
,,,,,00036,2023-09-28_19h14.39.538,vbt_B2_day3,2022.2.4,Win32,60.2373351,,,,,,down,0,0.2462,,-0.186111111,-0.283333333,1,0,0,0,20,20,120,1,klimmen,images/br_klimmen.png,images/cb_klimmen.png,0,,,,,,,,,,,,,,,,,,,,,,
,,,,,00036,2023-09-28_19h14.39.538,vbt_B2_day3,2022.2.4,Win32,60.2373351,,,,,,down,0,0.01,,-0.186111111,-0.283333333,1,0,0,0,21,21,190,1,goedkoop,images/br_goedkoop.png,images/cb_goedkoop.png,0,,,,,,,,,,,,,,,,,,,,,,
,,,,,00036,2023-09-28_19h14.39.538,vbt_B2_day3,2022.2.4,Win32,60.2373351,,,,,,down,0,0.5251,,-0.186111111,-0.283333333,1,0,0,0,22,22,48,1,steel,images/br_steel.png,images/cb_steel.png,0,,,,,,,,,,,,,,,,,,,,,,
,,,,,00036,2023-09-28_19h14.39.538,vbt_B2_day3,2022.2.4,Win32,60.2373351,,,,,,down,0,0.0395,,-0.186111111,-0.283333333,1,0,0,0,23,23,51,1,samen,images/br_samen.png,images/cb_samen.png,0,,,,,,,,,,,,,,,,,,,,,,
,,,,,00036,2023-09-28_19h14.39.538,vbt_B2_day3,2022.2.4,Win32,60.2373351,,,,,,down,0,14.7984,,-0.186111111,-0.283333333,1,0,0,0,24,24,140,1,blijven,images/br_blijven.png,images/cb_blijven.png,1,blijven,,,,,,,,,,,,,,,,,,,,,
,,,,,00036,2023-09-28_19h14.39.538,vbt_B2_day3,2022.2.4,Win32,60.2373351,,,,,,down,0,0.0336,,-0.186111111,-0.283333333,1,0,0,0,25,25,15,1,soda,images/br_soda.png,images/cb_soda.png,0,,,,,,,,,,,,,,,,,,,,,,
,,,,,00036,2023-09-28_19h14.39.538,vbt_B2_day3,2022.2.4,Win32,60.2373351,,,,,,down,0,0.7236,,-0.186111111,-0.283333333,1,0,0,0,26,26,35,1,lust,images/br_lust.png,images/cb_lust.png,0,,,,,,,,,,,,,,,,,,,,,,
,,,,,00036,2023-09-28_19h14.39.538,vbt_B2_day3,2022.2.4,Win32,60.2373351,,,,,,down,0,0.345,,-0.186111111,-0.283333333,1,0,0,0,27,27,144,1,eetlust,images/br_eetlust.png,images/cb_eetlust.png,0,,,,,,,,,,,,,,,,,,,,,,
,,,,,00036,2023-09-28_19h14.39.538,vbt_B2_day3,2022.2.4,Win32,60.2373351,,,,,,down,0,0.4173,,-0.186111111,-0.283333333,1,0,0,0,28,28,65,1,parel,images/br_parel.png,images/cb_parel.png,0,,,,,,,,,,,,,,,,,,,,,,
,,,,,00036,2023-09-28_19h14.39.538,vbt_B2_day3,2022.2.4,Win32,60.2373351,,,,,,down,0,2.9894,,-0.186111111,-0.283333333,1,0,0,0,29,29,22,1,stof,images/br_stof.png,images/cb_stof.png,1,stof,,,,,,,,,,,,,,,,,,,,,
,,,,,00036,2023-09-28_19h14.39.538,vbt_B2_day3,2022.2.4,Win32,60.2373351,,,,,,down,0,1.0378,,-0.186111111,-0.283333333,1,0,0,0,30,30,27,1,dans,images/br_dans.png,images/cb_dans.png,0,,,,,,,,,,,,,,,,,,,,,,
,,,,,00036,2023-09-28_19h14.39.538,vbt_B2_day3,2022.2.4,Win32,60.2373351,,,,,,down,0,3.2841,,-0.186111111,-0.283333333,1,0,0,0,31,31,102,1,legaal,images/br_legaal.png,images/cb_legaal.png,1,legaal,,,,,,,,,,,,,,,,,,,,,
,,,,,00036,2023-09-28_19h14.39.538,vbt_B2_day3,2022.2.4,Win32,60.2373351,,,,,,down,0,5.135,,-0.186111111,-0.283333333,1,0,0,0,32,32,60,1,jasje,images/br_jasje.png,images/cb_jasje.png,1,jasje,,,,,,,,,,,,,,,,,,,,,
,,,,,00036,2023-09-28_19h14.39.538,vbt_B2_day3,2022.2.4,Win32,60.2373351,,,,,,down,0,0.1523,,-0.186111111,-0.283333333,1,0,0,0,33,33,174,1,stemming,images/br_stemming.png,images/cb_stemming.png,0,,,,,,,,,,,,,,,,,,,,,,
,,,,,00036,2023-09-28_19h14.39.538,vbt_B2_day3,2022.2.4,Win32,60.2373351,,,,,,down,0,0.4879,,-0.186111111,-0.283333333,1,0,0,0,34,34,171,1,aarzelen,images/br_aarzelen.png,images/cb_aarzelen.png,0,,,,,,,,,,,,,,,,,,,,,,
,,,,,00036,2023-09-28_19h14.39.538,vbt_B2_day3,2022.2.4,Win32,60.2373351,,,,,,down,0,0.527,,-0.186111111,-0.283333333,1,0,0,0,35,35,92,1,geheim,images/br_geheim.png,images/cb_geheim.png,0,,,,,,,,,,,,,,,,,,,,,,
,,,,,00036,2023-09-28_19h14.39.538,vbt_B2_day3,2022.2.4,Win32,60.2373351,,,,,,down,0,0.1275,,-0.186111111,-0.283333333,1,0,0,0,36,36,105,1,wijlen,images/br_wijlen.png,images/cb_wijlen.png,0,,,,,,,,,,,,,,,,,,,,,,
,,,,,00036,2023-09-28_19h14.39.538,vbt_B2_day3,2022.2.4,Win32,60.2373351,,,,,,down,0,0.0471,,-0.186111111,-0.283333333,1,0,0,0,37,37,163,1,schuilen,images/br_schuilen.png,images/cb_schuilen.png,0,,,,,,,,,,,,,,,,,,,,,,
,,,,,00036,2023-09-28_19h14.39.538,vbt_B2_day3,2022.2.4,Win32,60.2373351,,,,,,down,0,0.1214,,-0.186111111,-0.283333333,1,0,0,0,38,38,95,1,vreten,images/br_vreten.png,images/cb_vreten.png,0,,,,,,,,,,,,,,,,,,,,,,
,,,,,00036,2023-09-28_19h14.39.538,vbt_B2_day3,2022.2.4,Win32,60.2373351,,,,,,down,0,0.2348,,-0.186111111,-0.283333333,1,0,0,0,39,39,74,1,graaf,images/br_graaf.png,images/cb_graaf.png,0,,,,,,,,,,,,,,,,,,,,,,
,,,,,00036,2023-09-28_19h14.39.538,vbt_B2_day3,2022.2.4,Win32,60.2373351,,,,,,down,0,0.0674,,-0.186111111,-0.283333333,1,0,0,0,40,40,11,1,mode,images/br_mode.png,images/cb_mode.png,0,,,,,,,,,,,,,,,,,,,,,,
,,,,,00036,2023-09-28_19h14.39.538,vbt_B2_day3,2022.2.4,Win32,60.2373351,,,,,,down,0,0.1641,,-0.186111111,-0.283333333,1,0,0,0,41,41,111,1,ticket,images/br_ticket.png,images/cb_ticket.png,0,,,,,,,,,,,,,,,,,,,,,,
,,,,,00036,2023-09-28_19h14.39.538,vbt_B2_day3,2022.2.4,Win32,60.2373351,,,,,,down,0,0.9843,,-0.186111111,-0.283333333,1,0,0,0,42,42,9,1,hier,images/br_hier.png,images/cb_hier.png,0,,,,,,,,,,,,,,,,,,,,,,
,,,,,00036,2023-09-28_19h14.39.538,vbt_B2_day3,2022.2.4,Win32,60.2373351,,,,,,down,0,0.3467,,-0.186111111,-0.283333333,1,0,0,0,43,43,116,1,besmet,images/br_besmet.png,images/cb_besmet.png,0,,,,,,,,,,,,,,,,,,,,,,
,,,,,00036,2023-09-28_19h14.39.538,vbt_B2_day3,2022.2.4,Win32,60.2373351,,,,,,down,0,0.2472,,-0.186111111,-0.283333333,1,0,0,0,44,44,162,1,uitdelen,images/br_uitdelen.png,images/cb_uitdelen.png,0,,,,,,,,,,,,,,,,,,,,,,
,,,,,00036,2023-09-28_19h14.39.538,vbt_B2_day3,2022.2.4,Win32,60.2373351,,,,,,down,0,0.2232,,-0.186111111,-0.283333333,1,0,0,0,45,45,172,1,weigeren,images/br_weigeren.png,images/cb_weigeren.png,0,,,,,,,,,,,,,,,,,,,,,,
,,,,,00036,2023-09-28_19h14.39.538,vbt_B2_day3,2022.2.4,Win32,60.2373351,,,,,,down,0,2.4583,,-0.186111111,-0.283333333,1,0,0,0,46,46,19,1,geit,images/br_geit.png,images/cb_geit.png,0,,,,,,,,,,,,,,,,,,,,,,
,,,,,00036,2023-09-28_19h14.39.538,vbt_B2_day3,2022.2.4,Win32,60.2373351,,,,,,down,0,28.2159,,-0.186111111,-0.283333333,1,0,0,0,47,47,142,1,snuiven,images/br_snuiven.png,images/cb_snuiven.png,1,,,,,,,,,,,,,,,,,,,,,,
,,,,,00036,2023-09-28_19h14.39.538,vbt_B2_day3,2022.2.4,Win32,60.2373351,,,,,,down,0,0.7188,,-0.186111111,-0.283333333,1,0,0,0,48,48,146,1,opkomen,images/br_opkomen.png,images/cb_opkomen.png,0,,,,,,,,,,,,,,,,,,,,,,
,,,,,00036,2023-09-28_19h14.39.538,vbt_B2_day3,2022.2.4,Win32,60.2373351,,,,,,down,0,0.2552,,-0.186111111,-0.283333333,1,0,0,0,49,49,150,1,gegeven,images/br_gegeven.png,images/cb_gegeven.png,0,,,,,,,,,,,,,,,,,,,,,,
,,,,,00036,2023-09-28_19h14.39.538,vbt_B2_day3,2022.2.4,Win32,60.2373351,,,,,,down,0,0.1406,,-0.186111111,-0.283333333,1,0,0,0,50,50,118,1,vinger,images/br_vinger.png,images/cb_vinger.png,0,,,,,,,,,,,,,,,,,,,,,,
,,,,,00036,2023-09-28_19h14.39.538,vbt_B2_day3,2022.2.4,Win32,60.2373351,,,,,,down,0,0.1992,,-0.186111111,-0.283333333,1,0,0,0,51,51,72,1,strak,images/br_strak.png,images/cb_strak.png,0,,,,,,,,,,,,,,,,,,,,,,
,,,,,00036,2023-09-28_19h14.39.538,vbt_B2_day3,2022.2.4,Win32,60.2373351,,,,,,down,0,0.3466,,-0.186111111,-0.283333333,1,0,0,0,52,52,115,1,kleren,images/br_kleren.png,images/cb_kleren.png,0,,,,,,,,,,,,,,,,,,,,,,
,,,,,00036,2023-09-28_19h14.39.538,vbt_B2_day3,2022.2.4,Win32,60.2373351,,,,,,down,0,0.4907,,-0.186111111,-0.283333333,1,0,0,0,53,53,14,1,rijp,images/br_rijp.png,images/cb_rijp.png,0,,,,,,,,,,,,,,,,,,,,,,
,,,,,00036,2023-09-28_19h14.39.538,vbt_B2_day3,2022.2.4,Win32,60.2373351,,,,,,down,0,13.0559,,-0.186111111,-0.283333333,1,0,0,0,54,54,141,1,knielen,images/br_knielen.png,images/cb_knielen.png,1,ksieles,,,,,,,,,,,,,,,,,,,,,
,,,,,00036,2023-09-28_19h14.39.538,vbt_B2_day3,2022.2.4,Win32,60.2373351,,,,,,down,0,0.2764,,-0.186111111,-0.283333333,1,0,0,0,55,55,119,1,liefje,images/br_liefje.png,images/cb_liefje.png,0,,,,,,,,,,,,,,,,,,,,,,
,,,,,00036,2023-09-28_19h14.39.538,vbt_B2_day3,2022.2.4,Win32,60.2373351,,,,,,down,0,0.2835,,-0.186111111,-0.283333333,1,0,0,0,56,56,7,1,geld,images/br_geld.png,images/cb_geld.png,0,,,,,,,,,,,,,,,,,,,,,,
,,,,,00036,2023-09-28_19h14.39.538,vbt_B2_day3,2022.2.4,Win32,60.2373351,,,,,,down,0,0.0734,,-0.186111111,-0.283333333,1,0,0,0,57,57,148,1,smullen,images/br_smullen.png,images/cb_smullen.png,0,,,,,,,,,,,,,,,,,,,,,,
,,,,,00036,2023-09-28_19h14.39.538,vbt_B2_day3,2022.2.4,Win32,60.2373351,,,,,,down,0,0.1005,,-0.186111111,-0.283333333,1,0,0,0,58,58,196,1,nakijken,images/br_nakijken.png,images/cb_nakijken.png,0,,,,,,,,,,,,,,,,,,,,,,
,,,,,00036,2023-09-28_19h14.39.538,vbt_B2_day3,2022.2.4,Win32,60.2373351,,,,,,down,0,0.3971,,-0.186111111,-0.283333333,1,0,0,0,59,59,50,1,stoom,images/br_stoom.png,images/cb_stoom.png,0,,,,,,,,,,,,,,,,,,,,,,
,,,,,00036,2023-09-28_19h14.39.538,vbt_B2_day3,2022.2.4,Win32,60.2373351,,,,,,down,0,0.3339,,-0.186111111,-0.283333333,1,0,0,0,60,60,26,1,leuk,images/br_leuk.png,images/cb_leuk.png,0,,,,,,,,,,,,,,,,,,,,,,
,,,,,00036,2023-09-28_19h14.39.538,vbt_B2_day3,2022.2.4,Win32,60.2373351,,,,,,down,0,0.3217,,-0.186111111,-0.283333333,1,0,0,0,61,61,110,1,zuster,images/br_zuster.png,images/cb_zuster.png,0,,,,,,,,,,,,,,,,,,,,,,
,,,,,00036,2023-09-28_19h14.39.538,vbt_B2_day3,2022.2.4,Win32,60.2373351,,,,,,down,0,0.4385,,-0.186111111,-0.283333333,1,0,0,0,62,62,154,1,aflopen,images/br_aflopen.png,images/cb_aflopen.png,0,,,,,,,,,,,,,,,,,,,,,,
,,,,,00036,2023-09-28_19h14.39.538,vbt_B2_day3,2022.2.4,Win32,60.2373351,,,,,,down,0,0.8117,,-0.186111111,-0.283333333,1,0,0,0,63,63,151,1,aanzoek,images/br_aanzoek.png,images/cb_aanzoek.png,0,,,,,,,,,,,,,,,,,,,,,,
,,,,,00036,2023-09-28_19h14.39.538,vbt_B2_day3,2022.2.4,Win32,60.2373351,,,,,,down,0,0.0738,,-0.186111111,-0.283333333,1,0,0,0,64,64,122,1,waarvan,images/br_waarvan.png,images/cb_waarvan.png,0,,,,,,,,,,,,,,,,,,,,,,
,,,,,00036,2023-09-28_19h14.39.538,vbt_B2_day3,2022.2.4,Win32,60.2373351,,,,,,down,0,5.6332,,-0.186111111,-0.283333333,1,0,0,0,65,65,103,1,joggen,images/br_joggen.png,images/cb_joggen.png,1,joggen,,,,,,,,,,,,,,,,,,,,,
,,,,,00036,2023-09-28_19h14.39.538,vbt_B2_day3,2022.2.4,Win32,60.2373351,,,,,,down,0,0.4367,,-0.186111111,-0.283333333,1,0,0,0,66,66,179,1,woestijn,images/br_woestijn.png,images/cb_woestijn.png,0,,,,,,,,,,,,,,,,,,,,,,
,,,,,00036,2023-09-28_19h14.39.538,vbt_B2_day3,2022.2.4,Win32,60.2373351,,,,,,down,0,0.3373,,-0.186111111,-0.283333333,1,0,0,0,67,67,191,1,opheffen,images/br_opheffen.png,images/cb_opheffen.png,0,,,,,,,,,,,,,,,,,,,,,,
,,,,,00036,2023-09-28_19h14.39.538,vbt_B2_day3,2022.2.4,Win32,60.2373351,,,,,,down,0,0.2856,,-0.186111111,-0.283333333,1,0,0,0,68,68,198,1,bedoelen,images/br_bedoelen.png,images/cb_bedoelen.png,0,,,,,,,,,,,,,,,,,,,,,,
,,,,,00036,2023-09-28_19h14.39.538,vbt_B2_day3,2022.2.4,Win32,60.2373351,,,,,,down,0,0.4663,,-0.186111111,-0.283333333,1,0,0,0,69,69,108,1,excuus,images/br_excuus.png,images/cb_excuus.png,0,,,,,,,,,,,,,,,,,,,,,,
,,,,,00036,2023-09-28_19h14.39.538,vbt_B2_day3,2022.2.4,Win32,60.2373351,,,,,,down,0,0.2436,,-0.186111111,-0.283333333,1,0,0,0,70,70,158,1,innemen,images/br_innemen.png,images/cb_innemen.png,0,,,,,,,,,,,,,,,,,,,,,,
,,,,,00036,2023-09-28_19h14.39.538,vbt_B2_day3,2022.2.4,Win32,60.2373351,,,,,,down,0,0.6588,,-0.186111111,-0.283333333,1,0,0,0,71,71,34,1,vorm,images/br_vorm.png,images/cb_vorm.png,0,,,,,,,,,,,,,,,,,,,,,,
,,,,,00036,2023-09-28_19h14.39.538,vbt_B2_day3,2022.2.4,Win32,60.2373351,,,,,,down,0,0.2836,,-0.186111111,-0.283333333,1,0,0,0,72,72,36,1,vuur,images/br_vuur.png,images/cb_vuur.png,0,,,,,,,,,,,,,,,,,,,,,,
,,,,,00036,2023-09-28_19h14.39.538,vbt_B2_day3,2022.2.4,Win32,60.2373351,,,,,,down,0,0.2808,,-0.186111111,-0.283333333,1,0,0,0,73,73,56,1,traag,images/br_traag.png,images/cb_traag.png,0,,,,,,,,,,,,,,,,,,,,,,
,,,,,00036,2023-09-28_19h14.39.538,vbt_B2_day3,2022.2.4,Win32,60.2373351,,,,,,down,0,6.3493,,-0.186111111,-0.283333333,1,0,0,0,74,74,23,1,zout,images/br_zout.png,images/cb_zout.png,1,sout,,,,,,,,,,,,,,,,,,,,,
,,,,,00036,2023-09-28_19h14.39.538,vbt_B2_day3,2022.2.4,Win32,60.2373351,,,,,,down,0,0.2879,,-0.186111111,-0.283333333,1,0,0,0,75,75,156,1,rechten,images/br_rechten.png,images/cb_rechten.png,0,,,,,,,,,,,,,,,,,,,,,,
,,,,,00036,2023-09-28_19h14.39.538,vbt_B2_day3,2022.2.4,Win32,60.2373351,,,,,,down,0,0.3507,,-0.186111111,-0.283333333,1,0,0,0,76,76,46,1,jagen,images/br_jagen.png,images/cb_jagen.png,0,,,,,,,,,,,,,,,,,,,,,,
,,,,,00036,2023-09-28_19h14.39.538,vbt_B2_day3,2022.2.4,Win32,60.2373351,,,,,,down,0,0.2241,,-0.186111111,-0.283333333,1,0,0,0,77,77,195,1,middelen,images/br_middelen.png,images/cb_middelen.png,0,,,,,,,,,,,,,,,,,,,,,,
,,,,,00036,2023-09-28_19h14.39.538,vbt_B2_day3,2022.2.4,Win32,60.2373351,,,,,,down,0,0.6004,,-0.186111111,-0.283333333,1,0,0,0,78,78,155,1,gerucht,images/br_gerucht.png,images/cb_gerucht.png,0,,,,,,,,,,,,,,,,,,,,,,
,,,,,00036,2023-09-28_19h14.39.538,vbt_B2_day3,2022.2.4,Win32,60.2373351,,,,,,down,0,0.4167,,-0.186111111,-0.283333333,1,0,0,0,79,79,130,1,keihard,images/br_keihard.png,images/cb_keihard.png,0,,,,,,,,,,,,,,,,,,,,,,
,,,,,00036,2023-09-28_19h14.39.538,vbt_B2_day3,2022.2.4,Win32,60.2373351,,,,,,down,0,0.3556,,-0.186111111,-0.283333333,1,0,0,0,80,80,44,1,flits,images/br_flits.png,images/cb_flits.png,0,,,,,,,,,,,,,,,,,,,,,,
,,,,,00036,2023-09-28_19h14.39.538,vbt_B2_day3,2022.2.4,Win32,60.2373351,,,,,,down,0,0.3869,,-0.186111111,-0.283333333,1,0,0,0,81,81,1,1,zaal,images/br_zaal.png,images/cb_zaal.png,0,,,,,,,,,,,,,,,,,,,,,,
,,,,,00036,2023-09-28_19h14.39.538,vbt_B2_day3,2022.2.4,Win32,60.2373351,,,,,,down,0,0.6424,,-0.186111111,-0.283333333,1,0,0,0,82,82,24,1,jurk,images/br_jurk.png,images/cb_jurk.png,0,,,,,,,,,,,,,,,,,,,,,,
,,,,,00036,2023-09-28_19h14.39.538,vbt_B2_day3,2022.2.4,Win32,60.2373351,,,,,,down,0,0.3673,,-0.186111111,-0.283333333,1,0,0,0,83,83,25,1,plek,images/br_plek.png,images/cb_plek.png,0,,,,,,,,,,,,,,,,,,,,,,
,,,,,00036,2023-09-28_19h14.39.538,vbt_B2_day3,2022.2.4,Win32,60.2373351,,,,,,down,0,0.934,,-0.186111111,-0.283333333,1,0,0,0,84,84,45,1,piste,images/br_piste.png,images/cb_piste.png,0,,,,,,,,,,,,,,,,,,,,,,
,,,,,00036,2023-09-28_19h14.39.538,vbt_B2_day3,2022.2.4,Win32,60.2373351,,,,,,down,0,0.4486,,-0.186111111,-0.283333333,1,0,0,0,85,85,81,1,dubbel,images/br_dubbel.png,images/cb_dubbel.png,0,,,,,,,,,,,,,,,,,,,,,,
,,,,,00036,2023-09-28_19h14.39.538,vbt_B2_day3,2022.2.4,Win32,60.2373351,,,,,,down,0,0.0656,,-0.186111111,-0.283333333,1,0,0,0,86,86,117,1,kennis,images/br_kennis.png,images/cb_kennis.png,0,,,,,,,,,,,,,,,,,,,,,,
,,,,,00036,2023-09-28_19h14.39.538,vbt_B2_day3,2022.2.4,Win32,60.2373351,,,,,,down,0,0.5284,,-0.186111111,-0.283333333,1,0,0,0,87,87,28,1,stal,images/br_stal.png,images/cb_stal.png,0,,,,,,,,,,,,,,,,,,,,,,
,,,,,00036,2023-09-28_19h14.39.538,vbt_B2_day3,2022.2.4,Win32,60.2373351,,,,,,down,0,0.3348,,-0.186111111,-0.283333333,1,0,0,0,88,88,132,1,grappen,images/br_grappen.png,images/cb_grappen.png,0,,,,,,,,,,,,,,,,,,,,,,
,,,,,00036,2023-09-28_19h14.39.538,vbt_B2_day3,2022.2.4,Win32,60.2373351,,,,,,down,0,0.959,,-0.186111111,-0.283333333,1,0,0,0,89,89,123,1,hiervan,images/br_hiervan.png,images/cb_hiervan.png,0,,,,,,,,,,,,,,,,,,,,,,
,,,,,00036,2023-09-28_19h14.39.538,vbt_B2_day3,2022.2.4,Win32,60.2373351,,,,,,down,0,1.8998,,-0.186111111,-0.283333333,1,0,0,0,90,90,138,1,akkoord,images/br_akkoord.png,images/cb_akkoord.png,0,,,,,,,,,,,,,,,,,,,,,,
,,,,,00036,2023-09-28_19h14.39.538,vbt_B2_day3,2022.2.4,Win32,60.2373351,,,,,,down,0,0.3351,,-0.186111111,-0.283333333,1,0,0,0,91,91,113,1,koppen,images/br_koppen.png,images/cb_koppen.png,0,,,,,,,,,,,,,,,,,,,,,,
,,,,,00036,2023-09-28_19h14.39.538,vbt_B2_day3,2022.2.4,Win32,60.2373351,,,,,,down,0,0.181,,-0.186111111,-0.283333333,1,0,0,0,92,92,152,1,afnemen,images/br_afnemen.png,images/cb_afnemen.png,0,,,,,,,,,,,,,,,,,,,,,,
,,,,,00036,2023-09-28_19h14.39.538,vbt_B2_day3,2022.2.4,Win32,60.2373351,,,,,,down,0,0.3993,,-0.186111111,-0.283333333,1,0,0,0,93,93,39,1,laag,images/br_laag.png,images/cb_laag.png,0,,,,,,,,,,,,,,,,,,,,,,
,,,,,00036,2023-09-28_19h14.39.538,vbt_B2_day3,2022.2.4,Win32,60.2373351,,,,,,down,0,0.2278,,-0.186111111,-0.283333333,1,0,0,0,94,94,178,1,huisdier,images/br_huisdier.png,images/cb_huisdier.png,0,,,,,,,,,,,,,,,,,,,,,,
,,,,,00036,2023-09-28_19h14.39.538,vbt_B2_day3,2022.2.4,Win32,60.2373351,,,,,,down,0,0.2152,,-0.186111111,-0.283333333,1,0,0,0,95,95,125,1,aanzien,images/br_aanzien.png,images/cb_aanzien.png,0,,,,,,,,,,,,,,,,,,,,,,
,,,,,00036,2023-09-28_19h14.39.538,vbt_B2_day3,2022.2.4,Win32,60.2373351,,,,,,down,0,0.0667,,-0.186111111,-0.283333333,1,0,0,0,96,96,5,1,blad,images/br_blad.png,images/cb_blad.png,0,,,,,,,,,,,,,,,,,,,,,,
,,,,,00036,2023-09-28_19h14.39.538,vbt_B2_day3,2022.2.4,Win32,60.2373351,,,,,,down,0,0.1668,,-0.186111111,-0.283333333,1,0,0,0,97,97,149,1,redding,images/br_redding.png,images/cb_redding.png,0,,,,,,,,,,,,,,,,,,,,,,
,,,,,00036,2023-09-28_19h14.39.538,vbt_B2_day3,2022.2.4,Win32,60.2373351,,,,,,down,0,8.7432,,-0.186111111,-0.283333333,1,0,0,0,98,98,180,1,openbaar,images/br_openbaar.png,images/cb_openbaar.png,1,opesbaar,,,,,,,,,,,,,,,,,,,,,
,,,,,00036,2023-09-28_19h14.39.538,vbt_B2_day3,2022.2.4,Win32,60.2373351,,,,,,down,0,0.4505,,-0.186111111,-0.283333333,1,0,0,0,99,99,186,1,voorraad,images/br_voorraad.png,images/cb_voorraad.png,0,,,,,,,,,,,,,,,,,,,,,,
,,,,,00036,2023-09-28_19h14.39.538,vbt_B2_day3,2022.2.4,Win32,60.2373351,,,,,,down,0,0.2497,,-0.186111111,-0.283333333,1,0,0,0,100,100,2,1,jaar,images/br_jaar.png,images/cb_jaar.png,0,,,,,,,,,,,,,,,,,,,,,,
,,,,,00036,2023-09-28_19h14.39.538,vbt_B2_day3,2022.2.4,Win32,60.2373351,,,,,,down,0,0.3059,,-0.186111111,-0.283333333,1,0,0,0,101,101,114,1,vullen,images/br_vullen.png,images/cb_vullen.png,0,,,,,,,,,,,,,,,,,,,,,,
,,,,,00036,2023-09-28_19h14.39.538,vbt_B2_day3,2022.2.4,Win32,60.2373351,,,,,,down,0,0.2825,,-0.186111111,-0.283333333,1,0,0,0,102,102,199,1,beseffen,images/br_beseffen.png,images/cb_beseffen.png,0,,,,,,,,,,,,,,,,,,,,,,
,,,,,00036,2023-09-28_19h14.39.538,vbt_B2_day3,2022.2.4,Win32,60.2373351,,,,,,down,0,0.2812,,-0.186111111,-0.283333333,1,0,0,0,103,103,70,1,ijdel,images/br_ijdel.png,images/cb_ijdel.png,0,,,,,,,,,,,,,,,,,,,,,,
,,,,,00036,2023-09-28_19h14.39.538,vbt_B2_day3,2022.2.4,Win32,60.2373351,,,,,,down,0,0.2939,,-0.186111111,-0.283333333,1,0,0,0,104,104,82,1,muziek,images/br_muziek.png,images/cb_muziek.png,0,,,,,,,,,,,,,,,,,,,,,,
,,,,,00036,2023-09-28_19h14.39.538,vbt_B2_day3,2022.2.4,Win32,60.2373351,,,,,,down,0,0.4347,,-0.186111111,-0.283333333,1,0,0,0,105,105,8,1,knie,images/br_knie.png,images/cb_knie.png,0,,,,,,,,,,,,,,,,,,,,,,
,,,,,00036,2023-09-28_19h14.39.538,vbt_B2_day3,2022.2.4,Win32,60.2373351,,,,,,down,0,0.1271,,-0.186111111,-0.283333333,1,0,0,0,106,106,37,1,mijn,images/br_mijn.png,images/cb_mijn.png,0,,,,,,,,,,,,,,,,,,,,,,
,,,,,00036,2023-09-28_19h14.39.538,vbt_B2_day3,2022.2.4,Win32,60.2373351,,,,,,down,0,0.3166,,-0.186111111,-0.283333333,1,0,0,0,107,107,153,1,vervoer,images/br_vervoer.png,images/cb_vervoer.png,0,,,,,,,,,,,,,,,,,,,,,,
,,,,,00036,2023-09-28_19h14.39.538,vbt_B2_day3,2022.2.4,Win32,60.2373351,,,,,,down,0,0.1694,,-0.186111111,-0.283333333,1,0,0,0,108,108,134,1,geliefd,images/br_geliefd.png,images/cb_geliefd.png,0,,,,,,,,,,,,,,,,,,,,,,
,,,,,00036,2023-09-28_19h14.39.538,vbt_B2_day3,2022.2.4,Win32,60.2373351,,,,,,down,0,0.146,,-0.186111111,-0.283333333,1,0,0,0,109,109,16,1,ziek,images/br_ziek.png,images/cb_ziek.png,0,,,,,,,,,,,,,,,,,,,,,,
,,,,,00036,2023-09-28_19h14.39.538,vbt_B2_day3,2022.2.4,Win32,60.2373351,,,,,,down,0,0.2219,,-0.186111111,-0.283333333,1,0,0,0,110,110,192,1,schaamte,images/br_schaamte.png,images/cb_schaamte.png,0,,,,,,,,,,,,,,,,,,,,,,
,,,,,00036,2023-09-28_19h14.39.538,vbt_B2_day3,2022.2.4,Win32,60.2373351,,,,,,down,0,0.0004,,-0.186111111,-0.283333333,1,0,0,0,111,111,59,1,kring,images/br_kring.png,images/cb_kring.png,0,,,,,,,,,,,,,,,,,,,,,,
,,,,,00036,2023-09-28_19h14.39.538,vbt_B2_day3,2022.2.4,Win32,60.2373351,,,,,,down,0,0.1504,,-0.186111111,-0.283333333,1,0,0,0,112,112,124,1,bloeien,images/br_bloeien.png,images/cb_bloeien.png,0,,,,,,,,,,,,,,,,,,,,,,
,,,,,00036,2023-09-28_19h14.39.538,vbt_B2_day3,2022.2.4,Win32,60.2373351,,,,,,down,0,0.0533,,-0.186111111,-0.283333333,1,0,0,0,113,113,33,1,vlek,images/br_vlek.png,images/cb_vlek.png,0,,,,,,,,,,,,,,,,,,,,,,
,,,,,00036,2023-09-28_19h14.39.538,vbt_B2_day3,2022.2.4,Win32,60.2373351,,,,,,down,0,0.0796,,-0.186111111,-0.283333333,1,0,0,0,114,114,4,1,moes,images/br_moes.png,images/cb_moes.png,0,,,,,,,,,,,,,,,,,,,,,,
,,,,,00036,2023-09-28_19h14.39.538,vbt_B2_day3,2022.2.4,Win32,60.2373351,,,,,,down,0,0.4377,,-0.186111111,-0.283333333,1,0,0,0,115,115,42,1,bleek,images/br_bleek.png,images/cb_bleek.png,0,,,,,,,,,,,,,,,,,,,,,,
,,,,,00036,2023-09-28_19h14.39.538,vbt_B2_day3,2022.2.4,Win32,60.2373351,,,,,,down,0,0.0504,,-0.186111111,-0.283333333,1,0,0,0,116,116,20,1,site,images/br_site.png,images/cb_site.png,1,,,,,,,,,,,,,,,,,,,,,,
,,,,,00036,2023-09-28_19h14.39.538,vbt_B2_day3,2022.2.4,Win32,60.2373351,,,,,,down,0,0.1467,,-0.186111111,-0.283333333,1,0,0,0,117,117,3,1,mand,images/br_mand.png,images/cb_mand.png,0,,,,,,,,,,,,,,,,,,,,,,
,,,,,00036,2023-09-28_19h14.39.538,vbt_B2_day3,2022.2.4,Win32,60.2373351,,,,,,down,0,0.0829,,-0.186111111,-0.283333333,1,0,0,0,118,118,173,1,apparaat,images/br_apparaat.png,images/cb_apparaat.png,0,,,,,,,,,,,,,,,,,,,,,,
,,,,,00036,2023-09-28_19h14.39.538,vbt_B2_day3,2022.2.4,Win32,60.2373351,,,,,,down,0,0.0004,,-0.186111111,-0.283333333,1,0,0,0,119,119,12,1,kust,images/br_kust.png,images/cb_kust.png,0,,,,,,,,,,,,,,,,,,,,,,
,,,,,00036,2023-09-28_19h14.39.538,vbt_B2_day3,2022.2.4,Win32,60.2373351,,,,,,down,0,0.2807,,-0.186111111,-0.283333333,1,0,0,0,120,120,175,1,heengaan,images/br_heengaan.png,images/cb_heengaan.png,0,,,,,,,,,,,,,,,,,,,,,,
,,,,,00036,2023-09-28_19h14.39.538,vbt_B2_day3,2022.2.4,Win32,60.2373351,,,,,,down,0,0.0434,,-0.186111111,-0.283333333,1,0,0,0,121,121,197,1,spanning,images/br_spanning.png,images/cb_spanning.png,0,,,,,,,,,,,,,,,,,,,,,,
,,,,,00036,2023-09-28_19h14.39.538,vbt_B2_day3,2022.2.4,Win32,60.2373351,,,,,,down,0,0.0438,,-0.186111111,-0.283333333,1,0,0,0,122,122,129,1,verhaal,images/br_verhaal.png,images/cb_verhaal.png,0,,,,,,,,,,,,,,,,,,,,,,
,,,,,00036,2023-09-28_19h14.39.538,vbt_B2_day3,2022.2.4,Win32,60.2373351,,,,,,down,0,0.7387,,-0.186111111,-0.283333333,1,0,0,0,123,123,166,1,strikken,images/br_strikken.png,images/cb_strikken.png,0,,,,,,,,,,,,,,,,,,,,,,
,,,,,00036,2023-09-28_19h14.39.538,vbt_B2_day3,2022.2.4,Win32,60.2373351,,,,,,down,0,14.2823,,-0.209259245,-0.288888889,1,0,0,0,124,124,181,1,toegeven,images/br_toegeven.png,images/cb_toegeven.png,1,roegeves,,,,,,,,,,,,,,,,,,,,,
,,,,,00036,2023-09-28_19h14.39.538,vbt_B2_day3,2022.2.4,Win32,60.2373351,,,,,,down,0,0.5838,,-0.209259245,-0.288888889,1,0,0,0,125,125,77,1,woede,images/br_woede.png,images/cb_woede.png,0,,,,,,,,,,,,,,,,,,,,,,
,,,,,00036,2023-09-28_19h14.39.538,vbt_B2_day3,2022.2.4,Win32,60.2373351,,,,,,down,0,0.3941,,-0.209259245,-0.288888889,1,0,0,0,126,126,185,1,mijnheer,images/br_mijnheer.png,images/cb_mijnheer.png,0,,,,,,,,,,,,,,,,,,,,,,
,,,,,00036,2023-09-28_19h14.39.538,vbt_B2_day3,2022.2.4,Win32,60.2373351,,,,,,down,0,0.2536,,-0.209259245,-0.288888889,1,0,0,0,127,127,89,1,slapen,images/br_slapen.png,images/cb_slapen.png,0,,,,,,,,,,,,,,,,,,,,,,
,,,,,00036,2023-09-28_19h14.39.538,vbt_B2_day3,2022.2.4,Win32,60.2373351,,,,,,down,0,0.3975,,-0.209259245,-0.288888889,1,0,0,0,128,128,194,1,driemaal,images/br_driemaal.png,images/cb_driemaal.png,0,,,,,,,,,,,,,,,,,,,,,,
,,,,,00036,2023-09-28_19h14.39.538,vbt_B2_day3,2022.2.4,Win32,60.2373351,,,,,,down,0,0.2128,,-0.209259245,-0.288888889,1,0,0,0,129,129,87,1,toeval,images/br_toeval.png,images/cb_toeval.png,0,,,,,,,,,,,,,,,,,,,,,,
,,,,,00036,2023-09-28_19h14.39.538,vbt_B2_day3,2022.2.4,Win32,60.2373351,,,,,,down,0,0.4836,,-0.209259245,-0.288888889,1,0,0,0,130,130,47,1,kabel,images/br_kabel.png,images/cb_kabel.png,0,,,,,,,,,,,,,,,,,,,,,,
,,,,,00036,2023-09-28_19h14.39.538,vbt_B2_day3,2022.2.4,Win32,60.2373351,,,,,,down,0,0.3502,,-0.209259245,-0.288888889,1,0,0,0,131,131,38,1,baai,images/br_baai.png,images/cb_baai.png,0,,,,,,,,,,,,,,,,,,,,,,
,,,,,00036,2023-09-28_19h14.39.538,vbt_B2_day3,2022.2.4,Win32,60.2373351,,,,,,down,0,0.5171,,-0.209259245,-0.288888889,1,0,0,0,132,132,96,1,slagen,images/br_slagen.png,images/cb_slagen.png,0,,,,,,,,,,,,,,,,,,,,,,
,,,,,00036,2023-09-28_19h14.39.538,vbt_B2_day3,2022.2.4,Win32,60.2373351,,,,,,down,0,0.3326,,-0.209259245,-0.288888889,1,0,0,0,133,133,107,1,maling,images/br_maling.png,images/cb_maling.png,0,,,,,,,,,,,,,,,,,,,,,,
,,,,,00036,2023-09-28_19h14.39.538,vbt_B2_day3,2022.2.4,Win32,60.2373351,,,,,,down,0,0.604,,-0.209259245,-0.288888889,1,0,0,0,134,134,58,1,tekst,images/br_tekst.png,images/cb_tekst.png,0,,,,,,,,,,,,,,,,,,,,,,
,,,,,00036,2023-09-28_19h14.39.538,vbt_B2_day3,2022.2.4,Win32,60.2373351,,,,,,down,0,0.2057,,-0.209259245,-0.288888889,1,0,0,0,135,135,40,1,schep,images/br_schep.png,images/cb_schep.png,0,,,,,,,,,,,,,,,,,,,,,,
,,,,,00036,2023-09-28_19h14.39.538,vbt_B2_day3,2022.2.4,Win32,60.2373351,,,,,,down,0,0.3476,,-0.209259245,-0.288888889,1,0,0,0,136,136,169,1,oprotten,images/br_oprotten.png,images/cb_oprotten.png,0,,,,,,,,,,,,,,,,,,,,,,
,,,,,00036,2023-09-28_19h14.39.538,vbt_B2_day3,2022.2.4,Win32,60.2373351,,,,,,down,0,0.5045,,-0.209259245,-0.288888889,1,0,0,0,137,137,176,1,techniek,images/br_techniek.png,images/cb_techniek.png,0,,,,,,,,,,,,,,,,,,,,,,
,,,,,00036,2023-09-28_19h14.39.538,vbt_B2_day3,2022.2.4,Win32,60.2373351,,,,,,down,0,0.4138,,-0.209259245,-0.288888889,1,0,0,0,138,138,189,1,aanraden,images/br_aanraden.png,images/cb_aanraden.png,0,,,,,,,,,,,,,,,,,,,,,,
,,,,,00036,2023-09-28_19h14.39.538,vbt_B2_day3,2022.2.4,Win32,60.2373351,,,,,,down,0,0.3036,,-0.209259245,-0.288888889,1,0,0,0,139,139,88,1,boeien,images/br_boeien.png,images/cb_boeien.png,0,,,,,,,,,,,,,,,,,,,,,,
,,,,,00036,2023-09-28_19h14.39.538,vbt_B2_day3,2022.2.4,Win32,60.2373351,,,,,,down,0,0.0053,,-0.209259245,-0.288888889,1,0,0,0,140,140,147,1,komisch,images/br_komisch.png,images/cb_komisch.png,0,,,,,,,,,,,,,,,,,,,,,,
,,,,,00036,2023-09-28_19h14.39.538,vbt_B2_day3,2022.2.4,Win32,60.2373351,,,,,,down,0,0.1171,,-0.209259245,-0.288888889,1,0,0,0,141,141,170,1,schatten,images/br_schatten.png,images/cb_schatten.png,0,,,,,,,,,,,,,,,,,,,,,,
,,,,,00036,2023-09-28_19h14.39.538,vbt_B2_day3,2022.2.4,Win32,60.2373351,,,,,,down,0,0.3838,,-0.209259245,-0.288888889,1,0,0,0,142,142,121,1,twijfel,images/br_twijfel.png,images/cb_twijfel.png,0,,,,,,,,,,,,,,,,,,,,,,
,,,,,00036,2023-09-28_19h14.39.538,vbt_B2_day3,2022.2.4,Win32,60.2373351,,,,,,down,0,0.3501,,-0.209259245,-0.288888889,1,0,0,0,143,143,128,1,prikken,images/br_prikken.png,images/cb_prikken.png,0,,,,,,,,,,,,,,,,,,,,,,
,,,,,00036,2023-09-28_19h14.39.538,vbt_B2_day3,2022.2.4,Win32,60.2373351,,,,,,down,0,0.3539,,-0.209259245,-0.288888889,1,0,0,0,144,144,104,1,zweven,images/br_zweven.png,images/cb_zweven.png,0,,,,,,,,,,,,,,,,,,,,,,
,,,,,00036,2023-09-28_19h14.39.538,vbt_B2_day3,2022.2.4,Win32,60.2373351,,,,,,down,0,0.3451,,-0.209259245,-0.288888889,1,0,0,0,145,145,67,1,zwart,images/br_zwart.png,images/cb_zwart.png,0,,,,,,,,,,,,,,,,,,,,,,
,,,,,00036,2023-09-28_19h14.39.538,vbt_B2_day3,2022.2.4,Win32,60.2373351,,,,,,down,0,0.6666,,-0.209259245,-0.288888889,1,0,0,0,146,146,161,1,attentie,images/br_attentie.png,images/cb_attentie.png,0,,,,,,,,,,,,,,,,,,,,,,
,,,,,00036,2023-09-28_19h14.39.538,vbt_B2_day3,2022.2.4,Win32,60.2373351,,,,,,down,0,1.0181,,-0.209259245,-0.288888889,1,0,0,0,147,147,84,1,lokken,images/br_lokken.png,images/cb_lokken.png,0,,,,,,,,,,,,,,,,,,,,,,
,,,,,00036,2023-09-28_19h14.39.538,vbt_B2_day3,2022.2.4,Win32,60.2373351,,,,,,down,0,0.2161,,-0.209259245,-0.288888889,1,0,0,0,148,148,6,1,diep,images/br_diep.png,images/cb_diep.png,0,,,,,,,,,,,,,,,,,,,,,,
,,,,,00036,2023-09-28_19h14.39.538,vbt_B2_day3,2022.2.4,Win32,60.2373351,,,,,,down,0,0.1111,,-0.209259245,-0.288888889,1,0,0,0,149,149,94,1,oceaan,images/br_oceaan.png,images/cb_oceaan.png,0,,,,,,,,,,,,,,,,,,,,,,
,,,,,00036,2023-09-28_19h14.39.538,vbt_B2_day3,2022.2.4,Win32,60.2373351,,,,,,down,0,0.467,,-0.209259245,-0.288888889,1,0,0,0,150,150,133,1,seizoen,images/br_seizoen.png,images/cb_seizoen.png,0,,,,,,,,,,,,,,,,,,,,,,
,,,,,00036,2023-09-28_19h14.39.538,vbt_B2_day3,2022.2.4,Win32,60.2373351,,,,,,down,0,4.367,,-0.209259245,-0.288888889,1,0,0,0,151,151,62,1,knaap,images/br_knaap.png,images/cb_knaap.png,1,ksaab,,,,,,,,,,,,,,,,,,,,,
,,,,,00036,2023-09-28_19h14.39.538,vbt_B2_day3,2022.2.4,Win32,60.2373351,,,,,,down,0,0.3161,,-0.209259245,-0.288888889,1,0,0,0,152,152,80,1,kanjer,images/br_kanjer.png,images/cb_kanjer.png,0,,,,,,,,,,,,,,,,,,,,,,
,,,,,00036,2023-09-28_19h14.39.538,vbt_B2_day3,2022.2.4,Win32,60.2373351,,,,,,down,0,6.767,,-0.209259245,-0.288888889,1,0,0,0,153,153,63,1,flirt,images/br_flirt.png,images/cb_flirt.png,1,fliak,,,,,,,,,,,,,,,,,,,,,
,,,,,00036,2023-09-28_19h14.39.538,vbt_B2_day3,2022.2.4,Win32,60.2373351,,,,,,down,0,0.3327,,-0.209259245,-0.288888889,1,0,0,0,154,154,69,1,waken,images/br_waken.png,images/cb_waken.png,0,,,,,,,,,,,,,,,,,,,,,,
,,,,,00036,2023-09-28_19h14.39.538,vbt_B2_day3,2022.2.4,Win32,60.2373351,,,,,,down,0,0.3088,,-0.209259245,-0.288888889,1,0,0,0,155,155,97,1,loyaal,images/br_loyaal.png,images/cb_loyaal.png,0,,,,,,,,,,,,,,,,,,,,,,
,,,,,00036,2023-09-28_19h14.39.538,vbt_B2_day3,2022.2.4,Win32,60.2373351,,,,,,down,0,0.3121,,-0.209259245,-0.288888889,1,0,0,0,156,156,177,1,maaltijd,images/br_maaltijd.png,images/cb_maaltijd.png,0,,,,,,,,,,,,,,,,,,,,,,
,,,,,00036,2023-09-28_19h14.39.538,vbt_B2_day3,2022.2.4,Win32,60.2373351,,,,,,down,0,0.3634,,-0.209259245,-0.288888889,1,0,0,0,157,157,136,1,waarbij,images/br_waarbij.png,images/cb_waarbij.png,0,,,,,,,,,,,,,,,,,,,,,,
,,,,,00036,2023-09-28_19h14.39.538,vbt_B2_day3,2022.2.4,Win32,60.2373351,,,,,,down,0,0.3341,,-0.209259245,-0.288888889,1,0,0,0,158,158,112,1,lukken,images/br_lukken.png,images/cb_lukken.png,0,,,,,,,,,,,,,,,,,,,,,,
,,,,,00036,2023-09-28_19h14.39.538,vbt_B2_day3,2022.2.4,Win32,60.2373351,,,,,,down,0,0.2794,,-0.209259245,-0.288888889,1,0,0,0,159,159,52,1,wagon,images/br_wagon.png,images/cb_wagon.png,0,,,,,,,,,,,,,,,,,,,,,,
,,,,,00036,2023-09-28_19h14.39.538,vbt_B2_day3,2022.2.4,Win32,60.2373351,,,,,,down,0,0.2745,,-0.209259245,-0.288888889,1,0,0,0,160,160,71,1,bever,images/br_bever.png,images/cb_bever.png,0,,,,,,,,,,,,,,,,,,,,,,
,,,,,00036,2023-09-28_19h14.39.538,vbt_B2_day3,2022.2.4,Win32,60.2373351,,,,,,down,0,0.3774,,-0.209259245,-0.288888889,1,0,0,0,161,161,30,1,uien,images/br_uien.png,images/cb_uien.png,0,,,,,,,,,,,,,,,,,,,,,,
,,,,,00036,2023-09-28_19h14.39.538,vbt_B2_day3,2022.2.4,Win32,60.2373351,,,,,,down,0,0.3366,,-0.209259245,-0.288888889,1,0,0,0,162,162,135,1,gedicht,images/br_gedicht.png,images/cb_gedicht.png,0,,,,,,,,,,,,,,,,,,,,,,
,,,,,00036,2023-09-28_19h14.39.538,vbt_B2_day3,2022.2.4,Win32,60.2373351,,,,,,down,0,0.2957,,-0.209259245,-0.288888889,1,0,0,0,163,163,145,1,invloed,images/br_invloed.png,images/cb_invloed.png,0,,,,,,,,,,,,,,,,,,,,,,
,,,,,00036,2023-09-28_19h14.39.538,vbt_B2_day3,2022.2.4,Win32,60.2373351,,,,,,down,0,0.5502,,-0.209259245,-0.288888889,1,0,0,0,164,164,165,1,feestdag,images/br_feestdag.png,images/cb_feestdag.png,0,,,,,,,,,,,,,,,,,,,,,,
,,,,,00036,2023-09-28_19h14.39.538,vbt_B2_day3,2022.2.4,Win32,60.2373351,,,,,,down,0,0.3496,,-0.209259245,-0.288888889,1,0,0,0,165,165,167,1,eenhoorn,images/br_eenhoorn.png,images/cb_eenhoorn.png,0,,,,,,,,,,,,,,,,,,,,,,
,,,,,00036,2023-09-28_19h14.39.538,vbt_B2_day3,2022.2.4,Win32,60.2373351,,,,,,down,0,0.7295,,-0.209259245,-0.288888889,1,0,0,0,166,166,85,1,heilig,images/br_heilig.png,images/cb_heilig.png,0,,,,,,,,,,,,,,,,,,,,,,
,,,,,00036,2023-09-28_19h14.39.538,vbt_B2_day3,2022.2.4,Win32,60.2373351,,,,,,down,0,0.4132,,-0.209259245,-0.288888889,1,0,0,0,167,167,55,1,praat,images/br_praat.png,images/cb_praat.png,0,,,,,,,,,,,,,,,,,,,,,,
,,,,,00036,2023-09-28_19h14.39.538,vbt_B2_day3,2022.2.4,Win32,60.2373351,,,,,,down,0,0.5178,,-0.209259245,-0.288888889,1,0,0,0,168,168,106,1,zingen,images/br_zingen.png,images/cb_zingen.png,0,,,,,,,,,,,,,,,,,,,,,,
,,,,,00036,2023-09-28_19h14.39.538,vbt_B2_day3,2022.2.4,Win32,60.2373351,,,,,,down,0,0.4788,,-0.209259245,-0.288888889,1,0,0,0,169,169,159,1,sufferd,images/br_sufferd.png,images/cb_sufferd.png,0,,,,,,,,,,,,,,,,,,,,,,
,,,,,00036,2023-09-28_19h14.39.538,vbt_B2_day3,2022.2.4,Win32,60.2373351,,,,,,down,0,0.2002,,-0.209259245,-0.288888889,1,0,0,0,170,170,91,1,gezond,images/br_gezond.png,images/cb_gezond.png,0,,,,,,,,,,,,,,,,,,,,,,
,,,,,00036,2023-09-28_19h14.39.538,vbt_B2_day3,2022.2.4,Win32,60.2373351,,,,,,down,0,0.1842,,-0.209259245,-0.288888889,1,0,0,0,171,171,164,1,anarchie,images/br_anarchie.png,images/cb_anarchie.png,0,,,,,,,,,,,,,,,,,,,,,,
,,,,,00036,2023-09-28_19h14.39.538,vbt_B2_day3,2022.2.4,Win32,60.2373351,,,,,,down,0,0.3217,,-0.209259245,-0.288888889,1,0,0,0,172,172,160,1,daarheen,images/br_daarheen.png,images/cb_daarheen.png,0,,,,,,,,,,,,,,,,,,,,,,
,,,,,00036,2023-09-28_19h14.39.538,vbt_B2_day3,2022.2.4,Win32,60.2373351,,,,,,down,0,0.2339,,-0.209259245,-0.288888889,1,0,0,0,173,173,93,1,waarop,images/br_waarop.png,images/cb_waarop.png,0,,,,,,,,,,,,,,,,,,,,,,
,,,,,00036,2023-09-28_19h14.39.538,vbt_B2_day3,2022.2.4,Win32,60.2373351,,,,,,down,0,0.3348,,-0.209259245,-0.288888889,1,0,0,0,174,174,168,1,bisschop,images/br_bisschop.png,images/cb_bisschop.png,0,,,,,,,,,,,,,,,,,,,,,,
,,,,,00036,2023-09-28_19h14.39.538,vbt_B2_day3,2022.2.4,Win32,60.2373351,,,,,,down,0,8.5456,,-0.209259245,-0.288888889,1,0,0,0,175,175,61,1,groen,images/br_groen.png,images/cb_groen.png,1,groep,,,,,,,,,,,,,,,,,,,,,
,,,,,00036,2023-09-28_19h14.39.538,vbt_B2_day3,2022.2.4,Win32,60.2373351,,,,,,down,0,1.0547,,-0.209259245,-0.288888889,1,0,0,0,176,176,57,1,steek,images/br_steek.png,images/cb_steek.png,0,,,,,,,,,,,,,,,,,,,,,,
,,,,,00036,2023-09-28_19h14.39.538,vbt_B2_day3,2022.2.4,Win32,60.2373351,,,,,,down,0,0.3801,,-0.209259245,-0.288888889,1,0,0,0,177,177,73,1,volop,images/br_volop.png,images/cb_volop.png,0,,,,,,,,,,,,,,,,,,,,,,
,,,,,00036,2023-09-28_19h14.39.538,vbt_B2_day3,2022.2.4,Win32,60.2373351,,,,,,down,0,0.5465,,-0.209259245,-0.288888889,1,0,0,0,178,178,32,1,palm,images/br_palm.png,images/cb_palm.png,0,,,,,,,,,,,,,,,,,,,,,,
,,,,,00036,2023-09-28_19h14.39.538,vbt_B2_day3,2022.2.4,Win32,60.2373351,,,,,,down,0,0.2773,,-0.209259245,-0.288888889,1,0,0,0,179,179,54,1,gebit,images/br_gebit.png,images/cb_gebit.png,0,,,,,,,,,,,,,,,,,,,,,,
,,,,,00036,2023-09-28_19h14.39.538,vbt_B2_day3,2022.2.4,Win32,60.2373351,,,,,,down,0,0.5355,,-0.209259245,-0.288888889,1,0,0,0,180,180,18,1,blik,images/br_blik.png,images/cb_blik.png,0,,,,,,,,,,,,,,,,,,,,,,
,,,,,00036,2023-09-28_19h14.39.538,vbt_B2_day3,2022.2.4,Win32,60.2373351,,,,,,down,0,0.4766,,-0.209259245,-0.288888889,1,0,0,0,181,181,184,1,aandelen,images/br_aandelen.png,images/cb_aandelen.png,0,,,,,,,,,,,,,,,,,,,,,,
,,,,,00036,2023-09-28_19h14.39.538,vbt_B2_day3,2022.2.4,Win32,60.2373351,,,,,,down,0,0.3781,,-0.209259245,-0.288888889,1,0,0,0,182,182,41,1,maken,images/br_maken.png,images/cb_maken.png,0,,,,,,,,,,,,,,,,,,,,,,
,,,,,00036,2023-09-28_19h14.39.538,vbt_B2_day3,2022.2.4,Win32,60.2373351,,,,,,down,0,0.2498,,-0.209259245,-0.288888889,1,0,0,0,183,183,137,1,trekker,images/br_trekker.png,images/cb_trekker.png,0,,,,,,,,,,,,,,,,,,,,,,
,,,,,00036,2023-09-28_19h14.39.538,vbt_B2_day3,2022.2.4,Win32,60.2373351,,,,,,down,0,14.1379,,-0.209259245,-0.288888889,1,0,0,0,184,184,182,1,bijkomen,images/br_bijkomen.png,images/cb_bijkomen.png,1,bijkomen,,,,,,,,,,,,,,,,,,,,,
,,,,,00036,2023-09-28_19h14.39.538,vbt_B2_day3,2022.2.4,Win32,60.2373351,,,,,,down,0,0.242,,-0.209259245,-0.288888889,1,0,0,0,185,185,86,1,woning,images/br_woning.png,images/cb_woning.png,0,,,,,,,,,,,,,,,,,,,,,,
,,,,,00036,2023-09-28_19h14.39.538,vbt_B2_day3,2022.2.4,Win32,60.2373351,,,,,,down,0,6.6168,,-0.191666667,-0.275925954,1,0,0,0,186,186,101,1,staren,images/br_staren.png,images/cb_staren.png,1,staren,,,,,,,,,,,,,,,,,,,,,
,,,,,00036,2023-09-28_19h14.39.538,vbt_B2_day3,2022.2.4,Win32,60.2373351,,,,,,down,0,0.488,,-0.191666667,-0.275925954,1,0,0,0,187,187,17,1,taal,images/br_taal.png,images/cb_taal.png,0,,,,,,,,,,,,,,,,,,,,,,
,,,,,00036,2023-09-28_19h14.39.538,vbt_B2_day3,2022.2.4,Win32,60.2373351,,,,,,down,0,0.1456,,-0.191666667,-0.275925954,1,0,0,0,188,188,193,1,weeshuis,images/br_weeshuis.png,images/cb_weeshuis.png,0,,,,,,,,,,,,,,,,,,,,,,
,,,,,00036,2023-09-28_19h14.39.538,vbt_B2_day3,2022.2.4,Win32,60.2373351,,,,,,down,0,0.2339,,-0.191666667,-0.275925954,1,0,0,0,189,189,78,1,leren,images/br_leren.png,images/cb_leren.png,0,,,,,,,,,,,,,,,,,,,,,,
,,,,,00036,2023-09-28_19h14.39.538,vbt_B2_day3,2022.2.4,Win32,60.2373351,,,,,,down,0,0.1759,,-0.191666667,-0.275925954,1,0,0,0,190,190,76,1,afval,images/br_afval.png,images/cb_afval.png,0,,,,,,,,,,,,,,,,,,,,,,
,,,,,00036,2023-09-28_19h14.39.538,vbt_B2_day3,2022.2.4,Win32,60.2373351,,,,,,down,0,0.1669,,-0.191666667,-0.275925954,1,0,0,0,191,191,90,1,geluid,images/br_geluid.png,images/cb_geluid.png,0,,,,,,,,,,,,,,,,,,,,,,
,,,,,00036,2023-09-28_19h14.39.538,vbt_B2_day3,2022.2.4,Win32,60.2373351,,,,,,down,0,0.1968,,-0.191666667,-0.275925954,1,0,0,0,192,192,53,1,baron,images/br_baron.png,images/cb_baron.png,0,,,,,,,,,,,,,,,,,,,,,,
,,,,,00036,2023-09-28_19h14.39.538,vbt_B2_day3,2022.2.4,Win32,60.2373351,,,,,,down,0,0.0874,,-0.191666667,-0.275925954,1,0,0,0,193,193,0,1,slak,images/br_slak.png,images/cb_slak.png,0,,,,,,,,,,,,,,,,,,,,,,
,,,,,00036,2023-09-28_19h14.39.538,vbt_B2_day3,2022.2.4,Win32,60.2373351,,,,,,down,0,12.2702,,-0.191666667,-0.275925954,1,0,0,0,194,194,143,1,hechten,images/br_hechten.png,images/cb_hechten.png,1,fe.ftes,,,,,,,,,,,,,,,,,,,,,
,,,,,00036,2023-09-28_19h14.39.538,vbt_B2_day3,2022.2.4,Win32,60.2373351,,,,,,down,0,0.6644,,-0.191666667,-0.275925954,1,0,0,0,195,195,127,1,doodmoe,images/br_doodmoe.png,images/cb_doodmoe.png,0,,,,,,,,,,,,,,,,,,,,,,
,,,,,00036,2023-09-28_19h14.39.538,vbt_B2_day3,2022.2.4,Win32,60.2373351,,,,,,down,0,0.3678,,-0.191666667,-0.275925954,1,0,0,0,196,196,139,1,stiekem,images/br_stiekem.png,images/cb_stiekem.png,0,,,,,,,,,,,,,,,,,,,,,,
,,,,,00036,2023-09-28_19h14.39.538,vbt_B2_day3,2022.2.4,Win32,60.2373351,,,,,,down,0,0.1719,,-0.191666667,-0.275925954,1,0,0,0,197,197,13,1,kaal,images/br_kaal.png,images/cb_kaal.png,0,,,,,,,,,,,,,,,,,,,,,,
,,,,,00036,2023-09-28_19h14.39.538,vbt_B2_day3,2022.2.4,Win32,60.2373351,,,,,,down,0,0.3671,,-0.191666667,-0.275925954,1,0,0,0,198,198,66,1,lever,images/br_lever.png,images/cb_lever.png,0,,,,,,,,,,,,,,,,,,,,,,
,,,,,00036,2023-09-28_19h14.39.538,vbt_B2_day3,2022.2.4,Win32,60.2373351,,,,,,down,0,0.3508,,-0.204629601,-0.287037065,1,0,0,0,199,199,131,1,opzicht,images/br_opzicht.png,images/cb_opzicht.png,0,,,,,,,,,,,,,,,,,,,,,,
,,,,,00036,2023-09-28_19h14.39.538,vbt_B2_day3,2022.2.4,Win32,60.2373351,,,,,,,,,,,,,,,,,,,,,,,,,-0.204629601,-0.287037065,1,0,0,,,,,,,,,,,,,,,,
,,,,,00036,2023-09-28_19h14.39.538,vbt_B2_day3,2022.2.4,Win32,60.2373351,,,,,,,,,,,,,,,,,,,,,,,,,,,,,,-0.204629601,-0.287037065,1,0,0,,,,,,,,,,,
,,,,,00036,2023-09-28_19h14.39.538,vbt_B2_day3,2022.2.4,Win32,60.2373351,,,,,,,,,,,,,,,,,,,,dwang,images/br_dwang.png,images/cb_dwang.png,,,,,,,,,,,,,-0.204629601,-0.287037065,1,0,0,,0,0,0,47,1
,,,,,00036,2023-09-28_19h14.39.538,vbt_B2_day3,2022.2.4,Win32,60.2373351,,,,,,,,,,,,,,,,,,,,aarzelen,images/br_aarzelen.png,images/cb_aarzelen.png,,aarse,,,,,,,,,,,-0.204629601,-0.287037065,1,0,0,aarse,0,1,1,19,1
,,,,,00036,2023-09-28_19h14.39.538,vbt_B2_day3,2022.2.4,Win32,60.2373351,,,,,,,,,,,,,,,,,,,,hust,images/br_hust.png,images/cb_hust.png,,fun,,,,,,,,,,,-0.204629601,-0.287037065,1,0,0,fun,0,2,2,23,1
,,,,,00036,2023-09-28_19h14.39.538,vbt_B2_day3,2022.2.4,Win32,60.2373351,,,,,,,,,,,,,,,,,,,,knie,images/br_knie.png,images/cb_knie.png,,,,,,,,,,,,,-0.204629601,-0.287037065,1,0,0,,0,3,3,0,1
,,,,,00036,2023-09-28_19h14.39.538,vbt_B2_day3,2022.2.4,Win32,60.2373351,,,,,,,,,,,,,,,,,,,,prikken,images/br_prikken.png,images/cb_prikken.png,,,,,,,,,,,,,-0.204629601,-0.287037065,1,0,0,,0,4,4,12,1
,,,,,00036,2023-09-28_19h14.39.538,vbt_B2_day3,2022.2.4,Win32,60.2373351,,,,,,,,,,,,,,,,,,,,hier,images/br_hier.png,images/cb_hier.png,,feit,,,,,,,,,,,-0.204629601,-0.287037065,1,0,0,feit,0,5,5,1,1
,,,,,00036,2023-09-28_19h14.39.538,vbt_B2_day3,2022.2.4,Win32,60.2373351,,,,,,,,,,,,,,,,,,,,stikken,images/br_stikken.png,images/cb_stikken.png,,s,,,,,,,,,,,-0.204629601,-0.287037065,1,0,0,s,0,6,6,54,1
,,,,,00036,2023-09-28_19h14.39.538,vbt_B2_day3,2022.2.4,Win32,60.2373351,,,,,,,,,,,,,,,,,,,,onrecht,images/br_onrecht.png,images/cb_onrecht.png,,,,,,,,,,,,,-0.204629601,-0.287037065,1,0,0,,0,7,7,55,1
,,,,,00036,2023-09-28_19h14.39.538,vbt_B2_day3,2022.2.4,Win32,60.2373351,,,,,,,,,,,,,,,,,,,,brappen,images/br_brappen.png,images/cb_brappen.png,,bra,,,,,,,,,,,-0.204629601,-0.287037065,1,0,0,bra,0,8,8,35,1
,,,,,00036,2023-09-28_19h14.39.538,vbt_B2_day3,2022.2.4,Win32,60.2373351,,,,,,,,,,,,,,,,,,,,oprotten,images/br_oprotten.png,images/cb_oprotten.png,,oprotten,,,,,,,,,,,-0.204629601,-0.287037065,1,0,0,oprotten,0,9,9,17,1
,,,,,00036,2023-09-28_19h14.39.538,vbt_B2_day3,2022.2.4,Win32,60.2373351,,,,,,,,,,,,,,,,,,,,gout,images/br_gout.png,images/cb_gout.png,,goud,,,,,,,,,,,-0.204629601,-0.287037065,1,0,0,goud,0,10,10,20,1
,,,,,00036,2023-09-28_19h14.39.538,vbt_B2_day3,2022.2.4,Win32,60.2373351,,,,,,,,,,,,,,,,,,,,mugeek,images/br_mugeek.png,images/cb_mugeek.png,,mugeek,,,,,,,,,,,-0.204629601,-0.287037065,1,0,0,mugeek,0,11,11,29,1
,,,,,00036,2023-09-28_19h14.39.538,vbt_B2_day3,2022.2.4,Win32,60.2373351,,,,,,,,,,,,,,,,,,,,twaaf,images/br_twaaf.png,images/cb_twaaf.png,,,,,,,,,,,,,-0.204629601,-0.287037065,1,0,0,,0,12,12,24,1
,,,,,00036,2023-09-28_19h14.39.538,vbt_B2_day3,2022.2.4,Win32,60.2373351,,,,,,,,,,,,,,,,,,,,sluier,images/br_sluier.png,images/cb_sluier.png,,sleir,,,,,,,,,,,-0.204629601,-0.287037065,1,0,0,sleir,0,13,13,50,1
,,,,,00036,2023-09-28_19h14.39.538,vbt_B2_day3,2022.2.4,Win32,60.2373351,,,,,,,,,,,,,,,,,,,,sultan,images/br_sultan.png,images/cb_sultan.png,,sul,,,,,,,,,,,-0.204629601,-0.287037065,1,0,0,sul,0,14,14,49,1
,,,,,00036,2023-09-28_19h14.39.538,vbt_B2_day3,2022.2.4,Win32,60.2373351,,,,,,,,,,,,,,,,,,,,schodel,images/br_schodel.png,images/cb_schodel.png,,,,,,,,,,,,,-0.204629601,-0.287037065,1,0,0,,0,15,15,33,1
,,,,,00036,2023-09-28_19h14.39.538,vbt_B2_day3,2022.2.4,Win32,60.2373351,,,,,,,,,,,,,,,,,,,,boeien,images/br_boeien.png,images/cb_boeien.png,,boeien,,,,,,,,,,,-0.204629601,-0.287037065,1,0,0,boeien,0,16,16,8,1
,,,,,00036,2023-09-28_19h14.39.538,vbt_B2_day3,2022.2.4,Win32,60.2373351,,,,,,,,,,,,,,,,,,,,slapen,images/br_slapen.png,images/cb_slapen.png,,slapen,,,,,,,,,,,-0.204629601,-0.287037065,1,0,0,slapen,0,17,17,9,1
,,,,,00036,2023-09-28_19h14.39.538,vbt_B2_day3,2022.2.4,Win32,60.2373351,,,,,,,,,,,,,,,,,,,,geluid,images/br_geluid.png,images/cb_geluid.png,,geluek,,,,,,,,,,,-0.209259245,-0.291666667,1,0,0,geluek,0,18,18,10,1
,,,,,00036,2023-09-28_19h14.39.538,vbt_B2_day3,2022.2.4,Win32,60.2373351,,,,,,,,,,,,,,,,,,,,jongelui,images/br_jongelui.png,images/cb_jongelui.png,,joggen,,,,,,,,,,,-0.209259245,-0.291666667,1,0,0,joggen,0,19,19,59,1
,,,,,00036,2023-09-28_19h14.39.538,vbt_B2_day3,2022.2.4,Win32,60.2373351,,,,,,,,,,,,,,,,,,,,theeting,images/br_theeting.png,images/cb_theeting.png,,,,,,,,,,,,,-0.209259245,-0.291666667,1,0,0,,0,20,20,38,1
,,,,,00036,2023-09-28_19h14.39.538,vbt_B2_day3,2022.2.4,Win32,60.2373351,,,,,,,,,,,,,,,,,,,,kaas,images/br_kaas.png,images/cb_kaas.png,,kaas,,,,,,,,,,,-0.209259245,-0.291666667,1,0,0,kaas,0,21,21,42,1
,,,,,00036,2023-09-28_19h14.39.538,vbt_B2_day3,2022.2.4,Win32,60.2373351,,,,,,,,,,,,,,,,,,,,verhaal,images/br_verhaal.png,images/cb_verhaal.png,,verfijnen,,,,,,,,,,,-0.209259245,-0.291666667,1,0,0,verfijnen,0,22,22,13,1
,,,,,00036,2023-09-28_19h14.39.538,vbt_B2_day3,2022.2.4,Win32,60.2373351,,,,,,,,,,,,,,,,,,,,bevret,images/br_bevret.png,images/cb_bevret.png,,bijvr,,,,,,,,,,,-0.209259245,-0.291666667,1,0,0,bijvr,0,23,23,30,1
,,,,,00036,2023-09-28_19h14.39.538,vbt_B2_day3,2022.2.4,Win32,60.2373351,,,,,,,,,,,,,,,,,,,,hint,images/br_hint.png,images/cb_hint.png,,fi,,,,,,,,,,,-0.209259245,-0.291666667,1,0,0,fi,0,24,24,43,1
,,,,,00036,2023-09-28_19h14.39.538,vbt_B2_day3,2022.2.4,Win32,60.2373351,,,,,,,,,,,,,,,,,,,,verraden,images/br_verraden.png,images/cb_verraden.png,,verrassen,,,,,,,,,,,-0.209259245,-0.291666667,1,0,0,verrassen,0,25,25,58,1
,,,,,00036,2023-09-28_19h14.39.538,vbt_B2_day3,2022.2.4,Win32,60.2373351,,,,,,,,,,,,,,,,,,,,makieren,images/br_makieren.png,images/cb_makieren.png,,makkelijk,,,,,,,,,,,-0.209259245,-0.291666667,1,0,0,makkelijk,0,26,26,36,1
,,,,,00036,2023-09-28_19h14.39.538,vbt_B2_day3,2022.2.4,Win32,60.2373351,,,,,,,,,,,,,,,,,,,,gezond,images/br_gezond.png,images/cb_gezond.png,,ge.o...,,,,,,,,,,,-0.209259245,-0.291666667,1,0,0,ge.o...,0,27,27,11,1
,,,,,00036,2023-09-28_19h14.39.538,vbt_B2_day3,2022.2.4,Win32,60.2373351,,,,,,,,,,,,,,,,,,,,kest,images/br_kest.png,images/cb_kest.png,,kese,,,,,,,,,,,-0.209259245,-0.291666667,1,0,0,kese,0,28,28,21,1
,,,,,00036,2023-09-28_19h14.39.538,vbt_B2_day3,2022.2.4,Win32,60.2373351,,,,,,,,,,,,,,,,,,,,gebod,images/br_gebod.png,images/cb_gebod.png,,gebog,,,,,,,,,,,-0.209259245,-0.291666667,1,0,0,gebog,0,29,29,45,1
,,,,,00036,2023-09-28_19h14.39.538,vbt_B2_day3,2022.2.4,Win32,60.2373351,,,,,,,,,,,,,,,,,,,,paken,images/br_paken.png,images/cb_paken.png,,paken,,,,,,,,,,,-0.209259245,-0.291666667,1,0,0,paken,0,30,30,27,1
,,,,,00036,2023-09-28_19h14.39.538,vbt_B2_day3,2022.2.4,Win32,60.2373351,,,,,,,,,,,,,,,,,,,,bisschop,images/br_bisschop.png,images/cb_bisschop.png,,bess.....;;,,,,,,,,,,,-0.209259245,-0.291666667,1,0,0,bess.....;;,0,31,31,16,1
,,,,,00036,2023-09-28_19h14.39.538,vbt_B2_day3,2022.2.4,Win32,60.2373351,,,,,,,,,,,,,,,,,,,,invallen,images/br_invallen.png,images/cb_invallen.png,,e,,,,,,,,,,,-0.209259245,-0.291666667,1,0,0,e,0,32,32,57,1
,,,,,00036,2023-09-28_19h14.39.538,vbt_B2_day3,2022.2.4,Win32,60.2373351,,,,,,,,,,,,,,,,,,,,stallen,images/br_stallen.png,images/cb_stallen.png,,stall...,,,,,,,,,,,-0.209259245,-0.291666667,1,0,0,stall...,0,33,33,52,1
,,,,,00036,2023-09-28_19h14.39.538,vbt_B2_day3,2022.2.4,Win32,60.2373351,,,,,,,,,,,,,,,,,,,,eens,images/br_eens.png,images/cb_eens.png,,ee,,,,,,,,,,,-0.209259245,-0.291666667,1,0,0,ee,0,34,34,40,1
,,,,,00036,2023-09-28_19h14.39.538,vbt_B2_day3,2022.2.4,Win32,60.2373351,,,,,,,,,,,,,,,,,,,,kwaas,images/br_kwaas.png,images/cb_kwaas.png,,,,,,,,,,,,,-0.212037023,-0.279629686,1,0,0,,0,35,35,26,1
,,,,,00036,2023-09-28_19h14.39.538,vbt_B2_day3,2022.2.4,Win32,60.2373351,,,,,,,,,,,,,,,,,,,,steel,images/br_steel.png,images/cb_steel.png,,,,,,,,,,,,,-0.212037023,-0.279629686,1,0,0,,0,36,36,4,1
,,,,,00036,2023-09-28_19h14.39.538,vbt_B2_day3,2022.2.4,Win32,60.2373351,,,,,,,,,,,,,,,,,,,,uviek,images/br_uviek.png,images/cb_uviek.png,,uvie,,,,,,,,,,,-0.212037023,-0.279629686,1,0,0,uvie,0,37,37,25,1
,,,,,00036,2023-09-28_19h14.39.538,vbt_B2_day3,2022.2.4,Win32,60.2373351,,,,,,,,,,,,,,,,,,,,opzetten,images/br_opzetten.png,images/cb_opzetten.png,,op,,,,,,,,,,,-0.212037023,-0.279629686,1,0,0,op,0,38,38,56,1
,,,,,00036,2023-09-28_19h14.39.538,vbt_B2_day3,2022.2.4,Win32,60.2373351,,,,,,,,,,,,,,,,,,,,leemaken,images/br_leemaken.png,images/cb_leemaken.png,,leevk,,,,,,,,,,,-0.216666667,-0.287963019,1,0,0,leevk,0,39,39,39,1
,,,,,00036,2023-09-28_19h14.39.538,vbt_B2_day3,2022.2.4,Win32,60.2373351,,,,,,,,,,,,,,,,,,,,leugeren,images/br_leugeren.png,images/cb_leugeren.png,,leuger..,,,,,,,,,,,-0.216666667,-0.287963019,1,0,0,leuger..,0,40,40,37,1
,,,,,00036,2023-09-28_19h14.39.538,vbt_B2_day3,2022.2.4,Win32,60.2373351,,,,,,,,,,,,,,,,,,,,zone,images/br_zone.png,images/cb_zone.png,,,,,,,,,,,,,-0.216666667,-0.287963019,1,0,0,,0,41,41,41,1
,,,,,00036,2023-09-28_19h14.39.538,vbt_B2_day3,2022.2.4,Win32,60.2373351,,,,,,,,,,,,,,,,,,,,alsof,images/br_alsof.png,images/cb_alsof.png,,,,,,,,,,,,,-0.216666667,-0.287963019,1,0,0,,0,42,42,44,1
,,,,,00036,2023-09-28_19h14.39.538,vbt_B2_day3,2022.2.4,Win32,60.2373351,,,,,,,,,,,,,,,,,,,,leek,images/br_leek.png,images/cb_leek.png,,leek,,,,,,,,,,,-0.216666667,-0.287963019,1,0,0,leek,0,43,43,2,1
,,,,,00036,2023-09-28_19h14.39.538,vbt_B2_day3,2022.2.4,Win32,60.2373351,,,,,,,,,,,,,,,,,,,,keihard,images/br_keihard.png,images/cb_keihard.png,,,,,,,,,,,,,-0.216666667,-0.287963019,1,0,0,,0,44,44,14,1
,,,,,00036,2023-09-28_19h14.39.538,vbt_B2_day3,2022.2.4,Win32,60.2373351,,,,,,,,,,,,,,,,,,,,croo,images/br_croo.png,images/cb_croo.png,,.roo,,,,,,,,,,,-0.216666667,-0.287963019,1,0,0,.roo,0,45,45,22,1
,,,,,00036,2023-09-28_19h14.39.538,vbt_B2_day3,2022.2.4,Win32,60.2373351,,,,,,,,,,,,,,,,,,,,laken,images/br_laken.png,images/cb_laken.png,,lake.,,,,,,,,,,,-0.216666667,-0.287963019,1,0,0,lake.,0,46,46,5,1
,,,,,00036,2023-09-28_19h14.39.538,vbt_B2_day3,2022.2.4,Win32,60.2373351,,,,,,,,,,,,,,,,,,,,verwoor,images/br_verwoor.png,images/cb_verwoor.png,,vwrook,,,,,,,,,,,-0.216666667,-0.287963019,1,0,0,vwrook,0,47,47,32,1
,,,,,00036,2023-09-28_19h14.39.538,vbt_B2_day3,2022.2.4,Win32,60.2373351,,,,,,,,,,,,,,,,,,,,glijden,images/br_glijden.png,images/cb_glijden.png,,glijden,,,,,,,,,,,-0.214814801,-0.28148151,1,0,0,glijden,0,48,48,53,1
,,,,,00036,2023-09-28_19h14.39.538,vbt_B2_day3,2022.2.4,Win32,60.2373351,,,,,,,,,,,,,,,,,,,,afbopen,images/br_afbopen.png,images/cb_afbopen.png,,af.o....,,,,,,,,,,,-0.214814801,-0.28148151,1,0,0,af.o....,0,49,49,34,1
,,,,,00036,2023-09-28_19h14.39.538,vbt_B2_day3,2022.2.4,Win32,60.2373351,,,,,,,,,,,,,,,,,,,,samen,images/br_samen.png,images/cb_samen.png,,same.,,,,,,,,,,,-0.214814801,-0.28148151,1,0,0,same.,0,50,50,7,1
,,,,,00036,2023-09-28_19h14.39.538,vbt_B2_day3,2022.2.4,Win32,60.2373351,,,,,,,,,,,,,,,,,,,,mode,images/br_mode.png,images/cb_mode.png,,mode,,,,,,,,,,,-0.214814801,-0.28148151,1,0,0,mode,0,51,51,3,1
,,,,,00036,2023-09-28_19h14.39.538,vbt_B2_day3,2022.2.4,Win32,60.2373351,,,,,,,,,,,,,,,,,,,,schatten,images/br_schatten.png,images/cb_schatten.png,,s..a.tt...,,,,,,,,,,,-0.213888889,-0.277777778,1,0,0,s..a.tt...,0,52,52,18,1
,,,,,00036,2023-09-28_19h14.39.538,vbt_B2_day3,2022.2.4,Win32,60.2373351,,,,,,,,,,,,,,,,,,,,uniek,images/br_uniek.png,images/cb_uniek.png,,u.ie.,,,,,,,,,,,-0.213888889,-0.277777778,1,0,0,u.ie.,0,53,53,46,1
,,,,,00036,2023-09-28_19h14.39.538,vbt_B2_day3,2022.2.4,Win32,60.2373351,,,,,,,,,,,,,,,,,,,,opzicht,images/br_opzicht.png,images/cb_opzicht.png,,op.,,,,,,,,,,,-0.213888889,-0.277777778,1,0,0,op.,0,54,54,15,1
,,,,,00036,2023-09-28_19h14.39.538,vbt_B2_day3,2022.2.4,Win32,60.2373351,,,,,,,,,,,,,,,,,,,,vlager,images/br_vlager.png,images/cb_vlager.png,,vlage,,,,,,,,,,,-0.213888889,-0.277777778,1,0,0,vlage,0,55,55,28,1
,,,,,00036,2023-09-28_19h14.39.538,vbt_B2_day3,2022.2.4,Win32,60.2373351,,,,,,,,,,,,,,,,,,,,beslag,images/br_beslag.png,images/cb_beslag.png,,,,,,,,,,,,,-0.213888889,-0.277777778,1,0,0,,0,56,56,51,1
,,,,,00036,2023-09-28_19h14.39.538,vbt_B2_day3,2022.2.4,Win32,60.2373351,,,,,,,,,,,,,,,,,,,,stoom,images/br_stoom.png,images/cb_stoom.png,,,,,,,,,,,,,-0.213888889,-0.277777778,1,0,0,,0,57,57,6,1
,,,,,00036,2023-09-28_19h14.39.538,vbt_B2_day3,2022.2.4,Win32,60.2373351,,,,,,,,,,,,,,,,,,,,booien,images/br_booien.png,images/cb_booien.png,,,,,,,,,,,,,-0.213888889,-0.277777778,1,0,0,,0,58,58,31,1
,,,,,00036,2023-09-28_19h14.39.538,vbt_B2_day3,2022.2.4,Win32,60.2373351,,,,,,,,,,,,,,,,,,,,begrip,images/br_begrip.png,images/cb_begrip.png,,,,,,,,,,,,,-0.225,-0.275925954,1,0,0,,0,59,59,48,1
,,,,,00036,2023-09-28_19h14.39.538,vbt_B2_day3,2022.2.4,Win32,60.2373351,,,,,,,,,,,,,,,,,,,,,,,,,,,,,,,,,,,,,,,,,,,,,
