welcome_mouse.x,welcome_mouse.y,welcome_mouse.leftButton,welcome_mouse.midButton,welcome_mouse.rightButton,"ID",date,expName,psychopyVersion,OS,frameRate,trainInstr_mouse.x,trainInstr_mouse.y,trainInstr_mouse.leftButton,trainInstr_mouse.midButton,trainInstr_mouse.rightButton,translation_key.keys,translation_key.corr,translation_key.rt,word_rsp.text,trWrd_mouse.x,trWrd_mouse.y,trWrd_mouse.leftButton,trWrd_mouse.midButton,trWrd_mouse.rightButton,train_loop.thisRepN,train_loop.thisTrialN,train_loop.thisN,train_loop.thisIndex,train_loop.ran,nlWrd,brWrd,cbWrd,test,testResp,mouse.x,mouse.y,mouse.leftButton,mouse.midButton,mouse.rightButton,testInstr_mouse.x,testInstr_mouse.y,testInstr_mouse.leftButton,testInstr_mouse.midButton,testInstr_mouse.rightButton,test_mouse.x,test_mouse.y,test_mouse.leftButton,test_mouse.midButton,test_mouse.rightButton,test_response.text,test_loop.thisRepN,test_loop.thisTrialN,test_loop.thisN,test_loop.thisIndex,test_loop.ran
-0.092361111,-0.155555556,1,0,0,00069,2023-10-13_19h41.38.244,vbt_B2_day3,2022.2.4,Win32,144.0507058,,,,,,,,,,,,,,,,,,,,,,,,,,,,,,,,,,,,,,,,,,,,,
,,,,,00069,2023-10-13_19h41.38.244,vbt_B2_day3,2022.2.4,Win32,144.0507058,-0.1375,-0.2625,1,0,0,,,,,,,,,,,,,,,,,,,,,,,,,,,,,,,,,,,,,,,,
,,,,,00069,2023-10-13_19h41.38.244,vbt_B2_day3,2022.2.4,Win32,144.0507058,,,,,,down,0,4.3685,,0.102083333,-0.2375,1,0,0,0,0,0,37,1,mijn,images/br_mijn.png,images/cb_mijn.png,0,,,,,,,,,,,,,,,,,,,,,,
,,,,,00069,2023-10-13_19h41.38.244,vbt_B2_day3,2022.2.4,Win32,144.0507058,,,,,,down,0,4.5756,,0.16875,-0.220138889,1,0,0,0,1,1,106,1,zingen,images/br_zingen.png,images/cb_zingen.png,0,,,,,,,,,,,,,,,,,,,,,,
,,,,,00069,2023-10-13_19h41.38.244,vbt_B2_day3,2022.2.4,Win32,144.0507058,,,,,,down,0,14.1463,,0.372222222,-0.165972222,1,0,0,0,2,2,180,1,openbaar,images/br_openbaar.png,images/cb_openbaar.png,1,openbaar,,,,,,,,,,,,,,,,,,,,,
,,,,,00069,2023-10-13_19h41.38.244,vbt_B2_day3,2022.2.4,Win32,144.0507058,,,,,,down,0,12.0713,,0.372222222,-0.161111111,1,0,0,0,3,3,114,1,vullen,images/br_vullen.png,images/cb_vullen.png,0,,,,,,,,,,,,,,,,,,,,,,
,,,,,00069,2023-10-13_19h41.38.244,vbt_B2_day3,2022.2.4,Win32,144.0507058,,,,,,down,0,4.5512,,0.372222222,-0.161111111,1,0,0,0,4,4,18,1,blik,images/br_blik.png,images/cb_blik.png,0,,,,,,,,,,,,,,,,,,,,,,
,,,,,00069,2023-10-13_19h41.38.244,vbt_B2_day3,2022.2.4,Win32,144.0507058,,,,,,down,0,0.8638,,0.372222222,-0.159722222,1,0,0,0,5,5,42,1,bleek,images/br_bleek.png,images/cb_bleek.png,0,,,,,,,,,,,,,,,,,,,,,,
,,,,,00069,2023-10-13_19h41.38.244,vbt_B2_day3,2022.2.4,Win32,144.0507058,,,,,,down,0,8.5452,,0.372222222,-0.157638889,1,0,0,0,6,6,92,1,geheim,images/br_geheim.png,images/cb_geheim.png,0,,,,,,,,,,,,,,,,,,,,,,
,,,,,00069,2023-10-13_19h41.38.244,vbt_B2_day3,2022.2.4,Win32,144.0507058,,,,,,down,0,1.1051,,0.377083333,-0.144444444,1,0,0,0,7,7,64,1,wegen,images/br_wegen.png,images/cb_wegen.png,0,,,,,,,,,,,,,,,,,,,,,,
,,,,,00069,2023-10-13_19h41.38.244,vbt_B2_day3,2022.2.4,Win32,144.0507058,,,,,,down,0,4.6143,,0.377083333,-0.144444444,1,0,0,0,8,8,138,1,akkoord,images/br_akkoord.png,images/cb_akkoord.png,0,,,,,,,,,,,,,,,,,,,,,,
,,,,,00069,2023-10-13_19h41.38.244,vbt_B2_day3,2022.2.4,Win32,144.0507058,,,,,,down,0,3.7263,,0.40625,-0.148611111,1,0,0,0,9,9,62,1,knaap,images/br_knaap.png,images/cb_knaap.png,1,knaap,,,,,,,,,,,,,,,,,,,,,
,,,,,00069,2023-10-13_19h41.38.244,vbt_B2_day3,2022.2.4,Win32,144.0507058,,,,,,down,0,3.9755,,0.40625,-0.148611111,1,0,0,0,10,10,179,1,woestijn,images/br_woestijn.png,images/cb_woestijn.png,0,,,,,,,,,,,,,,,,,,,,,,
,,,,,00069,2023-10-13_19h41.38.244,vbt_B2_day3,2022.2.4,Win32,144.0507058,,,,,,down,0,3.9595,,0.40625,-0.148611111,1,0,0,0,11,11,35,1,lust,images/br_lust.png,images/cb_lust.png,0,,,,,,,,,,,,,,,,,,,,,,
,,,,,00069,2023-10-13_19h41.38.244,vbt_B2_day3,2022.2.4,Win32,144.0507058,,,,,,down,0,10.9344,,0.421527778,-0.133333333,1,0,0,0,12,12,129,1,verhaal,images/br_verhaal.png,images/cb_verhaal.png,0,,,,,,,,,,,,,,,,,,,,,,
,,,,,00069,2023-10-13_19h41.38.244,vbt_B2_day3,2022.2.4,Win32,144.0507058,,,,,,down,0,2.5361,,0.418055556,-0.130555556,1,0,0,0,13,13,22,1,stof,images/br_stof.png,images/cb_stof.png,1,stof,,,,,,,,,,,,,,,,,,,,,
,,,,,00069,2023-10-13_19h41.38.244,vbt_B2_day3,2022.2.4,Win32,144.0507058,,,,,,down,0,1.0073,,0.433333333,-0.1375,1,0,0,0,14,14,39,1,laag,images/br_laag.png,images/cb_laag.png,0,,,,,,,,,,,,,,,,,,,,,,
,,,,,00069,2023-10-13_19h41.38.244,vbt_B2_day3,2022.2.4,Win32,144.0507058,,,,,,down,0,2.5784,,0.5,-0.177777778,1,0,0,0,15,15,15,1,soda,images/br_soda.png,images/cb_soda.png,0,,,,,,,,,,,,,,,,,,,,,,
,,,,,00069,2023-10-13_19h41.38.244,vbt_B2_day3,2022.2.4,Win32,144.0507058,,,,,,down,0,5.0019,,0.5,-0.177777778,1,0,0,0,16,16,135,1,gedicht,images/br_gedicht.png,images/cb_gedicht.png,0,,,,,,,,,,,,,,,,,,,,,,
,,,,,00069,2023-10-13_19h41.38.244,vbt_B2_day3,2022.2.4,Win32,144.0507058,,,,,,down,0,23.6641,,0.508333333,-0.155555556,1,0,0,0,17,17,127,1,doodmoe,images/br_doodmoe.png,images/cb_doodmoe.png,0,,,,,,,,,,,,,,,,,,,,,,
,,,,,00069,2023-10-13_19h41.38.244,vbt_B2_day3,2022.2.4,Win32,144.0507058,,,,,,down,0,0.3335,,0.518055556,-0.161805556,1,0,0,0,18,18,33,1,vlek,images/br_vlek.png,images/cb_vlek.png,0,,,,,,,,,,,,,,,,,,,,,,
,,,,,00069,2023-10-13_19h41.38.244,vbt_B2_day3,2022.2.4,Win32,144.0507058,,,,,,down,0,2.1842,,0.522222222,-0.159027778,1,0,0,0,19,19,11,1,mode,images/br_mode.png,images/cb_mode.png,0,,,,,,,,,,,,,,,,,,,,,,
,,,,,00069,2023-10-13_19h41.38.244,vbt_B2_day3,2022.2.4,Win32,144.0507058,,,,,,down,0,7.8403,,0.494444444,-0.077083333,1,0,0,0,20,20,173,1,apparaat,images/br_apparaat.png,images/cb_apparaat.png,0,,,,,,,,,,,,,,,,,,,,,,
,,,,,00069,2023-10-13_19h41.38.244,vbt_B2_day3,2022.2.4,Win32,144.0507058,,,,,,down,0,1.4105,,0.494444444,-0.077083333,1,0,0,0,21,21,68,1,schat,images/br_schat.png,images/cb_schat.png,0,,,,,,,,,,,,,,,,,,,,,,
,,,,,00069,2023-10-13_19h41.38.244,vbt_B2_day3,2022.2.4,Win32,144.0507058,,,,,,down,0,2.4257,,0.494444444,-0.077083333,1,0,0,0,22,22,3,1,mand,images/br_mand.png,images/cb_mand.png,0,,,,,,,,,,,,,,,,,,,,,,
,,,,,00069,2023-10-13_19h41.38.244,vbt_B2_day3,2022.2.4,Win32,144.0507058,,,,,,down,0,6.9228,,0.495138889,-0.072222222,1,0,0,0,23,23,154,1,aflopen,images/br_aflopen.png,images/cb_aflopen.png,0,,,,,,,,,,,,,,,,,,,,,,
,,,,,00069,2023-10-13_19h41.38.244,vbt_B2_day3,2022.2.4,Win32,144.0507058,,,,,,down,0,2.5728,,0.495138889,-0.072222222,1,0,0,0,24,24,104,1,zweven,images/br_zweven.png,images/cb_zweven.png,0,,,,,,,,,,,,,,,,,,,,,,
,,,,,00069,2023-10-13_19h41.38.244,vbt_B2_day3,2022.2.4,Win32,144.0507058,,,,,,down,0,30.2262,,0.508333333,0.072222222,1,0,0,0,25,25,8,1,knie,images/br_knie.png,images/cb_knie.png,0,,,,,,,,,,,,,,,,,,,,,,
,,,,,00069,2023-10-13_19h41.38.244,vbt_B2_day3,2022.2.4,Win32,144.0507058,,,,,,down,0,2.8143,,0.468055556,0.043055556,1,0,0,0,26,26,86,1,woning,images/br_woning.png,images/cb_woning.png,0,,,,,,,,,,,,,,,,,,,,,,
,,,,,00069,2023-10-13_19h41.38.244,vbt_B2_day3,2022.2.4,Win32,144.0507058,,,,,,down,0,5.5675,,0.468055556,0.043055556,1,0,0,0,27,27,60,1,jasje,images/br_jasje.png,images/cb_jasje.png,1,jasje,,,,,,,,,,,,,,,,,,,,,
,,,,,00069,2023-10-13_19h41.38.244,vbt_B2_day3,2022.2.4,Win32,144.0507058,,,,,,down,0,11.4235,,0.468055556,-0.013194444,1,0,0,0,28,28,133,1,seizoen,images/br_seizoen.png,images/cb_seizoen.png,0,,,,,,,,,,,,,,,,,,,,,,
,,,,,00069,2023-10-13_19h41.38.244,vbt_B2_day3,2022.2.4,Win32,144.0507058,,,,,,down,0,1.7788,,0.509722222,-0.011111111,1,0,0,0,29,29,71,1,bever,images/br_bever.png,images/cb_bever.png,0,,,,,,,,,,,,,,,,,,,,,,
,,,,,00069,2023-10-13_19h41.38.244,vbt_B2_day3,2022.2.4,Win32,144.0507058,,,,,,down,0,2.9359,,0.509722222,-0.011111111,1,0,0,0,30,30,166,1,strikken,images/br_strikken.png,images/cb_strikken.png,0,,,,,,,,,,,,,,,,,,,,,,
,,,,,00069,2023-10-13_19h41.38.244,vbt_B2_day3,2022.2.4,Win32,144.0507058,,,,,,down,0,2.9107,,0.509722222,-0.011111111,1,0,0,0,31,31,157,1,uitlaat,images/br_uitlaat.png,images/cb_uitlaat.png,0,,,,,,,,,,,,,,,,,,,,,,
,,,,,00069,2023-10-13_19h41.38.244,vbt_B2_day3,2022.2.4,Win32,144.0507058,,,,,,down,0,3.5658,,0.508333333,-0.059027778,1,0,0,0,32,32,198,1,bedoelen,images/br_bedoelen.png,images/cb_bedoelen.png,0,,,,,,,,,,,,,,,,,,,,,,
,,,,,00069,2023-10-13_19h41.38.244,vbt_B2_day3,2022.2.4,Win32,144.0507058,,,,,,down,0,2.4086,,0.508333333,-0.059027778,1,0,0,0,33,33,87,1,toeval,images/br_toeval.png,images/cb_toeval.png,0,,,,,,,,,,,,,,,,,,,,,,
,,,,,00069,2023-10-13_19h41.38.244,vbt_B2_day3,2022.2.4,Win32,144.0507058,,,,,,down,0,1.5318,,0.505555556,-0.058333333,1,0,0,0,34,34,19,1,geit,images/br_geit.png,images/cb_geit.png,0,,,,,,,,,,,,,,,,,,,,,,
,,,,,00069,2023-10-13_19h41.38.244,vbt_B2_day3,2022.2.4,Win32,144.0507058,,,,,,down,0,5.7169,,0.506944444,-0.039583333,1,0,0,0,35,35,31,1,poes,images/br_poes.png,images/cb_poes.png,0,,,,,,,,,,,,,,,,,,,,,,
,,,,,00069,2023-10-13_19h41.38.244,vbt_B2_day3,2022.2.4,Win32,144.0507058,,,,,,down,0,5.191,,0.506944444,-0.034722222,1,0,0,0,36,36,76,1,afval,images/br_afval.png,images/cb_afval.png,0,,,,,,,,,,,,,,,,,,,,,,
,,,,,00069,2023-10-13_19h41.38.244,vbt_B2_day3,2022.2.4,Win32,144.0507058,,,,,,down,0,4.0043,,0.493055556,-0.026388889,1,0,0,0,37,37,181,1,toegeven,images/br_toegeven.png,images/cb_toegeven.png,1,toegeven,,,,,,,,,,,,,,,,,,,,,
,,,,,00069,2023-10-13_19h41.38.244,vbt_B2_day3,2022.2.4,Win32,144.0507058,,,,,,down,0,2.426,,0.459027778,-0.04375,1,0,0,0,38,38,2,1,jaar,images/br_jaar.png,images/cb_jaar.png,0,,,,,,,,,,,,,,,,,,,,,,
,,,,,00069,2023-10-13_19h41.38.244,vbt_B2_day3,2022.2.4,Win32,144.0507058,,,,,,down,0,2.07,,0.459027778,-0.04375,1,0,0,0,39,39,150,1,gegeven,images/br_gegeven.png,images/cb_gegeven.png,0,,,,,,,,,,,,,,,,,,,,,,
,,,,,00069,2023-10-13_19h41.38.244,vbt_B2_day3,2022.2.4,Win32,144.0507058,,,,,,down,0,1.2478,,0.459027778,-0.055555556,1,0,0,0,40,40,29,1,baas,images/br_baas.png,images/cb_baas.png,0,,,,,,,,,,,,,,,,,,,,,,
,,,,,00069,2023-10-13_19h41.38.244,vbt_B2_day3,2022.2.4,Win32,144.0507058,,,,,,down,0,4.8162,,0.519444444,-0.08125,1,0,0,0,41,41,101,1,staren,images/br_staren.png,images/cb_staren.png,1,staren,,,,,,,,,,,,,,,,,,,,,
,,,,,00069,2023-10-13_19h41.38.244,vbt_B2_day3,2022.2.4,Win32,144.0507058,,,,,,down,0,3.9843,,0.415277778,-0.104861111,1,0,0,0,42,42,151,1,aanzoek,images/br_aanzoek.png,images/cb_aanzoek.png,0,,,,,,,,,,,,,,,,,,,,,,
,,,,,00069,2023-10-13_19h41.38.244,vbt_B2_day3,2022.2.4,Win32,144.0507058,,,,,,down,0,5.2796,,0.415277778,-0.104861111,1,0,0,0,43,43,53,1,baron,images/br_baron.png,images/cb_baron.png,0,,,,,,,,,,,,,,,,,,,,,,
,,,,,00069,2023-10-13_19h41.38.244,vbt_B2_day3,2022.2.4,Win32,144.0507058,,,,,,down,0,4.1727,,0.588194444,-0.39375,1,0,0,0,44,44,102,1,legaal,images/br_legaal.png,images/cb_legaal.png,1,legaal,,,,,,,,,,,,,,,,,,,,,
,,,,,00069,2023-10-13_19h41.38.244,vbt_B2_day3,2022.2.4,Win32,144.0507058,,,,,,down,0,9.9056,,0.543055556,-0.365277778,1,0,0,0,45,45,93,1,waarop,images/br_waarop.png,images/cb_waarop.png,0,,,,,,,,,,,,,,,,,,,,,,
,,,,,00069,2023-10-13_19h41.38.244,vbt_B2_day3,2022.2.4,Win32,144.0507058,,,,,,down,0,3.4344,,0.543055556,-0.365277778,1,0,0,0,46,46,148,1,smullen,images/br_smullen.png,images/cb_smullen.png,0,,,,,,,,,,,,,,,,,,,,,,
,,,,,00069,2023-10-13_19h41.38.244,vbt_B2_day3,2022.2.4,Win32,144.0507058,,,,,,down,0,1.0717,,0.543055556,-0.365277778,1,0,0,0,47,47,73,1,volop,images/br_volop.png,images/cb_volop.png,0,,,,,,,,,,,,,,,,,,,,,,
,,,,,00069,2023-10-13_19h41.38.244,vbt_B2_day3,2022.2.4,Win32,144.0507058,,,,,,down,0,6.1143,,0.543055556,-0.365277778,1,0,0,0,48,48,167,1,eenhoorn,images/br_eenhoorn.png,images/cb_eenhoorn.png,0,,,,,,,,,,,,,,,,,,,,,,
,,,,,00069,2023-10-13_19h41.38.244,vbt_B2_day3,2022.2.4,Win32,144.0507058,,,,,,down,0,4.4784,,0.543055556,-0.365277778,1,0,0,0,49,49,140,1,blijven,images/br_blijven.png,images/cb_blijven.png,1,blijven,,,,,,,,,,,,,,,,,,,,,
,,,,,00069,2023-10-13_19h41.38.244,vbt_B2_day3,2022.2.4,Win32,144.0507058,,,,,,down,0,5.6549,,0.543055556,-0.365277778,1,0,0,0,50,50,195,1,middelen,images/br_middelen.png,images/cb_middelen.png,0,,,,,,,,,,,,,,,,,,,,,,
,,,,,00069,2023-10-13_19h41.38.244,vbt_B2_day3,2022.2.4,Win32,144.0507058,,,,,,down,0,8.4768,,0.543055556,-0.365277778,1,0,0,0,51,51,149,1,redding,images/br_redding.png,images/cb_redding.png,0,,,,,,,,,,,,,,,,,,,,,,
,,,,,00069,2023-10-13_19h41.38.244,vbt_B2_day3,2022.2.4,Win32,144.0507058,,,,,,down,0,11.3978,,-0.339583333,-0.272222222,1,0,0,0,52,52,41,1,maken,images/br_maken.png,images/cb_maken.png,0,,,,,,,,,,,,,,,,,,,,,,
,,,,,00069,2023-10-13_19h41.38.244,vbt_B2_day3,2022.2.4,Win32,144.0507058,,,,,,down,0,2.7001,,-0.339583333,-0.272222222,1,0,0,0,53,53,187,1,opkijken,images/br_opkijken.png,images/cb_opkijken.png,0,,,,,,,,,,,,,,,,,,,,,,
,,,,,00069,2023-10-13_19h41.38.244,vbt_B2_day3,2022.2.4,Win32,144.0507058,,,,,,down,0,15.6107,,-0.242361111,-0.138194444,1,0,0,0,54,54,130,1,keihard,images/br_keihard.png,images/cb_keihard.png,0,,,,,,,,,,,,,,,,,,,,,,
,,,,,00069,2023-10-13_19h41.38.244,vbt_B2_day3,2022.2.4,Win32,144.0507058,,,,,,down,0,14.0942,,-0.21875,-0.074305556,1,0,0,0,55,55,94,1,oceaan,images/br_oceaan.png,images/cb_oceaan.png,0,,,,,,,,,,,,,,,,,,,,,,
,,,,,00069,2023-10-13_19h41.38.244,vbt_B2_day3,2022.2.4,Win32,144.0507058,,,,,,down,0,21.1634,,-0.152083333,-0.184027778,1,0,0,0,56,56,182,1,bijkomen,images/br_bijkomen.png,images/cb_bijkomen.png,1,bijkomen,,,,,,,,,,,,,,,,,,,,,
,,,,,00069,2023-10-13_19h41.38.244,vbt_B2_day3,2022.2.4,Win32,144.0507058,,,,,,down,0,9.2101,,-0.095833333,-0.165972222,1,0,0,0,57,57,58,1,tekst,images/br_tekst.png,images/cb_tekst.png,0,,,,,,,,,,,,,,,,,,,,,,
,,,,,00069,2023-10-13_19h41.38.244,vbt_B2_day3,2022.2.4,Win32,144.0507058,,,,,,down,0,8.5804,,0.036805556,-0.184027778,1,0,0,0,58,58,194,1,driemaal,images/br_driemaal.png,images/cb_driemaal.png,0,,,,,,,,,,,,,,,,,,,,,,
,,,,,00069,2023-10-13_19h41.38.244,vbt_B2_day3,2022.2.4,Win32,144.0507058,,,,,,down,0,6.2209,,0.036805556,-0.184027778,1,0,0,0,59,59,52,1,wagon,images/br_wagon.png,images/cb_wagon.png,0,,,,,,,,,,,,,,,,,,,,,,
,,,,,00069,2023-10-13_19h41.38.244,vbt_B2_day3,2022.2.4,Win32,144.0507058,,,,,,down,0,1.5338,,0.036805556,-0.190972222,1,0,0,0,60,60,88,1,boeien,images/br_boeien.png,images/cb_boeien.png,0,,,,,,,,,,,,,,,,,,,,,,
,,,,,00069,2023-10-13_19h41.38.244,vbt_B2_day3,2022.2.4,Win32,144.0507058,,,,,,down,0,9.9002,,0.038194444,-0.189583333,1,0,0,0,61,61,190,1,goedkoop,images/br_goedkoop.png,images/cb_goedkoop.png,0,,,,,,,,,,,,,,,,,,,,,,
,,,,,00069,2023-10-13_19h41.38.244,vbt_B2_day3,2022.2.4,Win32,144.0507058,,,,,,down,0,3.7684,,0.195138889,-0.147916667,1,0,0,0,62,62,186,1,voorraad,images/br_voorraad.png,images/cb_voorraad.png,0,,,,,,,,,,,,,,,,,,,,,,
,,,,,00069,2023-10-13_19h41.38.244,vbt_B2_day3,2022.2.4,Win32,144.0507058,,,,,,down,0,0.8943,,0.195138889,-0.147916667,1,0,0,0,63,63,171,1,aarzelen,images/br_aarzelen.png,images/cb_aarzelen.png,0,,,,,,,,,,,,,,,,,,,,,,
,,,,,00069,2023-10-13_19h41.38.244,vbt_B2_day3,2022.2.4,Win32,144.0507058,,,,,,down,0,4.3273,,0.195138889,-0.147916667,1,0,0,0,64,64,81,1,dubbel,images/br_dubbel.png,images/cb_dubbel.png,0,,,,,,,,,,,,,,,,,,,,,,
,,,,,00069,2023-10-13_19h41.38.244,vbt_B2_day3,2022.2.4,Win32,144.0507058,,,,,,down,0,4.5998,,0.195138889,-0.147916667,1,0,0,0,65,65,121,1,twijfel,images/br_twijfel.png,images/cb_twijfel.png,0,,,,,,,,,,,,,,,,,,,,,,
,,,,,00069,2023-10-13_19h41.38.244,vbt_B2_day3,2022.2.4,Win32,144.0507058,,,,,,down,0,27.9369,,0.195138889,-0.134027778,1,0,0,0,66,66,9,1,hier,images/br_hier.png,images/cb_hier.png,0,,,,,,,,,,,,,,,,,,,,,,
,,,,,00069,2023-10-13_19h41.38.244,vbt_B2_day3,2022.2.4,Win32,144.0507058,,,,,,down,0,2.1493,,0.202777778,-0.127777778,1,0,0,0,67,67,23,1,zout,images/br_zout.png,images/cb_zout.png,1,zout,,,,,,,,,,,,,,,,,,,,,
,,,,,00069,2023-10-13_19h41.38.244,vbt_B2_day3,2022.2.4,Win32,144.0507058,,,,,,down,0,4.7552,,0.202777778,-0.127777778,1,0,0,0,68,68,162,1,uitdelen,images/br_uitdelen.png,images/cb_uitdelen.png,0,,,,,,,,,,,,,,,,,,,,,,
,,,,,00069,2023-10-13_19h41.38.244,vbt_B2_day3,2022.2.4,Win32,144.0507058,,,,,,down,0,0.9389,,0.21875,-0.127777778,1,0,0,0,69,69,56,1,traag,images/br_traag.png,images/cb_traag.png,0,,,,,,,,,,,,,,,,,,,,,,
,,,,,00069,2023-10-13_19h41.38.244,vbt_B2_day3,2022.2.4,Win32,144.0507058,,,,,,down,0,3.2783,,0.21875,-0.127777778,1,0,0,0,70,70,14,1,rijp,images/br_rijp.png,images/cb_rijp.png,0,,,,,,,,,,,,,,,,,,,,,,
,,,,,00069,2023-10-13_19h41.38.244,vbt_B2_day3,2022.2.4,Win32,144.0507058,,,,,,down,0,0.405,,0.21875,-0.127777778,1,0,0,0,71,71,0,1,slak,images/br_slak.png,images/cb_slak.png,0,,,,,,,,,,,,,,,,,,,,,,
,,,,,00069,2023-10-13_19h41.38.244,vbt_B2_day3,2022.2.4,Win32,144.0507058,,,,,,down,0,3.9829,,0.23125,-0.13125,1,0,0,0,72,72,169,1,oprotten,images/br_oprotten.png,images/cb_oprotten.png,0,,,,,,,,,,,,,,,,,,,,,,
,,,,,00069,2023-10-13_19h41.38.244,vbt_B2_day3,2022.2.4,Win32,144.0507058,,,,,,down,0,14.1972,,-0.143055556,-0.082638889,1,0,0,0,73,73,128,1,prikken,images/br_prikken.png,images/cb_prikken.png,0,,,,,,,,,,,,,,,,,,,,,,
,,,,,00069,2023-10-13_19h41.38.244,vbt_B2_day3,2022.2.4,Win32,144.0507058,,,,,,down,0,10.9141,,0.051388889,-0.017361111,1,0,0,0,74,74,196,1,nakijken,images/br_nakijken.png,images/cb_nakijken.png,0,,,,,,,,,,,,,,,,,,,,,,
,,,,,00069,2023-10-13_19h41.38.244,vbt_B2_day3,2022.2.4,Win32,144.0507058,,,,,,down,0,4.7932,,0.028472222,-0.126388889,1,0,0,0,75,75,47,1,kabel,images/br_kabel.png,images/cb_kabel.png,0,,,,,,,,,,,,,,,,,,,,,,
,,,,,00069,2023-10-13_19h41.38.244,vbt_B2_day3,2022.2.4,Win32,144.0507058,,,,,,down,0,8.6785,,0.027777778,-0.120833333,1,0,0,0,76,76,143,1,hechten,images/br_hechten.png,images/cb_hechten.png,1,hechten,,,,,,,,,,,,,,,,,,,,,
,,,,,00069,2023-10-13_19h41.38.244,vbt_B2_day3,2022.2.4,Win32,144.0507058,,,,,,down,0,5.4274,,0.036111111,-0.2,1,0,0,0,77,77,119,1,liefje,images/br_liefje.png,images/cb_liefje.png,0,,,,,,,,,,,,,,,,,,,,,,
,,,,,00069,2023-10-13_19h41.38.244,vbt_B2_day3,2022.2.4,Win32,144.0507058,,,,,,down,0,0.2666,,0.036111111,-0.2,1,0,0,0,78,78,13,1,kaal,images/br_kaal.png,images/cb_kaal.png,0,,,,,,,,,,,,,,,,,,,,,,
,,,,,00069,2023-10-13_19h41.38.244,vbt_B2_day3,2022.2.4,Win32,144.0507058,,,,,,down,0,1.6845,,0.035416667,-0.211805556,1,0,0,0,79,79,70,1,ijdel,images/br_ijdel.png,images/cb_ijdel.png,0,,,,,,,,,,,,,,,,,,,,,,
,,,,,00069,2023-10-13_19h41.38.244,vbt_B2_day3,2022.2.4,Win32,144.0507058,,,,,,down,0,7.9807,,0.034722222,-0.211805556,1,0,0,0,80,80,65,1,parel,images/br_parel.png,images/cb_parel.png,0,,,,,,,,,,,,,,,,,,,,,,
,,,,,00069,2023-10-13_19h41.38.244,vbt_B2_day3,2022.2.4,Win32,144.0507058,,,,,,down,0,0.411,,-0.017361111,-0.195833333,1,0,0,0,81,81,57,1,steek,images/br_steek.png,images/cb_steek.png,0,,,,,,,,,,,,,,,,,,,,,,
,,,,,00069,2023-10-13_19h41.38.244,vbt_B2_day3,2022.2.4,Win32,144.0507058,,,,,,down,0,1.9137,,-0.017361111,-0.198611111,1,0,0,0,82,82,85,1,heilig,images/br_heilig.png,images/cb_heilig.png,0,,,,,,,,,,,,,,,,,,,,,,
,,,,,00069,2023-10-13_19h41.38.244,vbt_B2_day3,2022.2.4,Win32,144.0507058,,,,,,down,0,5.4432,,-0.018055556,-0.195138889,1,0,0,0,83,83,164,1,anarchie,images/br_anarchie.png,images/cb_anarchie.png,0,,,,,,,,,,,,,,,,,,,,,,
,,,,,00069,2023-10-13_19h41.38.244,vbt_B2_day3,2022.2.4,Win32,144.0507058,,,,,,down,0,5.2113,,-0.014583333,-0.15,1,0,0,0,84,84,159,1,sufferd,images/br_sufferd.png,images/cb_sufferd.png,0,,,,,,,,,,,,,,,,,,,,,,
,,,,,00069,2023-10-13_19h41.38.244,vbt_B2_day3,2022.2.4,Win32,144.0507058,,,,,,down,0,33.6179,,0.013888889,-0.157638889,1,0,0,0,85,85,95,1,vreten,images/br_vreten.png,images/cb_vreten.png,0,,,,,,,,,,,,,,,,,,,,,,
,,,,,00069,2023-10-13_19h41.38.244,vbt_B2_day3,2022.2.4,Win32,144.0507058,,,,,,down,0,2.2852,,0.013888889,-0.157638889,1,0,0,0,86,86,117,1,kennis,images/br_kennis.png,images/cb_kennis.png,0,,,,,,,,,,,,,,,,,,,,,,
,,,,,00069,2023-10-13_19h41.38.244,vbt_B2_day3,2022.2.4,Win32,144.0507058,,,,,,down,0,0.646,,0.014583333,-0.149305556,1,0,0,0,87,87,48,1,steel,images/br_steel.png,images/cb_steel.png,0,,,,,,,,,,,,,,,,,,,,,,
,,,,,00069,2023-10-13_19h41.38.244,vbt_B2_day3,2022.2.4,Win32,144.0507058,,,,,,down,0,4.0663,,0.013194444,-0.138194444,1,0,0,0,88,88,20,1,site,images/br_site.png,images/cb_site.png,1,site,,,,,,,,,,,,,,,,,,,,,
,,,,,00069,2023-10-13_19h41.38.244,vbt_B2_day3,2022.2.4,Win32,144.0507058,,,,,,down,0,4.4082,,0.013194444,-0.138194444,1,0,0,0,89,89,183,1,getuigen,images/br_getuigen.png,images/cb_getuigen.png,1,getuigen,,,,,,,,,,,,,,,,,,,,,
,,,,,00069,2023-10-13_19h41.38.244,vbt_B2_day3,2022.2.4,Win32,144.0507058,,,,,,down,0,3.579,,0.021527778,-0.158333333,1,0,0,0,90,90,112,1,lukken,images/br_lukken.png,images/cb_lukken.png,0,,,,,,,,,,,,,,,,,,,,,,
,,,,,00069,2023-10-13_19h41.38.244,vbt_B2_day3,2022.2.4,Win32,144.0507058,,,,,,down,0,1.5226,,0.018055556,-0.165972222,1,0,0,0,91,91,144,1,eetlust,images/br_eetlust.png,images/cb_eetlust.png,0,,,,,,,,,,,,,,,,,,,,,,
,,,,,00069,2023-10-13_19h41.38.244,vbt_B2_day3,2022.2.4,Win32,144.0507058,,,,,,down,0,3.7335,,0.018055556,-0.165972222,1,0,0,0,92,92,192,1,schaamte,images/br_schaamte.png,images/cb_schaamte.png,0,,,,,,,,,,,,,,,,,,,,,,
,,,,,00069,2023-10-13_19h41.38.244,vbt_B2_day3,2022.2.4,Win32,144.0507058,,,,,,down,0,0.5857,,0.018055556,-0.165972222,1,0,0,0,93,93,28,1,stal,images/br_stal.png,images/cb_stal.png,0,,,,,,,,,,,,,,,,,,,,,,
,,,,,00069,2023-10-13_19h41.38.244,vbt_B2_day3,2022.2.4,Win32,144.0507058,,,,,,down,0,6.9052,,0.018055556,-0.165972222,1,0,0,0,94,94,63,1,flirt,images/br_flirt.png,images/cb_flirt.png,1,flirt,,,,,,,,,,,,,,,,,,,,,
,,,,,00069,2023-10-13_19h41.38.244,vbt_B2_day3,2022.2.4,Win32,144.0507058,,,,,,down,0,15.3644,,0.147916667,-0.120833333,1,0,0,0,95,95,123,1,hiervan,images/br_hiervan.png,images/cb_hiervan.png,0,,,,,,,,,,,,,,,,,,,,,,
,,,,,00069,2023-10-13_19h41.38.244,vbt_B2_day3,2022.2.4,Win32,144.0507058,,,,,,down,0,3.5748,,0.146527778,-0.128472222,1,0,0,0,96,96,6,1,diep,images/br_diep.png,images/cb_diep.png,0,,,,,,,,,,,,,,,,,,,,,,
,,,,,00069,2023-10-13_19h41.38.244,vbt_B2_day3,2022.2.4,Win32,144.0507058,,,,,,down,0,7.6342,,0.146527778,-0.131944444,1,0,0,0,97,97,176,1,techniek,images/br_techniek.png,images/cb_techniek.png,0,,,,,,,,,,,,,,,,,,,,,,
,,,,,00069,2023-10-13_19h41.38.244,vbt_B2_day3,2022.2.4,Win32,144.0507058,,,,,,down,0,3.4994,,0.146527778,-0.131944444,1,0,0,0,98,98,146,1,opkomen,images/br_opkomen.png,images/cb_opkomen.png,0,,,,,,,,,,,,,,,,,,,,,,
,,,,,00069,2023-10-13_19h41.38.244,vbt_B2_day3,2022.2.4,Win32,144.0507058,,,,,,down,0,1.1396,,0.146527778,-0.131944444,1,0,0,0,99,99,1,1,zaal,images/br_zaal.png,images/cb_zaal.png,0,,,,,,,,,,,,,,,,,,,,,,
,,,,,00069,2023-10-13_19h41.38.244,vbt_B2_day3,2022.2.4,Win32,144.0507058,,,,,,down,0,1.9656,,0.146527778,-0.131944444,1,0,0,0,100,100,137,1,trekker,images/br_trekker.png,images/cb_trekker.png,0,,,,,,,,,,,,,,,,,,,,,,
,,,,,00069,2023-10-13_19h41.38.244,vbt_B2_day3,2022.2.4,Win32,144.0507058,,,,,,down,0,4.0603,,0.146527778,-0.131944444,1,0,0,0,101,101,170,1,schatten,images/br_schatten.png,images/cb_schatten.png,0,,,,,,,,,,,,,,,,,,,,,,
,,,,,00069,2023-10-13_19h41.38.244,vbt_B2_day3,2022.2.4,Win32,144.0507058,,,,,,down,0,19.167,,0.125694444,-0.138194444,1,0,0,0,102,102,199,1,beseffen,images/br_beseffen.png,images/cb_beseffen.png,0,,,,,,,,,,,,,,,,,,,,,,
,,,,,00069,2023-10-13_19h41.38.244,vbt_B2_day3,2022.2.4,Win32,144.0507058,,,,,,down,0,13.2476,,-0.563194444,-0.152777778,1,0,0,0,103,103,188,1,strekken,images/br_strekken.png,images/cb_strekken.png,0,,,,,,,,,,,,,,,,,,,,,,
,,,,,00069,2023-10-13_19h41.38.244,vbt_B2_day3,2022.2.4,Win32,144.0507058,,,,,,down,0,2.689,,-0.35,-0.147916667,1,0,0,0,104,104,99,1,koffie,images/br_koffie.png,images/cb_koffie.png,0,,,,,,,,,,,,,,,,,,,,,,
,,,,,00069,2023-10-13_19h41.38.244,vbt_B2_day3,2022.2.4,Win32,144.0507058,,,,,,down,0,8.5531,,-0.211111111,-0.127083333,1,0,0,0,105,105,90,1,geluid,images/br_geluid.png,images/cb_geluid.png,0,,,,,,,,,,,,,,,,,,,,,,
,,,,,00069,2023-10-13_19h41.38.244,vbt_B2_day3,2022.2.4,Win32,144.0507058,,,,,,down,0,7.8426,,-0.216666667,-0.121527778,1,0,0,0,106,106,165,1,feestdag,images/br_feestdag.png,images/cb_feestdag.png,0,,,,,,,,,,,,,,,,,,,,,,
,,,,,00069,2023-10-13_19h41.38.244,vbt_B2_day3,2022.2.4,Win32,144.0507058,,,,,,down,0,8.8571,,-0.222916667,-0.083333333,1,0,0,0,107,107,172,1,weigeren,images/br_weigeren.png,images/cb_weigeren.png,0,,,,,,,,,,,,,,,,,,,,,,
,,,,,00069,2023-10-13_19h41.38.244,vbt_B2_day3,2022.2.4,Win32,144.0507058,,,,,,down,0,5.9878,,-0.109722222,-0.078472222,1,0,0,0,108,108,122,1,waarvan,images/br_waarvan.png,images/cb_waarvan.png,0,,,,,,,,,,,,,,,,,,,,,,
,,,,,00069,2023-10-13_19h41.38.244,vbt_B2_day3,2022.2.4,Win32,144.0507058,,,,,,down,0,1.3981,,-0.109722222,-0.078472222,1,0,0,0,109,109,77,1,woede,images/br_woede.png,images/cb_woede.png,0,,,,,,,,,,,,,,,,,,,,,,
,,,,,00069,2023-10-13_19h41.38.244,vbt_B2_day3,2022.2.4,Win32,144.0507058,,,,,,down,0,7.8038,,-0.109722222,-0.078472222,1,0,0,0,110,110,67,1,zwart,images/br_zwart.png,images/cb_zwart.png,0,,,,,,,,,,,,,,,,,,,,,,
,,,,,00069,2023-10-13_19h41.38.244,vbt_B2_day3,2022.2.4,Win32,144.0507058,,,,,,down,0,5.9006,,-0.106944444,-0.165972222,1,0,0,0,111,111,16,1,ziek,images/br_ziek.png,images/cb_ziek.png,0,,,,,,,,,,,,,,,,,,,,,,
,,,,,00069,2023-10-13_19h41.38.244,vbt_B2_day3,2022.2.4,Win32,144.0507058,,,,,,down,0,6.1745,,-0.105555556,-0.173611111,1,0,0,0,112,112,191,1,opheffen,images/br_opheffen.png,images/cb_opheffen.png,0,,,,,,,,,,,,,,,,,,,,,,
,,,,,00069,2023-10-13_19h41.38.244,vbt_B2_day3,2022.2.4,Win32,144.0507058,,,,,,down,0,2.5611,,-0.134722222,-0.147916667,1,0,0,0,113,113,61,1,groen,images/br_groen.png,images/cb_groen.png,1,groen,,,,,,,,,,,,,,,,,,,,,
,,,,,00069,2023-10-13_19h41.38.244,vbt_B2_day3,2022.2.4,Win32,144.0507058,,,,,,down,0,3.5164,,-0.134722222,-0.147916667,1,0,0,0,114,114,27,1,dans,images/br_dans.png,images/cb_dans.png,0,,,,,,,,,,,,,,,,,,,,,,
,,,,,00069,2023-10-13_19h41.38.244,vbt_B2_day3,2022.2.4,Win32,144.0507058,,,,,,down,0,6.4458,,-0.134722222,-0.147916667,1,0,0,0,115,115,105,1,wijlen,images/br_wijlen.png,images/cb_wijlen.png,0,,,,,,,,,,,,,,,,,,,,,,
,,,,,00069,2023-10-13_19h41.38.244,vbt_B2_day3,2022.2.4,Win32,144.0507058,,,,,,down,0,9.9124,,-0.134722222,-0.147916667,1,0,0,0,116,116,51,1,samen,images/br_samen.png,images/cb_samen.png,0,,,,,,,,,,,,,,,,,,,,,,
,,,,,00069,2023-10-13_19h41.38.244,vbt_B2_day3,2022.2.4,Win32,144.0507058,,,,,,down,0,7.6043,,-0.134027778,-0.156944444,1,0,0,0,117,117,125,1,aanzien,images/br_aanzien.png,images/cb_aanzien.png,0,,,,,,,,,,,,,,,,,,,,,,
,,,,,00069,2023-10-13_19h41.38.244,vbt_B2_day3,2022.2.4,Win32,144.0507058,,,,,,down,0,4.6933,,-0.134027778,-0.156944444,1,0,0,0,118,118,163,1,schuilen,images/br_schuilen.png,images/cb_schuilen.png,0,,,,,,,,,,,,,,,,,,,,,,
,,,,,00069,2023-10-13_19h41.38.244,vbt_B2_day3,2022.2.4,Win32,144.0507058,,,,,,down,0,1.8851,,-0.134027778,-0.156944444,1,0,0,0,119,119,66,1,lever,images/br_lever.png,images/cb_lever.png,0,,,,,,,,,,,,,,,,,,,,,,
,,,,,00069,2023-10-13_19h41.38.244,vbt_B2_day3,2022.2.4,Win32,144.0507058,,,,,,down,0,1.9521,,-0.132638889,-0.157638889,1,0,0,0,120,120,124,1,bloeien,images/br_bloeien.png,images/cb_bloeien.png,0,,,,,,,,,,,,,,,,,,,,,,
,,,,,00069,2023-10-13_19h41.38.244,vbt_B2_day3,2022.2.4,Win32,144.0507058,,,,,,down,0,4.1907,,-0.14375,-0.159027778,1,0,0,0,121,121,5,1,blad,images/br_blad.png,images/cb_blad.png,0,,,,,,,,,,,,,,,,,,,,,,
,,,,,00069,2023-10-13_19h41.38.244,vbt_B2_day3,2022.2.4,Win32,144.0507058,,,,,,down,0,4.4914,,-0.14375,-0.159027778,1,0,0,0,122,122,4,1,moes,images/br_moes.png,images/cb_moes.png,0,,,,,,,,,,,,,,,,,,,,,,
,,,,,00069,2023-10-13_19h41.38.244,vbt_B2_day3,2022.2.4,Win32,144.0507058,,,,,,down,0,6.0103,,-0.070138889,-0.14375,1,0,0,0,123,123,155,1,gerucht,images/br_gerucht.png,images/cb_gerucht.png,0,,,,,,,,,,,,,,,,,,,,,,
,,,,,00069,2023-10-13_19h41.38.244,vbt_B2_day3,2022.2.4,Win32,144.0507058,,,,,,down,0,5.2769,,-0.070138889,-0.14375,1,0,0,0,124,124,32,1,palm,images/br_palm.png,images/cb_palm.png,0,,,,,,,,,,,,,,,,,,,,,,
,,,,,00069,2023-10-13_19h41.38.244,vbt_B2_day3,2022.2.4,Win32,144.0507058,,,,,,down,0,1.7472,,-0.070138889,-0.14375,1,0,0,0,125,125,34,1,vorm,images/br_vorm.png,images/cb_vorm.png,0,,,,,,,,,,,,,,,,,,,,,,
,,,,,00069,2023-10-13_19h41.38.244,vbt_B2_day3,2022.2.4,Win32,144.0507058,,,,,,down,0,2.7605,,-0.100694444,-0.145138889,1,0,0,0,126,126,72,1,strak,images/br_strak.png,images/cb_strak.png,0,,,,,,,,,,,,,,,,,,,,,,
,,,,,00069,2023-10-13_19h41.38.244,vbt_B2_day3,2022.2.4,Win32,144.0507058,,,,,,down,0,4.4556,,-0.415972222,-0.106944444,1,0,0,0,127,127,38,1,baai,images/br_baai.png,images/cb_baai.png,0,,,,,,,,,,,,,,,,,,,,,,
,,,,,00069,2023-10-13_19h41.38.244,vbt_B2_day3,2022.2.4,Win32,144.0507058,,,,,,down,0,12.846,,-0.415972222,-0.106944444,1,0,0,0,128,128,142,1,snuiven,images/br_snuiven.png,images/cb_snuiven.png,1,snuiven,,,,,,,,,,,,,,,,,,,,,
,,,,,00069,2023-10-13_19h41.38.244,vbt_B2_day3,2022.2.4,Win32,144.0507058,,,,,,down,0,3.7593,,-0.415972222,-0.106944444,1,0,0,0,129,129,141,1,knielen,images/br_knielen.png,images/cb_knielen.png,1,knielen,,,,,,,,,,,,,,,,,,,,,
,,,,,00069,2023-10-13_19h41.38.244,vbt_B2_day3,2022.2.4,Win32,144.0507058,,,,,,down,0,1.2293,,-0.415972222,-0.106944444,1,0,0,0,130,130,10,1,leek,images/br_leek.png,images/cb_leek.png,0,,,,,,,,,,,,,,,,,,,,,,
,,,,,00069,2023-10-13_19h41.38.244,vbt_B2_day3,2022.2.4,Win32,144.0507058,,,,,,down,0,1.0832,,-0.415972222,-0.106944444,1,0,0,0,131,131,7,1,geld,images/br_geld.png,images/cb_geld.png,0,,,,,,,,,,,,,,,,,,,,,,
,,,,,00069,2023-10-13_19h41.38.244,vbt_B2_day3,2022.2.4,Win32,144.0507058,,,,,,down,0,2.1619,,-0.415972222,-0.106944444,1,0,0,0,132,132,160,1,daarheen,images/br_daarheen.png,images/cb_daarheen.png,0,,,,,,,,,,,,,,,,,,,,,,
,,,,,00069,2023-10-13_19h41.38.244,vbt_B2_day3,2022.2.4,Win32,144.0507058,,,,,,down,0,1.9173,,-0.415972222,-0.106944444,1,0,0,0,133,133,120,1,klimmen,images/br_klimmen.png,images/cb_klimmen.png,0,,,,,,,,,,,,,,,,,,,,,,
,,,,,00069,2023-10-13_19h41.38.244,vbt_B2_day3,2022.2.4,Win32,144.0507058,,,,,,down,0,5.901,,-0.415972222,-0.106944444,1,0,0,0,134,134,43,1,klauw,images/br_klauw.png,images/cb_klauw.png,0,,,,,,,,,,,,,,,,,,,,,,
,,,,,00069,2023-10-13_19h41.38.244,vbt_B2_day3,2022.2.4,Win32,144.0507058,,,,,,down,0,4.6866,,-0.415972222,-0.106944444,1,0,0,0,135,135,98,1,kreeft,images/br_kreeft.png,images/cb_kreeft.png,0,,,,,,,,,,,,,,,,,,,,,,
,,,,,00069,2023-10-13_19h41.38.244,vbt_B2_day3,2022.2.4,Win32,144.0507058,,,,,,down,0,4.8971,,-0.415972222,-0.101388889,1,0,0,0,136,136,156,1,rechten,images/br_rechten.png,images/cb_rechten.png,0,,,,,,,,,,,,,,,,,,,,,,
,,,,,00069,2023-10-13_19h41.38.244,vbt_B2_day3,2022.2.4,Win32,144.0507058,,,,,,down,0,6.7589,,-0.415972222,-0.101388889,1,0,0,0,137,137,74,1,graaf,images/br_graaf.png,images/cb_graaf.png,0,,,,,,,,,,,,,,,,,,,,,,
,,,,,00069,2023-10-13_19h41.38.244,vbt_B2_day3,2022.2.4,Win32,144.0507058,,,,,,down,0,8.4474,,-0.415277778,-0.101388889,1,0,0,0,138,138,40,1,schep,images/br_schep.png,images/cb_schep.png,0,,,,,,,,,,,,,,,,,,,,,,
,,,,,00069,2023-10-13_19h41.38.244,vbt_B2_day3,2022.2.4,Win32,144.0507058,,,,,,down,0,2.2314,,-0.350694444,-0.08125,1,0,0,0,139,139,84,1,lokken,images/br_lokken.png,images/cb_lokken.png,0,,,,,,,,,,,,,,,,,,,,,,
,,,,,00069,2023-10-13_19h41.38.244,vbt_B2_day3,2022.2.4,Win32,144.0507058,,,,,,down,0,2.3564,,-0.347916667,-0.067361111,1,0,0,0,140,140,197,1,spanning,images/br_spanning.png,images/cb_spanning.png,0,,,,,,,,,,,,,,,,,,,,,,
,,,,,00069,2023-10-13_19h41.38.244,vbt_B2_day3,2022.2.4,Win32,144.0507058,,,,,,down,0,5.3298,,-0.347916667,-0.055555556,1,0,0,0,141,141,145,1,invloed,images/br_invloed.png,images/cb_invloed.png,0,,,,,,,,,,,,,,,,,,,,,,
,,,,,00069,2023-10-13_19h41.38.244,vbt_B2_day3,2022.2.4,Win32,144.0507058,,,,,,down,0,4.9522,,-0.334027778,-0.076388889,1,0,0,0,142,142,97,1,loyaal,images/br_loyaal.png,images/cb_loyaal.png,0,,,,,,,,,,,,,,,,,,,,,,
,,,,,00069,2023-10-13_19h41.38.244,vbt_B2_day3,2022.2.4,Win32,144.0507058,,,,,,down,0,2.5171,,-0.334027778,-0.076388889,1,0,0,0,143,143,79,1,nodig,images/br_nodig.png,images/cb_nodig.png,0,,,,,,,,,,,,,,,,,,,,,,
,,,,,00069,2023-10-13_19h41.38.244,vbt_B2_day3,2022.2.4,Win32,144.0507058,,,,,,down,0,3.1414,,-0.334027778,-0.076388889,1,0,0,0,144,144,108,1,excuus,images/br_excuus.png,images/cb_excuus.png,0,,,,,,,,,,,,,,,,,,,,,,
,,,,,00069,2023-10-13_19h41.38.244,vbt_B2_day3,2022.2.4,Win32,144.0507058,,,,,,down,0,2.3922,,-0.340277778,-0.079166667,1,0,0,0,145,145,91,1,gezond,images/br_gezond.png,images/cb_gezond.png,0,,,,,,,,,,,,,,,,,,,,,,
,,,,,00069,2023-10-13_19h41.38.244,vbt_B2_day3,2022.2.4,Win32,144.0507058,,,,,,down,0,2.0145,,-0.340277778,-0.079166667,1,0,0,0,146,146,110,1,zuster,images/br_zuster.png,images/cb_zuster.png,0,,,,,,,,,,,,,,,,,,,,,,
,,,,,00069,2023-10-13_19h41.38.244,vbt_B2_day3,2022.2.4,Win32,144.0507058,,,,,,down,0,1.1975,,-0.340277778,-0.08125,1,0,0,0,147,147,54,1,gebit,images/br_gebit.png,images/cb_gebit.png,0,,,,,,,,,,,,,,,,,,,,,,
,,,,,00069,2023-10-13_19h41.38.244,vbt_B2_day3,2022.2.4,Win32,144.0507058,,,,,,down,0,17.4819,,-0.204861111,-0.117361111,1,0,0,0,148,148,189,1,aanraden,images/br_aanraden.png,images/cb_aanraden.png,0,,,,,,,,,,,,,,,,,,,,,,
,,,,,00069,2023-10-13_19h41.38.244,vbt_B2_day3,2022.2.4,Win32,144.0507058,,,,,,down,0,10.6838,,-0.204861111,-0.117361111,1,0,0,0,149,149,147,1,komisch,images/br_komisch.png,images/cb_komisch.png,0,,,,,,,,,,,,,,,,,,,,,,
,,,,,00069,2023-10-13_19h41.38.244,vbt_B2_day3,2022.2.4,Win32,144.0507058,,,,,,down,0,6.5334,,-0.222222222,-0.104861111,1,0,0,0,150,150,152,1,afnemen,images/br_afnemen.png,images/cb_afnemen.png,0,,,,,,,,,,,,,,,,,,,,,,
,,,,,00069,2023-10-13_19h41.38.244,vbt_B2_day3,2022.2.4,Win32,144.0507058,,,,,,down,0,3.4559,,-0.213888889,-0.164583333,1,0,0,0,151,151,83,1,mening,images/br_mening.png,images/cb_mening.png,0,,,,,,,,,,,,,,,,,,,,,,
,,,,,00069,2023-10-13_19h41.38.244,vbt_B2_day3,2022.2.4,Win32,144.0507058,,,,,,down,0,8.1544,,-0.213888889,-0.165277778,1,0,0,0,152,152,113,1,koppen,images/br_koppen.png,images/cb_koppen.png,0,,,,,,,,,,,,,,,,,,,,,,
,,,,,00069,2023-10-13_19h41.38.244,vbt_B2_day3,2022.2.4,Win32,144.0507058,,,,,,down,0,0.3681,,-0.213888889,-0.165277778,1,0,0,0,153,153,45,1,piste,images/br_piste.png,images/cb_piste.png,0,,,,,,,,,,,,,,,,,,,,,,
,,,,,00069,2023-10-13_19h41.38.244,vbt_B2_day3,2022.2.4,Win32,144.0507058,,,,,,down,0,6.7815,,-0.225694444,-0.108333333,1,0,0,0,154,154,175,1,heengaan,images/br_heengaan.png,images/cb_heengaan.png,0,,,,,,,,,,,,,,,,,,,,,,
,,,,,00069,2023-10-13_19h41.38.244,vbt_B2_day3,2022.2.4,Win32,144.0507058,,,,,,down,0,3.1483,,-0.490277778,-0.151388889,1,0,0,0,155,155,168,1,bisschop,images/br_bisschop.png,images/cb_bisschop.png,0,,,,,,,,,,,,,,,,,,,,,,
,,,,,00069,2023-10-13_19h41.38.244,vbt_B2_day3,2022.2.4,Win32,144.0507058,,,,,,down,0,1.6544,,-0.490277778,-0.149305556,1,0,0,0,156,156,96,1,slagen,images/br_slagen.png,images/cb_slagen.png,0,,,,,,,,,,,,,,,,,,,,,,
,,,,,00069,2023-10-13_19h41.38.244,vbt_B2_day3,2022.2.4,Win32,144.0507058,,,,,,down,0,3.276,,-0.486805556,-0.134722222,1,0,0,0,157,157,158,1,innemen,images/br_innemen.png,images/cb_innemen.png,0,,,,,,,,,,,,,,,,,,,,,,
,,,,,00069,2023-10-13_19h41.38.244,vbt_B2_day3,2022.2.4,Win32,144.0507058,,,,,,down,0,1.3231,,-0.488194444,-0.132638889,1,0,0,0,158,158,55,1,praat,images/br_praat.png,images/cb_praat.png,0,,,,,,,,,,,,,,,,,,,,,,
,,,,,00069,2023-10-13_19h41.38.244,vbt_B2_day3,2022.2.4,Win32,144.0507058,,,,,,down,0,0.8105,,-0.488194444,-0.132638889,1,0,0,0,159,159,12,1,kust,images/br_kust.png,images/cb_kust.png,0,,,,,,,,,,,,,,,,,,,,,,
,,,,,00069,2023-10-13_19h41.38.244,vbt_B2_day3,2022.2.4,Win32,144.0507058,,,,,,down,0,0.7992,,-0.488194444,-0.132638889,1,0,0,0,160,160,36,1,vuur,images/br_vuur.png,images/cb_vuur.png,0,,,,,,,,,,,,,,,,,,,,,,
,,,,,00069,2023-10-13_19h41.38.244,vbt_B2_day3,2022.2.4,Win32,144.0507058,,,,,,down,0,3.7644,,-0.486805556,-0.128472222,1,0,0,0,161,161,139,1,stiekem,images/br_stiekem.png,images/cb_stiekem.png,0,,,,,,,,,,,,,,,,,,,,,,
,,,,,00069,2023-10-13_19h41.38.244,vbt_B2_day3,2022.2.4,Win32,144.0507058,,,,,,down,0,6.1681,,-0.486111111,-0.1125,1,0,0,0,162,162,49,1,laken,images/br_laken.png,images/cb_laken.png,0,,,,,,,,,,,,,,,,,,,,,,
,,,,,00069,2023-10-13_19h41.38.244,vbt_B2_day3,2022.2.4,Win32,144.0507058,,,,,,down,0,3.5008,,-0.484722222,-0.113194444,1,0,0,0,163,163,131,1,opzicht,images/br_opzicht.png,images/cb_opzicht.png,0,,,,,,,,,,,,,,,,,,,,,,
,,,,,00069,2023-10-13_19h41.38.244,vbt_B2_day3,2022.2.4,Win32,144.0507058,,,,,,down,0,2.7494,,-0.484027778,-0.109722222,1,0,0,0,164,164,17,1,taal,images/br_taal.png,images/cb_taal.png,0,,,,,,,,,,,,,,,,,,,,,,
,,,,,00069,2023-10-13_19h41.38.244,vbt_B2_day3,2022.2.4,Win32,144.0507058,,,,,,down,0,0.3095,,-0.484027778,-0.110416667,1,0,0,0,165,165,25,1,plek,images/br_plek.png,images/cb_plek.png,0,,,,,,,,,,,,,,,,,,,,,,
,,,,,00069,2023-10-13_19h41.38.244,vbt_B2_day3,2022.2.4,Win32,144.0507058,,,,,,down,0,12.3221,,-0.484027778,-0.106944444,1,0,0,0,166,166,193,1,weeshuis,images/br_weeshuis.png,images/cb_weeshuis.png,0,,,,,,,,,,,,,,,,,,,,,,
,,,,,00069,2023-10-13_19h41.38.244,vbt_B2_day3,2022.2.4,Win32,144.0507058,,,,,,down,0,5.9537,,-0.480555556,-0.109722222,1,0,0,0,167,167,111,1,ticket,images/br_ticket.png,images/cb_ticket.png,0,,,,,,,,,,,,,,,,,,,,,,
,,,,,00069,2023-10-13_19h41.38.244,vbt_B2_day3,2022.2.4,Win32,144.0507058,,,,,,down,0,6.7578,,-0.475,-0.197222222,1,0,0,0,168,168,44,1,flits,images/br_flits.png,images/cb_flits.png,0,,,,,,,,,,,,,,,,,,,,,,
,,,,,00069,2023-10-13_19h41.38.244,vbt_B2_day3,2022.2.4,Win32,144.0507058,,,,,,down,0,2.4036,,-0.475,-0.197222222,1,0,0,0,169,169,126,1,kasteel,images/br_kasteel.png,images/cb_kasteel.png,0,,,,,,,,,,,,,,,,,,,,,,
,,,,,00069,2023-10-13_19h41.38.244,vbt_B2_day3,2022.2.4,Win32,144.0507058,,,,,,down,0,2.3352,,-0.475,-0.197222222,1,0,0,0,170,170,103,1,joggen,images/br_joggen.png,images/cb_joggen.png,1,joggen,,,,,,,,,,,,,,,,,,,,,
,,,,,00069,2023-10-13_19h41.38.244,vbt_B2_day3,2022.2.4,Win32,144.0507058,,,,,,down,0,1.6743,,-0.475,-0.197222222,1,0,0,0,171,171,184,1,aandelen,images/br_aandelen.png,images/cb_aandelen.png,0,,,,,,,,,,,,,,,,,,,,,,
,,,,,00069,2023-10-13_19h41.38.244,vbt_B2_day3,2022.2.4,Win32,144.0507058,,,,,,down,0,0.3355,,-0.473611111,-0.194444444,1,0,0,0,172,172,109,1,totaal,images/br_totaal.png,images/cb_totaal.png,0,,,,,,,,,,,,,,,,,,,,,,
,,,,,00069,2023-10-13_19h41.38.244,vbt_B2_day3,2022.2.4,Win32,144.0507058,,,,,,down,0,7.2792,,-0.473611111,-0.194444444,1,0,0,0,173,173,178,1,huisdier,images/br_huisdier.png,images/cb_huisdier.png,0,,,,,,,,,,,,,,,,,,,,,,
,,,,,00069,2023-10-13_19h41.38.244,vbt_B2_day3,2022.2.4,Win32,144.0507058,,,,,,down,0,2.2504,,-0.473611111,-0.188888889,1,0,0,0,174,174,134,1,geliefd,images/br_geliefd.png,images/cb_geliefd.png,0,,,,,,,,,,,,,,,,,,,,,,
,,,,,00069,2023-10-13_19h41.38.244,vbt_B2_day3,2022.2.4,Win32,144.0507058,,,,,,down,0,0.7434,,-0.473611111,-0.188888889,1,0,0,0,175,175,132,1,grappen,images/br_grappen.png,images/cb_grappen.png,0,,,,,,,,,,,,,,,,,,,,,,
,,,,,00069,2023-10-13_19h41.38.244,vbt_B2_day3,2022.2.4,Win32,144.0507058,,,,,,down,0,7.7618,,-0.473611111,-0.188888889,1,0,0,0,176,176,107,1,maling,images/br_maling.png,images/cb_maling.png,0,,,,,,,,,,,,,,,,,,,,,,
,,,,,00069,2023-10-13_19h41.38.244,vbt_B2_day3,2022.2.4,Win32,144.0507058,,,,,,down,0,10.1714,,-0.473611111,-0.188888889,1,0,0,0,177,177,75,1,snoep,images/br_snoep.png,images/cb_snoep.png,0,,,,,,,,,,,,,,,,,,,,,,
,,,,,00069,2023-10-13_19h41.38.244,vbt_B2_day3,2022.2.4,Win32,144.0507058,,,,,,down,0,1.8448,,-0.473611111,-0.188888889,1,0,0,0,178,178,30,1,uien,images/br_uien.png,images/cb_uien.png,0,,,,,,,,,,,,,,,,,,,,,,
,,,,,00069,2023-10-13_19h41.38.244,vbt_B2_day3,2022.2.4,Win32,144.0507058,,,,,,down,0,0.0216,,-0.473611111,-0.188888889,1,0,0,0,179,179,46,1,jagen,images/br_jagen.png,images/cb_jagen.png,0,,,,,,,,,,,,,,,,,,,,,,
,,,,,00069,2023-10-13_19h41.38.244,vbt_B2_day3,2022.2.4,Win32,144.0507058,,,,,,down,0,6.7317,,-0.473611111,-0.188888889,1,0,0,0,180,180,185,1,mijnheer,images/br_mijnheer.png,images/cb_mijnheer.png,0,,,,,,,,,,,,,,,,,,,,,,
,,,,,00069,2023-10-13_19h41.38.244,vbt_B2_day3,2022.2.4,Win32,144.0507058,,,,,,down,0,5.6642,,-0.473611111,-0.188888889,1,0,0,0,181,181,136,1,waarbij,images/br_waarbij.png,images/cb_waarbij.png,0,,,,,,,,,,,,,,,,,,,,,,
,,,,,00069,2023-10-13_19h41.38.244,vbt_B2_day3,2022.2.4,Win32,144.0507058,,,,,,down,0,6.5463,,-0.476388889,-0.2625,1,0,0,0,182,182,161,1,attentie,images/br_attentie.png,images/cb_attentie.png,0,,,,,,,,,,,,,,,,,,,,,,
,,,,,00069,2023-10-13_19h41.38.244,vbt_B2_day3,2022.2.4,Win32,144.0507058,,,,,,down,0,2.3389,,-0.476388889,-0.2625,1,0,0,0,183,183,89,1,slapen,images/br_slapen.png,images/cb_slapen.png,0,,,,,,,,,,,,,,,,,,,,,,
,,,,,00069,2023-10-13_19h41.38.244,vbt_B2_day3,2022.2.4,Win32,144.0507058,,,,,,down,0,8.1775,,-0.476388889,-0.259722222,1,0,0,0,184,184,153,1,vervoer,images/br_vervoer.png,images/cb_vervoer.png,0,,,,,,,,,,,,,,,,,,,,,,
,,,,,00069,2023-10-13_19h41.38.244,vbt_B2_day3,2022.2.4,Win32,144.0507058,,,,,,down,0,2.6231,,-0.476388889,-0.259722222,1,0,0,0,185,185,116,1,besmet,images/br_besmet.png,images/cb_besmet.png,0,,,,,,,,,,,,,,,,,,,,,,
,,,,,00069,2023-10-13_19h41.38.244,vbt_B2_day3,2022.2.4,Win32,144.0507058,,,,,,down,0,2.6393,,-0.476388889,-0.254861111,1,0,0,0,186,186,177,1,maaltijd,images/br_maaltijd.png,images/cb_maaltijd.png,0,,,,,,,,,,,,,,,,,,,,,,
,,,,,00069,2023-10-13_19h41.38.244,vbt_B2_day3,2022.2.4,Win32,144.0507058,,,,,,down,0,3.6878,,-0.476388889,-0.254861111,1,0,0,0,187,187,59,1,kring,images/br_kring.png,images/cb_kring.png,0,,,,,,,,,,,,,,,,,,,,,,
,,,,,00069,2023-10-13_19h41.38.244,vbt_B2_day3,2022.2.4,Win32,144.0507058,,,,,,down,0,2.973,,-0.476388889,-0.254861111,1,0,0,0,188,188,100,1,geduld,images/br_geduld.png,images/cb_geduld.png,1,geduld,,,,,,,,,,,,,,,,,,,,,
,,,,,00069,2023-10-13_19h41.38.244,vbt_B2_day3,2022.2.4,Win32,144.0507058,,,,,,down,0,3.8136,,-0.476388889,-0.254861111,1,0,0,0,189,189,78,1,leren,images/br_leren.png,images/cb_leren.png,0,,,,,,,,,,,,,,,,,,,,,,
,,,,,00069,2023-10-13_19h41.38.244,vbt_B2_day3,2022.2.4,Win32,144.0507058,,,,,,down,0,4.9537,,-0.476388889,-0.254861111,1,0,0,0,190,190,174,1,stemming,images/br_stemming.png,images/cb_stemming.png,0,,,,,,,,,,,,,,,,,,,,,,
,,,,,00069,2023-10-13_19h41.38.244,vbt_B2_day3,2022.2.4,Win32,144.0507058,,,,,,down,0,4.6235,,-0.476388889,-0.254861111,1,0,0,0,191,191,21,1,mist,images/br_mist.png,images/cb_mist.png,1,milt,,,,,,,,,,,,,,,,,,,,,
,,,,,00069,2023-10-13_19h41.38.244,vbt_B2_day3,2022.2.4,Win32,144.0507058,,,,,,down,0,1.2881,,-0.438888889,-0.240277778,1,0,0,0,192,192,50,1,stoom,images/br_stoom.png,images/cb_stoom.png,0,,,,,,,,,,,,,,,,,,,,,,
,,,,,00069,2023-10-13_19h41.38.244,vbt_B2_day3,2022.2.4,Win32,144.0507058,,,,,,down,0,4.4005,,-0.438888889,-0.240277778,1,0,0,0,193,193,115,1,kleren,images/br_kleren.png,images/cb_kleren.png,0,,,,,,,,,,,,,,,,,,,,,,
,,,,,00069,2023-10-13_19h41.38.244,vbt_B2_day3,2022.2.4,Win32,144.0507058,,,,,,down,0,9.1641,,-0.438888889,-0.240277778,1,0,0,0,194,194,82,1,muziek,images/br_muziek.png,images/cb_muziek.png,0,,,,,,,,,,,,,,,,,,,,,,
,,,,,00069,2023-10-13_19h41.38.244,vbt_B2_day3,2022.2.4,Win32,144.0507058,,,,,,down,0,1.495,,-0.438888889,-0.232638889,1,0,0,0,195,195,118,1,vinger,images/br_vinger.png,images/cb_vinger.png,0,,,,,,,,,,,,,,,,,,,,,,
,,,,,00069,2023-10-13_19h41.38.244,vbt_B2_day3,2022.2.4,Win32,144.0507058,,,,,,down,0,2.4355,,-0.438194444,-0.229861111,1,0,0,0,196,196,24,1,jurk,images/br_jurk.png,images/cb_jurk.png,0,,,,,,,,,,,,,,,,,,,,,,
,,,,,00069,2023-10-13_19h41.38.244,vbt_B2_day3,2022.2.4,Win32,144.0507058,,,,,,down,0,5.6575,,-0.438194444,-0.229861111,1,0,0,0,197,197,80,1,kanjer,images/br_kanjer.png,images/cb_kanjer.png,0,,,,,,,,,,,,,,,,,,,,,,
,,,,,00069,2023-10-13_19h41.38.244,vbt_B2_day3,2022.2.4,Win32,144.0507058,,,,,,down,0,2.659,,-0.438194444,-0.227777778,1,0,0,0,198,198,69,1,waken,images/br_waken.png,images/cb_waken.png,0,,,,,,,,,,,,,,,,,,,,,,
,,,,,00069,2023-10-13_19h41.38.244,vbt_B2_day3,2022.2.4,Win32,144.0507058,,,,,,down,0,1.1164,,-0.438194444,-0.227777778,1,0,0,0,199,199,26,1,leuk,images/br_leuk.png,images/cb_leuk.png,0,,,,,,,,,,,,,,,,,,,,,,
,,,,,00069,2023-10-13_19h41.38.244,vbt_B2_day3,2022.2.4,Win32,144.0507058,,,,,,,,,,,,,,,,,,,,,,,,,-0.396527778,-0.215277778,1,0,0,,,,,,,,,,,,,,,,
,,,,,00069,2023-10-13_19h41.38.244,vbt_B2_day3,2022.2.4,Win32,144.0507058,,,,,,,,,,,,,,,,,,,,,,,,,,,,,,-0.478472222,-0.30625,1,0,0,,,,,,,,,,,
,,,,,00069,2023-10-13_19h41.38.244,vbt_B2_day3,2022.2.4,Win32,144.0507058,,,,,,,,,,,,,,,,,,,,begrip,images/br_begrip.png,images/cb_begrip.png,,begrip,,,,,,,,,,,-0.322916667,-0.181944444,1,0,0,begrip,0,0,0,48,1
,,,,,00069,2023-10-13_19h41.38.244,vbt_B2_day3,2022.2.4,Win32,144.0507058,,,,,,,,,,,,,,,,,,,,stikken,images/br_stikken.png,images/cb_stikken.png,,stikken,,,,,,,,,,,-0.31875,-0.145138889,1,0,0,stikken,0,1,1,54,1
,,,,,00069,2023-10-13_19h41.38.244,vbt_B2_day3,2022.2.4,Win32,144.0507058,,,,,,,,,,,,,,,,,,,,kest,images/br_kest.png,images/cb_kest.png,,kest,,,,,,,,,,,-0.323611111,-0.123611111,1,0,0,kest,0,2,2,21,1
,,,,,00069,2023-10-13_19h41.38.244,vbt_B2_day3,2022.2.4,Win32,144.0507058,,,,,,,,,,,,,,,,,,,,bevret,images/br_bevret.png,images/cb_bevret.png,,bevret,,,,,,,,,,,-0.355555556,-0.122916667,1,0,0,bevret,0,3,3,30,1
,,,,,00069,2023-10-13_19h41.38.244,vbt_B2_day3,2022.2.4,Win32,144.0507058,,,,,,,,,,,,,,,,,,,,verhaal,images/br_verhaal.png,images/cb_verhaal.png,,verhaal,,,,,,,,,,,-0.354166667,-0.1,1,0,0,verhaal,0,4,4,13,1
,,,,,00069,2023-10-13_19h41.38.244,vbt_B2_day3,2022.2.4,Win32,144.0507058,,,,,,,,,,,,,,,,,,,,glijden,images/br_glijden.png,images/cb_glijden.png,,glijden,,,,,,,,,,,-0.355555556,-0.102083333,1,0,0,glijden,0,5,5,53,1
,,,,,00069,2023-10-13_19h41.38.244,vbt_B2_day3,2022.2.4,Win32,144.0507058,,,,,,,,,,,,,,,,,,,,opzicht,images/br_opzicht.png,images/cb_opzicht.png,,opzicht,,,,,,,,,,,-0.342361111,-0.113194444,1,0,0,opzicht,0,6,6,15,1
,,,,,00069,2023-10-13_19h41.38.244,vbt_B2_day3,2022.2.4,Win32,144.0507058,,,,,,,,,,,,,,,,,,,,hust,images/br_hust.png,images/cb_hust.png,,hust,,,,,,,,,,,-0.35625,-0.086111111,1,0,0,hust,0,7,7,23,1
,,,,,00069,2023-10-13_19h41.38.244,vbt_B2_day3,2022.2.4,Win32,144.0507058,,,,,,,,,,,,,,,,,,,,afbopen,images/br_afbopen.png,images/cb_afbopen.png,,afbopen,,,,,,,,,,,-0.357638889,-0.079166667,1,0,0,afbopen,0,8,8,34,1
,,,,,00069,2023-10-13_19h41.38.244,vbt_B2_day3,2022.2.4,Win32,144.0507058,,,,,,,,,,,,,,,,,,,,boeien,images/br_boeien.png,images/cb_boeien.png,,boeien,,,,,,,,,,,-0.370138889,-0.109027778,1,0,0,boeien,0,9,9,8,1
,,,,,00069,2023-10-13_19h41.38.244,vbt_B2_day3,2022.2.4,Win32,144.0507058,,,,,,,,,,,,,,,,,,,,stallen,images/br_stallen.png,images/cb_stallen.png,,stallen,,,,,,,,,,,-0.372916667,-0.141666667,1,0,0,stallen,0,10,10,52,1
,,,,,00069,2023-10-13_19h41.38.244,vbt_B2_day3,2022.2.4,Win32,144.0507058,,,,,,,,,,,,,,,,,,,,bisschop,images/br_bisschop.png,images/cb_bisschop.png,,bisschop,,,,,,,,,,,-0.354861111,-0.133333333,1,0,0,bisschop,0,11,11,16,1
,,,,,00069,2023-10-13_19h41.38.244,vbt_B2_day3,2022.2.4,Win32,144.0507058,,,,,,,,,,,,,,,,,,,,geluid,images/br_geluid.png,images/cb_geluid.png,,geluid,,,,,,,,,,,-0.333333333,-0.16875,1,0,0,geluid,0,12,12,10,1
,,,,,00069,2023-10-13_19h41.38.244,vbt_B2_day3,2022.2.4,Win32,144.0507058,,,,,,,,,,,,,,,,,,,,hint,images/br_hint.png,images/cb_hint.png,,hint,,,,,,,,,,,-0.34375,-0.163194444,1,0,0,hint,0,13,13,43,1
,,,,,00069,2023-10-13_19h41.38.244,vbt_B2_day3,2022.2.4,Win32,144.0507058,,,,,,,,,,,,,,,,,,,,alsof,images/br_alsof.png,images/cb_alsof.png,,alsof,,,,,,,,,,,-0.34375,-0.172222222,1,0,0,alsof,0,14,14,44,1
,,,,,00069,2023-10-13_19h41.38.244,vbt_B2_day3,2022.2.4,Win32,144.0507058,,,,,,,,,,,,,,,,,,,,twaaf,images/br_twaaf.png,images/cb_twaaf.png,,twaaf,,,,,,,,,,,-0.347222222,-0.175694444,1,0,0,twaaf,0,15,15,24,1
,,,,,00069,2023-10-13_19h41.38.244,vbt_B2_day3,2022.2.4,Win32,144.0507058,,,,,,,,,,,,,,,,,,,,uviek,images/br_uviek.png,images/cb_uviek.png,,uviek,,,,,,,,,,,-0.346527778,-0.128472222,1,0,0,uviek,0,16,16,25,1
,,,,,00069,2023-10-13_19h41.38.244,vbt_B2_day3,2022.2.4,Win32,144.0507058,,,,,,,,,,,,,,,,,,,,mode,images/br_mode.png,images/cb_mode.png,,mode,,,,,,,,,,,-0.381944444,-0.120833333,1,0,0,mode,0,17,17,3,1
,,,,,00069,2023-10-13_19h41.38.244,vbt_B2_day3,2022.2.4,Win32,144.0507058,,,,,,,,,,,,,,,,,,,,keihard,images/br_keihard.png,images/cb_keihard.png,,keihard,,,,,,,,,,,-0.375,-0.110416667,1,0,0,keihard,0,18,18,14,1
,,,,,00069,2023-10-13_19h41.38.244,vbt_B2_day3,2022.2.4,Win32,144.0507058,,,,,,,,,,,,,,,,,,,,croo,images/br_croo.png,images/cb_croo.png,,croo,,,,,,,,,,,-0.359722222,-0.164583333,1,0,0,croo,0,19,19,22,1
,,,,,00069,2023-10-13_19h41.38.244,vbt_B2_day3,2022.2.4,Win32,144.0507058,,,,,,,,,,,,,,,,,,,,schodel,images/br_schodel.png,images/cb_schodel.png,,schodel,,,,,,,,,,,-0.374305556,-0.179166667,1,0,0,schodel,0,20,20,33,1
,,,,,00069,2023-10-13_19h41.38.244,vbt_B2_day3,2022.2.4,Win32,144.0507058,,,,,,,,,,,,,,,,,,,,onrecht,images/br_onrecht.png,images/cb_onrecht.png,,onrecht,,,,,,,,,,,-0.372916667,-0.170138889,1,0,0,onrecht,0,21,21,55,1
,,,,,00069,2023-10-13_19h41.38.244,vbt_B2_day3,2022.2.4,Win32,144.0507058,,,,,,,,,,,,,,,,,,,,prikken,images/br_prikken.png,images/cb_prikken.png,,prikken,,,,,,,,,,,-0.300694444,-0.152083333,1,0,0,prikken,0,22,22,12,1
,,,,,00069,2023-10-13_19h41.38.244,vbt_B2_day3,2022.2.4,Win32,144.0507058,,,,,,,,,,,,,,,,,,,,schatten,images/br_schatten.png,images/cb_schatten.png,,schatten,,,,,,,,,,,-0.300694444,-0.152083333,1,0,0,schatten,0,23,23,18,1
,,,,,00069,2023-10-13_19h41.38.244,vbt_B2_day3,2022.2.4,Win32,144.0507058,,,,,,,,,,,,,,,,,,,,booien,images/br_booien.png,images/cb_booien.png,,booien,,,,,,,,,,,-0.31875,-0.160416667,1,0,0,booien,0,24,24,31,1
,,,,,00069,2023-10-13_19h41.38.244,vbt_B2_day3,2022.2.4,Win32,144.0507058,,,,,,,,,,,,,,,,,,,,steel,images/br_steel.png,images/cb_steel.png,,steel,,,,,,,,,,,-0.319444444,-0.172222222,1,0,0,steel,0,25,25,4,1
,,,,,00069,2023-10-13_19h41.38.244,vbt_B2_day3,2022.2.4,Win32,144.0507058,,,,,,,,,,,,,,,,,,,,theeting,images/br_theeting.png,images/cb_theeting.png,,theeting,,,,,,,,,,,-0.302083333,-0.194444444,1,0,0,theeting,0,26,26,38,1
,,,,,00069,2023-10-13_19h41.38.244,vbt_B2_day3,2022.2.4,Win32,144.0507058,,,,,,,,,,,,,,,,,,,,sultan,images/br_sultan.png,images/cb_sultan.png,,sultan,,,,,,,,,,,-0.309027778,-0.193055556,1,0,0,sultan,0,27,27,49,1
,,,,,00069,2023-10-13_19h41.38.244,vbt_B2_day3,2022.2.4,Win32,144.0507058,,,,,,,,,,,,,,,,,,,,kwaas,images/br_kwaas.png,images/cb_kwaas.png,,kwaas,,,,,,,,,,,-0.320138889,-0.21875,1,0,0,kwaas,0,28,28,26,1
,,,,,00069,2023-10-13_19h41.38.244,vbt_B2_day3,2022.2.4,Win32,144.0507058,,,,,,,,,,,,,,,,,,,,uniek,images/br_uniek.png,images/cb_uniek.png,,uniek,,,,,,,,,,,-0.31875,-0.213888889,1,0,0,uniek,0,29,29,46,1
,,,,,00069,2023-10-13_19h41.38.244,vbt_B2_day3,2022.2.4,Win32,144.0507058,,,,,,,,,,,,,,,,,,,,oprotten,images/br_oprotten.png,images/cb_oprotten.png,,oprotten,,,,,,,,,,,-0.325694444,-0.20625,1,0,0,oprotten,0,30,30,17,1
,,,,,00069,2023-10-13_19h41.38.244,vbt_B2_day3,2022.2.4,Win32,144.0507058,,,,,,,,,,,,,,,,,,,,paken,images/br_paken.png,images/cb_paken.png,,paken,,,,,,,,,,,-0.338194444,-0.209027778,1,0,0,paken,0,31,31,27,1
,,,,,00069,2023-10-13_19h41.38.244,vbt_B2_day3,2022.2.4,Win32,144.0507058,,,,,,,,,,,,,,,,,,,,gebod,images/br_gebod.png,images/cb_gebod.png,,gebod,,,,,,,,,,,-0.388888889,-0.234722222,1,0,0,gebod,0,32,32,45,1
,,,,,00069,2023-10-13_19h41.38.244,vbt_B2_day3,2022.2.4,Win32,144.0507058,,,,,,,,,,,,,,,,,,,,eens,images/br_eens.png,images/cb_eens.png,,eens,,,,,,,,,,,-0.3625,-0.263194444,1,0,0,eens,0,33,33,40,1
,,,,,00069,2023-10-13_19h41.38.244,vbt_B2_day3,2022.2.4,Win32,144.0507058,,,,,,,,,,,,,,,,,,,,leemaken,images/br_leemaken.png,images/cb_leemaken.png,,leemak..,,,,,,,,,,,-0.365277778,-0.263888889,1,0,0,leemak..,0,34,34,39,1
,,,,,00069,2023-10-13_19h41.38.244,vbt_B2_day3,2022.2.4,Win32,144.0507058,,,,,,,,,,,,,,,,,,,,gout,images/br_gout.png,images/cb_gout.png,,gout,,,,,,,,,,,-0.363888889,-0.214583333,1,0,0,gout,0,35,35,20,1
,,,,,00069,2023-10-13_19h41.38.244,vbt_B2_day3,2022.2.4,Win32,144.0507058,,,,,,,,,,,,,,,,,,,,aarzelen,images/br_aarzelen.png,images/cb_aarzelen.png,,aarzelen,,,,,,,,,,,-0.400694444,-0.213888889,1,0,0,aarzelen,0,36,36,19,1
,,,,,00069,2023-10-13_19h41.38.244,vbt_B2_day3,2022.2.4,Win32,144.0507058,,,,,,,,,,,,,,,,,,,,sluier,images/br_sluier.png,images/cb_sluier.png,,sluier,,,,,,,,,,,-0.375,-0.166666667,1,0,0,sluier,0,37,37,50,1
,,,,,00069,2023-10-13_19h41.38.244,vbt_B2_day3,2022.2.4,Win32,144.0507058,,,,,,,,,,,,,,,,,,,,mugeek,images/br_mugeek.png,images/cb_mugeek.png,,mugeek,,,,,,,,,,,-0.367361111,-0.148611111,1,0,0,mugeek,0,38,38,29,1
,,,,,00069,2023-10-13_19h41.38.244,vbt_B2_day3,2022.2.4,Win32,144.0507058,,,,,,,,,,,,,,,,,,,,jongelui,images/br_jongelui.png,images/cb_jongelui.png,,jongel...,,,,,,,,,,,-0.372222222,-0.142361111,1,0,0,jongel...,0,39,39,59,1
,,,,,00069,2023-10-13_19h41.38.244,vbt_B2_day3,2022.2.4,Win32,144.0507058,,,,,,,,,,,,,,,,,,,,gezond,images/br_gezond.png,images/cb_gezond.png,,gezond,,,,,,,,,,,-0.372222222,-0.142361111,1,0,0,gezond,0,40,40,11,1
,,,,,00069,2023-10-13_19h41.38.244,vbt_B2_day3,2022.2.4,Win32,144.0507058,,,,,,,,,,,,,,,,,,,,slapen,images/br_slapen.png,images/cb_slapen.png,,slapen,,,,,,,,,,,-0.372222222,-0.142361111,1,0,0,slapen,0,41,41,9,1
,,,,,00069,2023-10-13_19h41.38.244,vbt_B2_day3,2022.2.4,Win32,144.0507058,,,,,,,,,,,,,,,,,,,,beslag,images/br_beslag.png,images/cb_beslag.png,,beslat,,,,,,,,,,,-0.372222222,-0.138888889,1,0,0,beslat,0,42,42,51,1
,,,,,00069,2023-10-13_19h41.38.244,vbt_B2_day3,2022.2.4,Win32,144.0507058,,,,,,,,,,,,,,,,,,,,invallen,images/br_invallen.png,images/cb_invallen.png,,invallen,,,,,,,,,,,-0.372222222,-0.138888889,1,0,0,invallen,0,43,43,57,1
,,,,,00069,2023-10-13_19h41.38.244,vbt_B2_day3,2022.2.4,Win32,144.0507058,,,,,,,,,,,,,,,,,,,,knie,images/br_knie.png,images/cb_knie.png,,knie,,,,,,,,,,,-0.372222222,-0.140972222,1,0,0,knie,0,44,44,0,1
,,,,,00069,2023-10-13_19h41.38.244,vbt_B2_day3,2022.2.4,Win32,144.0507058,,,,,,,,,,,,,,,,,,,,kaas,images/br_kaas.png,images/cb_kaas.png,,kaas,,,,,,,,,,,-0.372222222,-0.140972222,1,0,0,kaas,0,45,45,42,1
,,,,,00069,2023-10-13_19h41.38.244,vbt_B2_day3,2022.2.4,Win32,144.0507058,,,,,,,,,,,,,,,,,,,,makieren,images/br_makieren.png,images/cb_makieren.png,,makieren,,,,,,,,,,,-0.372222222,-0.140972222,1,0,0,makieren,0,46,46,36,1
,,,,,00069,2023-10-13_19h41.38.244,vbt_B2_day3,2022.2.4,Win32,144.0507058,,,,,,,,,,,,,,,,,,,,vlager,images/br_vlager.png,images/cb_vlager.png,,vlager,,,,,,,,,,,-0.372222222,-0.140972222,1,0,0,vlager,0,47,47,28,1
,,,,,00069,2023-10-13_19h41.38.244,vbt_B2_day3,2022.2.4,Win32,144.0507058,,,,,,,,,,,,,,,,,,,,leek,images/br_leek.png,images/cb_leek.png,,leek,,,,,,,,,,,-0.372222222,-0.140972222,1,0,0,leek,0,48,48,2,1
,,,,,00069,2023-10-13_19h41.38.244,vbt_B2_day3,2022.2.4,Win32,144.0507058,,,,,,,,,,,,,,,,,,,,verwoor,images/br_verwoor.png,images/cb_verwoor.png,,verwoor,,,,,,,,,,,-0.372222222,-0.140972222,1,0,0,verwoor,0,49,49,32,1
,,,,,00069,2023-10-13_19h41.38.244,vbt_B2_day3,2022.2.4,Win32,144.0507058,,,,,,,,,,,,,,,,,,,,hier,images/br_hier.png,images/cb_hier.png,,hier,,,,,,,,,,,-0.372222222,-0.140972222,1,0,0,hier,0,50,50,1,1
,,,,,00069,2023-10-13_19h41.38.244,vbt_B2_day3,2022.2.4,Win32,144.0507058,,,,,,,,,,,,,,,,,,,,verraden,images/br_verraden.png,images/cb_verraden.png,,verraden,,,,,,,,,,,-0.372222222,-0.140972222,1,0,0,verraden,0,51,51,58,1
,,,,,00069,2023-10-13_19h41.38.244,vbt_B2_day3,2022.2.4,Win32,144.0507058,,,,,,,,,,,,,,,,,,,,stoom,images/br_stoom.png,images/cb_stoom.png,,stoom,,,,,,,,,,,-0.372222222,-0.140972222,1,0,0,stoom,0,52,52,6,1
,,,,,00069,2023-10-13_19h41.38.244,vbt_B2_day3,2022.2.4,Win32,144.0507058,,,,,,,,,,,,,,,,,,,,samen,images/br_samen.png,images/cb_samen.png,,samen,,,,,,,,,,,-0.372222222,-0.140972222,1,0,0,samen,0,53,53,7,1
,,,,,00069,2023-10-13_19h41.38.244,vbt_B2_day3,2022.2.4,Win32,144.0507058,,,,,,,,,,,,,,,,,,,,zone,images/br_zone.png,images/cb_zone.png,,zone,,,,,,,,,,,-0.368055556,-0.140972222,1,0,0,zone,0,54,54,41,1
,,,,,00069,2023-10-13_19h41.38.244,vbt_B2_day3,2022.2.4,Win32,144.0507058,,,,,,,,,,,,,,,,,,,,leugeren,images/br_leugeren.png,images/cb_leugeren.png,,leugeren,,,,,,,,,,,-0.368055556,-0.136805556,1,0,0,leugeren,0,55,55,37,1
,,,,,00069,2023-10-13_19h41.38.244,vbt_B2_day3,2022.2.4,Win32,144.0507058,,,,,,,,,,,,,,,,,,,,opzetten,images/br_opzetten.png,images/cb_opzetten.png,,opzetten,,,,,,,,,,,-0.368055556,-0.136805556,1,0,0,opzetten,0,56,56,56,1
,,,,,00069,2023-10-13_19h41.38.244,vbt_B2_day3,2022.2.4,Win32,144.0507058,,,,,,,,,,,,,,,,,,,,dwang,images/br_dwang.png,images/cb_dwang.png,,dwang,,,,,,,,,,,-0.368055556,-0.136805556,1,0,0,dwang,0,57,57,47,1
,,,,,00069,2023-10-13_19h41.38.244,vbt_B2_day3,2022.2.4,Win32,144.0507058,,,,,,,,,,,,,,,,,,,,brappen,images/br_brappen.png,images/cb_brappen.png,,brappen,,,,,,,,,,,-0.368055556,-0.136805556,1,0,0,brappen,0,58,58,35,1
,,,,,00069,2023-10-13_19h41.38.244,vbt_B2_day3,2022.2.4,Win32,144.0507058,,,,,,,,,,,,,,,,,,,,laken,images/br_laken.png,images/cb_laken.png,,laken,,,,,,,,,,,-0.076388889,-0.232638889,1,0,0,laken,0,59,59,5,1
,,,,,00069,2023-10-13_19h41.38.244,vbt_B2_day3,2022.2.4,Win32,144.0507058,,,,,,,,,,,,,,,,,,,,,,,,,,,,,,,,,,,,,,,,,,,,,
