welcome_mouse.x,welcome_mouse.y,welcome_mouse.leftButton,welcome_mouse.midButton,welcome_mouse.rightButton,"ID",date,expName,psychopyVersion,OS,frameRate,trainInstr_mouse.x,trainInstr_mouse.y,trainInstr_mouse.leftButton,trainInstr_mouse.midButton,trainInstr_mouse.rightButton,translation_key.keys,translation_key.corr,translation_key.rt,word_rsp.text,trWrd_mouse.x,trWrd_mouse.y,trWrd_mouse.leftButton,trWrd_mouse.midButton,trWrd_mouse.rightButton,train_loop.thisRepN,train_loop.thisTrialN,train_loop.thisN,train_loop.thisIndex,train_loop.ran,nlWrd,brWrd,cbWrd,test,testResp,mouse.x,mouse.y,mouse.leftButton,mouse.midButton,mouse.rightButton,testInstr_mouse.x,testInstr_mouse.y,testInstr_mouse.leftButton,testInstr_mouse.midButton,testInstr_mouse.rightButton,test_mouse.x,test_mouse.y,test_mouse.leftButton,test_mouse.midButton,test_mouse.rightButton,test_response.text,test_loop.thisRepN,test_loop.thisTrialN,test_loop.thisN,test_loop.thisIndex,test_loop.ran
-0.173098958,-0.247065972,1,0,0,00025,2023-09-05_12h34.30.316,vbt_B2_day3,2022.2.4,MacIntel,60.0024001,,,,,,,,,,,,,,,,,,,,,,,,,,,,,,,,,,,,,,,,,,,,,
,,,,,00025,2023-09-05_12h34.30.316,vbt_B2_day3,2022.2.4,MacIntel,60.0024001,-0.173098958,-0.247065972,1,0,0,,,,,,,,,,,,,,,,,,,,,,,,,,,,,,,,,,,,,,,,
,,,,,00025,2023-09-05_12h34.30.316,vbt_B2_day3,2022.2.4,MacIntel,60.0024001,,,,,,down,0,1.8254,,-0.168880208,-0.28250434,1,0,0,0,0,0,59,1,kring,images/br_kring.png,images/cb_kring.png,0,,,,,,,,,,,,,,,,,,,,,,
,,,,,00025,2023-09-05_12h34.30.316,vbt_B2_day3,2022.2.4,MacIntel,60.0024001,,,,,,down,0,2.3976,,-0.168880208,-0.28250434,1,0,0,0,1,1,139,1,stiekem,images/br_stiekem.png,images/cb_stiekem.png,0,,,,,,,,,,,,,,,,,,,,,,
,,,,,00025,2023-09-05_12h34.30.316,vbt_B2_day3,2022.2.4,MacIntel,60.0024001,,,,,,down,0,2.6726,,-0.168880208,-0.28250434,1,0,0,0,2,2,112,1,lukken,images/br_lukken.png,images/cb_lukken.png,0,,,,,,,,,,,,,,,,,,,,,,
,,,,,00025,2023-09-05_12h34.30.316,vbt_B2_day3,2022.2.4,MacIntel,60.0024001,,,,,,down,0,2.5777,,-0.168880208,-0.28250434,1,0,0,0,3,3,110,1,zuster,images/br_zuster.png,images/cb_zuster.png,0,,,,,,,,,,,,,,,,,,,,,,
,,,,,00025,2023-09-05_12h34.30.316,vbt_B2_day3,2022.2.4,MacIntel,60.0024001,,,,,,down,0,4.9014,,-0.168880208,-0.28250434,1,0,0,0,4,4,94,1,oceaan,images/br_oceaan.png,images/cb_oceaan.png,0,,,,,,,,,,,,,,,,,,,,,,
,,,,,00025,2023-09-05_12h34.30.316,vbt_B2_day3,2022.2.4,MacIntel,60.0024001,,,,,,down,0,1.5923,,-0.168880208,-0.28250434,1,0,0,0,5,5,125,1,aanzien,images/br_aanzien.png,images/cb_aanzien.png,0,,,,,,,,,,,,,,,,,,,,,,
,,,,,00025,2023-09-05_12h34.30.316,vbt_B2_day3,2022.2.4,MacIntel,60.0024001,,,,,,down,0,4.0076,,0.049314236,0.007452257,1,0,0,0,6,6,15,1,soda,images/br_soda.png,images/cb_soda.png,0,,,,,,,,,,,,,,,,,,,,,,
,,,,,00025,2023-09-05_12h34.30.316,vbt_B2_day3,2022.2.4,MacIntel,60.0024001,,,,,,down,0,3.3221,,0.103493924,-0.038337674,1,0,0,0,7,7,150,1,gegeven,images/br_gegeven.png,images/cb_gegeven.png,0,,,,,,,,,,,,,,,,,,,,,,
,,,,,00025,2023-09-05_12h34.30.316,vbt_B2_day3,2022.2.4,MacIntel,60.0024001,,,,,,down,0,7.1858,,0.103493924,-0.038337674,1,0,0,0,8,8,179,1,woestijn,images/br_woestijn.png,images/cb_woestijn.png,0,,,,,,,,,,,,,,,,,,,,,,
,,,,,00025,2023-09-05_12h34.30.316,vbt_B2_day3,2022.2.4,MacIntel,60.0024001,,,,,,down,0,1.7683,,0.103493924,-0.038337674,1,0,0,0,9,9,75,1,snoep,images/br_snoep.png,images/cb_snoep.png,0,,,,,,,,,,,,,,,,,,,,,,
,,,,,00025,2023-09-05_12h34.30.316,vbt_B2_day3,2022.2.4,MacIntel,60.0024001,,,,,,down,0,3.469,,0.103493924,-0.038337674,1,0,0,0,10,10,158,1,innemen,images/br_innemen.png,images/cb_innemen.png,0,,,,,,,,,,,,,,,,,,,,,,
,,,,,00025,2023-09-05_12h34.30.316,vbt_B2_day3,2022.2.4,MacIntel,60.0024001,,,,,,down,0,3.2651,,0.103493924,-0.040368924,1,0,0,0,11,11,166,1,strikken,images/br_strikken.png,images/cb_strikken.png,0,,,,,,,,,,,,,,,,,,,,,,
,,,,,00025,2023-09-05_12h34.30.316,vbt_B2_day3,2022.2.4,MacIntel,60.0024001,,,,,,down,0,18.8216,,0.103493924,-0.040368924,1,0,0,0,12,12,60,1,jasje,images/br_jasje.png,images/cb_jasje.png,1,.as.ejasje,,,,,,,,,,,,,,,,,,,,,
,,,,,00025,2023-09-05_12h34.30.316,vbt_B2_day3,2022.2.4,MacIntel,60.0024001,,,,,,down,0,5.2038,,0.089092882,-0.037894965,1,0,0,0,13,13,163,1,schuilen,images/br_schuilen.png,images/cb_schuilen.png,0,,,,,,,,,,,,,,,,,,,,,,
,,,,,00025,2023-09-05_12h34.30.316,vbt_B2_day3,2022.2.4,MacIntel,60.0024001,,,,,,down,0,1.9342,,0.086315104,-0.037894965,1,0,0,0,14,14,66,1,lever,images/br_lever.png,images/cb_lever.png,0,,,,,,,,,,,,,,,,,,,,,,
,,,,,00025,2023-09-05_12h34.30.316,vbt_B2_day3,2022.2.4,MacIntel,60.0024001,,,,,,down,0,3.2305,,0.086315104,-0.037894965,1,0,0,0,15,15,5,1,blad,images/br_blad.png,images/cb_blad.png,0,,,,,,,,,,,,,,,,,,,,,,
,,,,,00025,2023-09-05_12h34.30.316,vbt_B2_day3,2022.2.4,MacIntel,60.0024001,,,,,,down,0,0.0369,,0.086315104,-0.037894965,1,0,0,0,16,16,33,1,vlek,images/br_vlek.png,images/cb_vlek.png,0,,,,,,,,,,,,,,,,,,,,,,
,,,,,00025,2023-09-05_12h34.30.316,vbt_B2_day3,2022.2.4,MacIntel,60.0024001,,,,,,down,0,7.473,,0.086315104,-0.037894965,1,0,0,0,17,17,123,1,hiervan,images/br_hiervan.png,images/cb_hiervan.png,0,,,,,,,,,,,,,,,,,,,,,,
,,,,,00025,2023-09-05_12h34.30.316,vbt_B2_day3,2022.2.4,MacIntel,60.0024001,,,,,,down,0,7.6933,,0.10312066,0.006197917,1,0,0,0,18,18,54,1,gebit,images/br_gebit.png,images/cb_gebit.png,0,,,,,,,,,,,,,,,,,,,,,,
,,,,,00025,2023-09-05_12h34.30.316,vbt_B2_day3,2022.2.4,MacIntel,60.0024001,,,,,,down,0,2.8423,,0.10312066,0.006197917,1,0,0,0,19,19,32,1,palm,images/br_palm.png,images/cb_palm.png,0,,,,,,,,,,,,,,,,,,,,,,
,,,,,00025,2023-09-05_12h34.30.316,vbt_B2_day3,2022.2.4,MacIntel,60.0024001,,,,,,down,0,2.7655,,0.10312066,0.006197917,1,0,0,0,20,20,193,1,weeshuis,images/br_weeshuis.png,images/cb_weeshuis.png,0,,,,,,,,,,,,,,,,,,,,,,
,,,,,00025,2023-09-05_12h34.30.316,vbt_B2_day3,2022.2.4,MacIntel,60.0024001,,,,,,down,0,6.2818,,0.10312066,0.006197917,1,0,0,0,21,21,127,1,doodmoe,images/br_doodmoe.png,images/cb_doodmoe.png,0,,,,,,,,,,,,,,,,,,,,,,
,,,,,00025,2023-09-05_12h34.30.316,vbt_B2_day3,2022.2.4,MacIntel,60.0024001,,,,,,down,0,7.921,,0.108203125,-0.010789931,1,0,0,0,22,22,104,1,zweven,images/br_zweven.png,images/cb_zweven.png,0,,,,,,,,,,,,,,,,,,,,,,
,,,,,00025,2023-09-05_12h34.30.316,vbt_B2_day3,2022.2.4,MacIntel,60.0024001,,,,,,down,0,3.1677,,-0.029422743,0.012730035,1,0,0,0,23,23,47,1,kabel,images/br_kabel.png,images/cb_kabel.png,0,,,,,,,,,,,,,,,,,,,,,,
,,,,,00025,2023-09-05_12h34.30.316,vbt_B2_day3,2022.2.4,MacIntel,60.0024001,,,,,,down,0,4.0428,,-0.029422743,0.012730035,1,0,0,0,24,24,52,1,wagon,images/br_wagon.png,images/cb_wagon.png,0,,,,,,,,,,,,,,,,,,,,,,
,,,,,00025,2023-09-05_12h34.30.316,vbt_B2_day3,2022.2.4,MacIntel,60.0024001,,,,,,down,0,0.92,,-0.029422743,0.012730035,1,0,0,0,25,25,56,1,traag,images/br_traag.png,images/cb_traag.png,0,,,,,,,,,,,,,,,,,,,,,,
,,,,,00025,2023-09-05_12h34.30.316,vbt_B2_day3,2022.2.4,MacIntel,60.0024001,,,,,,down,0,3.3723,,0.066085069,-0.013602431,1,0,0,0,26,26,169,1,oprotten,images/br_oprotten.png,images/cb_oprotten.png,0,,,,,,,,,,,,,,,,,,,,,,
,,,,,00025,2023-09-05_12h34.30.316,vbt_B2_day3,2022.2.4,MacIntel,60.0024001,,,,,,down,0,2.7593,,0.066085069,-0.013602431,1,0,0,0,27,27,95,1,vreten,images/br_vreten.png,images/cb_vreten.png,0,,,,,,,,,,,,,,,,,,,,,,
,,,,,00025,2023-09-05_12h34.30.316,vbt_B2_day3,2022.2.4,MacIntel,60.0024001,,,,,,down,0,1.9933,,0.117204861,0.005876736,1,0,0,0,28,28,98,1,kreeft,images/br_kreeft.png,images/cb_kreeft.png,0,,,,,,,,,,,,,,,,,,,,,,
,,,,,00025,2023-09-05_12h34.30.316,vbt_B2_day3,2022.2.4,MacIntel,60.0024001,,,,,,down,0,7.1238,,-0.188020833,-0.085703125,1,0,0,0,29,29,147,1,komisch,images/br_komisch.png,images/cb_komisch.png,0,,,,,,,,,,,,,,,,,,,,,,
,,,,,00025,2023-09-05_12h34.30.316,vbt_B2_day3,2022.2.4,MacIntel,60.0024001,,,,,,down,0,3.9694,,0.050212674,-0.027756076,1,0,0,0,30,30,175,1,heengaan,images/br_heengaan.png,images/cb_heengaan.png,0,,,,,,,,,,,,,,,,,,,,,,
,,,,,00025,2023-09-05_12h34.30.316,vbt_B2_day3,2022.2.4,MacIntel,60.0024001,,,,,,down,0,4.2825,,0.050212674,-0.027756076,1,0,0,0,31,31,142,1,snuiven,images/br_snuiven.png,images/cb_snuiven.png,1,snuiven,,,,,,,,,,,,,,,,,,,,,
,,,,,00025,2023-09-05_12h34.30.316,vbt_B2_day3,2022.2.4,MacIntel,60.0024001,,,,,,down,0,1.701,,0.050212674,-0.027756076,1,0,0,0,32,32,31,1,poes,images/br_poes.png,images/cb_poes.png,0,,,,,,,,,,,,,,,,,,,,,,
,,,,,00025,2023-09-05_12h34.30.316,vbt_B2_day3,2022.2.4,MacIntel,60.0024001,,,,,,down,0,5.1336,,0.050212674,-0.027756076,1,0,0,0,33,33,161,1,attentie,images/br_attentie.png,images/cb_attentie.png,0,,,,,,,,,,,,,,,,,,,,,,
,,,,,00025,2023-09-05_12h34.30.316,vbt_B2_day3,2022.2.4,MacIntel,60.0024001,,,,,,down,0,3.3002,,0.050212674,-0.027756076,1,0,0,0,34,34,24,1,jurk,images/br_jurk.png,images/cb_jurk.png,0,,,,,,,,,,,,,,,,,,,,,,
,,,,,00025,2023-09-05_12h34.30.316,vbt_B2_day3,2022.2.4,MacIntel,60.0024001,,,,,,down,0,1.9376,,0.050212674,-0.027756076,1,0,0,0,35,35,4,1,moes,images/br_moes.png,images/cb_moes.png,0,,,,,,,,,,,,,,,,,,,,,,
,,,,,00025,2023-09-05_12h34.30.316,vbt_B2_day3,2022.2.4,MacIntel,60.0024001,,,,,,down,0,1.0541,,0.050212674,-0.027756076,1,0,0,0,36,36,25,1,plek,images/br_plek.png,images/cb_plek.png,0,,,,,,,,,,,,,,,,,,,,,,
,,,,,00025,2023-09-05_12h34.30.316,vbt_B2_day3,2022.2.4,MacIntel,60.0024001,,,,,,down,0,1.7899,,0.036766493,-0.016284722,1,0,0,0,37,37,148,1,smullen,images/br_smullen.png,images/cb_smullen.png,0,,,,,,,,,,,,,,,,,,,,,,
,,,,,00025,2023-09-05_12h34.30.316,vbt_B2_day3,2022.2.4,MacIntel,60.0024001,,,,,,down,0,8.5554,,0.084131944,-0.006223958,1,0,0,0,38,38,92,1,geheim,images/br_geheim.png,images/cb_geheim.png,0,,,,,,,,,,,,,,,,,,,,,,
,,,,,00025,2023-09-05_12h34.30.316,vbt_B2_day3,2022.2.4,MacIntel,60.0024001,,,,,,down,0,1.4213,,-0.040052083,-0.026636285,1,0,0,0,39,39,9,1,hier,images/br_hier.png,images/cb_hier.png,0,,,,,,,,,,,,,,,,,,,,,,
,,,,,00025,2023-09-05_12h34.30.316,vbt_B2_day3,2022.2.4,MacIntel,60.0024001,,,,,,down,0,5.9343,,-0.040052083,-0.026636285,1,0,0,0,40,40,11,1,mode,images/br_mode.png,images/cb_mode.png,0,,,,,,,,,,,,,,,,,,,,,,
,,,,,00025,2023-09-05_12h34.30.316,vbt_B2_day3,2022.2.4,MacIntel,60.0024001,,,,,,down,0,3.636,,0.06109809,-0.046002604,1,0,0,0,41,41,113,1,koppen,images/br_koppen.png,images/cb_koppen.png,0,,,,,,,,,,,,,,,,,,,,,,
,,,,,00025,2023-09-05_12h34.30.316,vbt_B2_day3,2022.2.4,MacIntel,60.0024001,,,,,,down,0,1.3702,,0.06109809,-0.046002604,1,0,0,0,42,42,115,1,kleren,images/br_kleren.png,images/cb_kleren.png,0,,,,,,,,,,,,,,,,,,,,,,
,,,,,00025,2023-09-05_12h34.30.316,vbt_B2_day3,2022.2.4,MacIntel,60.0024001,,,,,,down,0,11.8345,,0.06109809,-0.046002604,1,0,0,0,43,43,187,1,opkijken,images/br_opkijken.png,images/cb_opkijken.png,0,,,,,,,,,,,,,,,,,,,,,,
,,,,,00025,2023-09-05_12h34.30.316,vbt_B2_day3,2022.2.4,MacIntel,60.0024001,,,,,,down,0,5.5816,,0.06109809,-0.046002604,1,0,0,0,44,44,195,1,middelen,images/br_middelen.png,images/cb_middelen.png,0,,,,,,,,,,,,,,,,,,,,,,
,,,,,00025,2023-09-05_12h34.30.316,vbt_B2_day3,2022.2.4,MacIntel,60.0024001,,,,,,down,0,3.3007,,0.06109809,-0.046002604,1,0,0,0,45,45,53,1,baron,images/br_baron.png,images/cb_baron.png,0,,,,,,,,,,,,,,,,,,,,,,
,,,,,00025,2023-09-05_12h34.30.316,vbt_B2_day3,2022.2.4,MacIntel,60.0024001,,,,,,down,0,4.5736,,0.06109809,-0.046002604,1,0,0,0,46,46,44,1,flits,images/br_flits.png,images/cb_flits.png,0,,,,,,,,,,,,,,,,,,,,,,
,,,,,00025,2023-09-05_12h34.30.316,vbt_B2_day3,2022.2.4,MacIntel,60.0024001,,,,,,down,0,6.3992,,0.06109809,-0.046002604,1,0,0,0,47,47,46,1,jagen,images/br_jagen.png,images/cb_jagen.png,0,,,,,,,,,,,,,,,,,,,,,,
,,,,,00025,2023-09-05_12h34.30.316,vbt_B2_day3,2022.2.4,MacIntel,60.0024001,,,,,,down,0,2.3707,,0.06109809,-0.044466146,1,0,0,0,48,48,36,1,vuur,images/br_vuur.png,images/cb_vuur.png,0,,,,,,,,,,,,,,,,,,,,,,
,,,,,00025,2023-09-05_12h34.30.316,vbt_B2_day3,2022.2.4,MacIntel,60.0024001,,,,,,down,0,6.4218,,0.06109809,-0.044466146,1,0,0,0,49,49,136,1,waarbij,images/br_waarbij.png,images/cb_waarbij.png,0,,,,,,,,,,,,,,,,,,,,,,
,,,,,00025,2023-09-05_12h34.30.316,vbt_B2_day3,2022.2.4,MacIntel,60.0024001,,,,,,down,0,12.6226,,0.06109809,-0.044466146,1,0,0,0,50,50,190,1,goedkoop,images/br_goedkoop.png,images/cb_goedkoop.png,0,,,,,,,,,,,,,,,,,,,,,,
,,,,,00025,2023-09-05_12h34.30.316,vbt_B2_day3,2022.2.4,MacIntel,60.0024001,,,,,,down,0,1.5318,,0.06109809,-0.044466146,1,0,0,0,51,51,38,1,baai,images/br_baai.png,images/cb_baai.png,0,,,,,,,,,,,,,,,,,,,,,,
,,,,,00025,2023-09-05_12h34.30.316,vbt_B2_day3,2022.2.4,MacIntel,60.0024001,,,,,,down,0,2.2485,,0.06109809,-0.044466146,1,0,0,0,52,52,71,1,bever,images/br_bever.png,images/cb_bever.png,0,,,,,,,,,,,,,,,,,,,,,,
,,,,,00025,2023-09-05_12h34.30.316,vbt_B2_day3,2022.2.4,MacIntel,60.0024001,,,,,,down,0,13.7495,,0.143671875,-0.023880208,1,0,0,0,53,53,155,1,gerucht,images/br_gerucht.png,images/cb_gerucht.png,0,,,,,,,,,,,,,,,,,,,,,,
,,,,,00025,2023-09-05_12h34.30.316,vbt_B2_day3,2022.2.4,MacIntel,60.0024001,,,,,,down,0,2.6032,,0.065863715,-0.017947049,1,0,0,0,54,54,68,1,schat,images/br_schat.png,images/cb_schat.png,0,,,,,,,,,,,,,,,,,,,,,,
,,,,,00025,2023-09-05_12h34.30.316,vbt_B2_day3,2022.2.4,MacIntel,60.0024001,,,,,,down,0,15.4025,,0.06483941,-0.030238715,1,0,0,0,55,55,176,1,techniek,images/br_techniek.png,images/cb_techniek.png,0,,,,,,,,,,,,,,,,,,,,,,
,,,,,00025,2023-09-05_12h34.30.316,vbt_B2_day3,2022.2.4,MacIntel,60.0024001,,,,,,down,0,38.8997,,0.06483941,-0.030238715,1,0,0,0,56,56,157,1,uitlaat,images/br_uitlaat.png,images/cb_uitlaat.png,0,,,,,,,,,,,,,,,,,,,,,,
,,,,,00025,2023-09-05_12h34.30.316,vbt_B2_day3,2022.2.4,MacIntel,60.0024001,,,,,,down,0,1.8664,,0.06483941,-0.030238715,1,0,0,0,57,57,159,1,sufferd,images/br_sufferd.png,images/cb_sufferd.png,0,,,,,,,,,,,,,,,,,,,,,,
,,,,,00025,2023-09-05_12h34.30.316,vbt_B2_day3,2022.2.4,MacIntel,60.0024001,,,,,,down,0,26.2712,,-0.060542535,-0.046024306,1,0,0,0,58,58,55,1,praat,images/br_praat.png,images/cb_praat.png,0,,,,,,,,,,,,,,,,,,,,,,
,,,,,00025,2023-09-05_12h34.30.316,vbt_B2_day3,2022.2.4,MacIntel,60.0024001,,,,,,down,0,4.0917,,0.158489583,-0.007374132,1,0,0,0,59,59,130,1,keihard,images/br_keihard.png,images/cb_keihard.png,0,,,,,,,,,,,,,,,,,,,,,,
,,,,,00025,2023-09-05_12h34.30.316,vbt_B2_day3,2022.2.4,MacIntel,60.0024001,,,,,,down,0,2.5685,,0.158489583,-0.007374132,1,0,0,0,60,60,96,1,slagen,images/br_slagen.png,images/cb_slagen.png,0,,,,,,,,,,,,,,,,,,,,,,
,,,,,00025,2023-09-05_12h34.30.316,vbt_B2_day3,2022.2.4,MacIntel,60.0024001,,,,,,down,0,17.2008,,0.158489583,-0.007374132,1,0,0,0,61,61,34,1,vorm,images/br_vorm.png,images/cb_vorm.png,0,,,,,,,,,,,,,,,,,,,,,,
,,,,,00025,2023-09-05_12h34.30.316,vbt_B2_day3,2022.2.4,MacIntel,60.0024001,,,,,,down,0,0.9016,,0.158489583,-0.007374132,1,0,0,0,62,62,84,1,lokken,images/br_lokken.png,images/cb_lokken.png,0,,,,,,,,,,,,,,,,,,,,,,
,,,,,00025,2023-09-05_12h34.30.316,vbt_B2_day3,2022.2.4,MacIntel,60.0024001,,,,,,down,0,8.0545,,-0.025329861,-0.026076389,1,0,0,0,63,63,67,1,zwart,images/br_zwart.png,images/cb_zwart.png,0,,,,,,,,,,,,,,,,,,,,,,
,,,,,00025,2023-09-05_12h34.30.316,vbt_B2_day3,2022.2.4,MacIntel,60.0024001,,,,,,down,0,3.6772,,-0.025329861,-0.026076389,1,0,0,0,64,64,164,1,anarchie,images/br_anarchie.png,images/cb_anarchie.png,0,,,,,,,,,,,,,,,,,,,,,,
,,,,,00025,2023-09-05_12h34.30.316,vbt_B2_day3,2022.2.4,MacIntel,60.0024001,,,,,,down,0,8.5658,,-0.025329861,-0.026076389,1,0,0,0,65,65,185,1,mijnheer,images/br_mijnheer.png,images/cb_mijnheer.png,0,,,,,,,,,,,,,,,,,,,,,,
,,,,,00025,2023-09-05_12h34.30.316,vbt_B2_day3,2022.2.4,MacIntel,60.0024001,,,,,,down,0,1.2822,,-0.025329861,-0.026076389,1,0,0,0,66,66,18,1,blik,images/br_blik.png,images/cb_blik.png,0,,,,,,,,,,,,,,,,,,,,,,
,,,,,00025,2023-09-05_12h34.30.316,vbt_B2_day3,2022.2.4,MacIntel,60.0024001,,,,,,down,0,1.8995,,-0.025329861,-0.026076389,1,0,0,0,67,67,20,1,site,images/br_site.png,images/cb_site.png,1,site,,,,,,,,,,,,,,,,,,,,,
,,,,,00025,2023-09-05_12h34.30.316,vbt_B2_day3,2022.2.4,MacIntel,60.0024001,,,,,,down,0,3.7879,,-0.025329861,-0.026076389,1,0,0,0,68,68,141,1,knielen,images/br_knielen.png,images/cb_knielen.png,1,knielen,,,,,,,,,,,,,,,,,,,,,
,,,,,00025,2023-09-05_12h34.30.316,vbt_B2_day3,2022.2.4,MacIntel,60.0024001,,,,,,down,0,0.8023,,-0.025329861,-0.026076389,1,0,0,0,69,69,26,1,leuk,images/br_leuk.png,images/cb_leuk.png,0,,,,,,,,,,,,,,,,,,,,,,
,,,,,00025,2023-09-05_12h34.30.316,vbt_B2_day3,2022.2.4,MacIntel,60.0024001,,,,,,down,0,1.5028,,-0.025329861,-0.026076389,1,0,0,0,70,70,78,1,leren,images/br_leren.png,images/cb_leren.png,0,,,,,,,,,,,,,,,,,,,,,,
,,,,,00025,2023-09-05_12h34.30.316,vbt_B2_day3,2022.2.4,MacIntel,60.0024001,,,,,,down,0,8.7575,,-0.025329861,-0.026076389,1,0,0,0,71,71,126,1,kasteel,images/br_kasteel.png,images/cb_kasteel.png,0,,,,,,,,,,,,,,,,,,,,,,
,,,,,00025,2023-09-05_12h34.30.316,vbt_B2_day3,2022.2.4,MacIntel,60.0024001,,,,,,down,0,4.0036,,0.125225694,-0.026992188,1,0,0,0,72,72,192,1,schaamte,images/br_schaamte.png,images/cb_schaamte.png,0,,,,,,,,,,,,,,,,,,,,,,
,,,,,00025,2023-09-05_12h34.30.316,vbt_B2_day3,2022.2.4,MacIntel,60.0024001,,,,,,down,0,1.8323,,0.125225694,-0.026992188,1,0,0,0,73,73,107,1,maling,images/br_maling.png,images/cb_maling.png,0,,,,,,,,,,,,,,,,,,,,,,
,,,,,00025,2023-09-05_12h34.30.316,vbt_B2_day3,2022.2.4,MacIntel,60.0024001,,,,,,down,0,0.7696,,0.125225694,-0.026992188,1,0,0,0,74,74,48,1,steel,images/br_steel.png,images/cb_steel.png,0,,,,,,,,,,,,,,,,,,,,,,
,,,,,00025,2023-09-05_12h34.30.316,vbt_B2_day3,2022.2.4,MacIntel,60.0024001,,,,,,down,0,7.5932,,-0.02624566,-0.291779514,1,0,0,0,75,75,63,1,flirt,images/br_flirt.png,images/cb_flirt.png,1,flirt,,,,,,,,,,,,,,,,,,,,,
,,,,,00025,2023-09-05_12h34.30.316,vbt_B2_day3,2022.2.4,MacIntel,60.0024001,,,,,,down,0,7.0286,,-0.112625868,-0.080863715,1,0,0,0,76,76,37,1,mijn,images/br_mijn.png,images/cb_mijn.png,0,,,,,,,,,,,,,,,,,,,,,,
,,,,,00025,2023-09-05_12h34.30.316,vbt_B2_day3,2022.2.4,MacIntel,60.0024001,,,,,,down,0,1.6376,,-0.112625868,-0.080863715,1,0,0,0,77,77,83,1,mening,images/br_mening.png,images/cb_mening.png,0,,,,,,,,,,,,,,,,,,,,,,
,,,,,00025,2023-09-05_12h34.30.316,vbt_B2_day3,2022.2.4,MacIntel,60.0024001,,,,,,down,0,3.7188,,0.311649306,-0.008871528,1,0,0,0,78,78,109,1,totaal,images/br_totaal.png,images/cb_totaal.png,0,,,,,,,,,,,,,,,,,,,,,,
,,,,,00025,2023-09-05_12h34.30.316,vbt_B2_day3,2022.2.4,MacIntel,60.0024001,,,,,,down,0,3.2,,-0.173932292,0.085013021,1,0,0,0,79,79,194,1,driemaal,images/br_driemaal.png,images/cb_driemaal.png,0,,,,,,,,,,,,,,,,,,,,,,
,,,,,00025,2023-09-05_12h34.30.316,vbt_B2_day3,2022.2.4,MacIntel,60.0024001,,,,,,down,0,2.7042,,-0.20812066,-0.050021701,1,0,0,0,80,80,122,1,waarvan,images/br_waarvan.png,images/cb_waarvan.png,0,,,,,,,,,,,,,,,,,,,,,,
,,,,,00025,2023-09-05_12h34.30.316,vbt_B2_day3,2022.2.4,MacIntel,60.0024001,,,,,,down,0,1.6158,,0.040503472,-0.028550347,1,0,0,0,81,81,189,1,aanraden,images/br_aanraden.png,images/cb_aanraden.png,0,,,,,,,,,,,,,,,,,,,,,,
,,,,,00025,2023-09-05_12h34.30.316,vbt_B2_day3,2022.2.4,MacIntel,60.0024001,,,,,,down,0,1.3261,,0.040503472,-0.028550347,1,0,0,0,82,82,120,1,klimmen,images/br_klimmen.png,images/cb_klimmen.png,0,,,,,,,,,,,,,,,,,,,,,,
,,,,,00025,2023-09-05_12h34.30.316,vbt_B2_day3,2022.2.4,MacIntel,60.0024001,,,,,,down,0,6.1,,0.040503472,-0.028550347,1,0,0,0,83,83,145,1,invloed,images/br_invloed.png,images/cb_invloed.png,0,,,,,,,,,,,,,,,,,,,,,,
,,,,,00025,2023-09-05_12h34.30.316,vbt_B2_day3,2022.2.4,MacIntel,60.0024001,,,,,,down,0,4.1193,,0.040503472,-0.028550347,1,0,0,0,84,84,57,1,steek,images/br_steek.png,images/cb_steek.png,0,,,,,,,,,,,,,,,,,,,,,,
,,,,,00025,2023-09-05_12h34.30.316,vbt_B2_day3,2022.2.4,MacIntel,60.0024001,,,,,,down,0,4.0157,,0.040503472,-0.028550347,1,0,0,0,85,85,116,1,besmet,images/br_besmet.png,images/cb_besmet.png,0,,,,,,,,,,,,,,,,,,,,,,
,,,,,00025,2023-09-05_12h34.30.316,vbt_B2_day3,2022.2.4,MacIntel,60.0024001,,,,,,down,0,9.1005,,0.040503472,-0.028550347,1,0,0,0,86,86,124,1,bloeien,images/br_bloeien.png,images/cb_bloeien.png,0,,,,,,,,,,,,,,,,,,,,,,
,,,,,00025,2023-09-05_12h34.30.316,vbt_B2_day3,2022.2.4,MacIntel,60.0024001,,,,,,down,0,0.187,,0.040503472,-0.028550347,1,0,0,0,87,87,10,1,leek,images/br_leek.png,images/cb_leek.png,0,,,,,,,,,,,,,,,,,,,,,,
,,,,,00025,2023-09-05_12h34.30.316,vbt_B2_day3,2022.2.4,MacIntel,60.0024001,,,,,,down,0,4.0691,,0.040503472,-0.028550347,1,0,0,0,88,88,42,1,bleek,images/br_bleek.png,images/cb_bleek.png,0,,,,,,,,,,,,,,,,,,,,,,
,,,,,00025,2023-09-05_12h34.30.316,vbt_B2_day3,2022.2.4,MacIntel,60.0024001,,,,,,down,0,0.1706,,0.040503472,-0.028550347,1,0,0,0,89,89,154,1,aflopen,images/br_aflopen.png,images/cb_aflopen.png,0,,,,,,,,,,,,,,,,,,,,,,
,,,,,00025,2023-09-05_12h34.30.316,vbt_B2_day3,2022.2.4,MacIntel,60.0024001,,,,,,down,0,9.4523,,-0.016666667,-0.295503472,1,0,0,0,90,90,140,1,blijven,images/br_blijven.png,images/cb_blijven.png,1,blijven,,,,,,,,,,,,,,,,,,,,,
,,,,,00025,2023-09-05_12h34.30.316,vbt_B2_day3,2022.2.4,MacIntel,60.0024001,,,,,,down,0,12.4345,,-0.016666667,-0.295503472,1,0,0,0,91,91,146,1,opkomen,images/br_opkomen.png,images/cb_opkomen.png,0,,,,,,,,,,,,,,,,,,,,,,
,,,,,00025,2023-09-05_12h34.30.316,vbt_B2_day3,2022.2.4,MacIntel,60.0024001,,,,,,down,0,1.6342,,-0.016666667,-0.295503472,1,0,0,0,92,92,93,1,waarop,images/br_waarop.png,images/cb_waarop.png,0,,,,,,,,,,,,,,,,,,,,,,
,,,,,00025,2023-09-05_12h34.30.316,vbt_B2_day3,2022.2.4,MacIntel,60.0024001,,,,,,down,0,9.8512,,-0.016666667,-0.295503472,1,0,0,0,93,93,188,1,strekken,images/br_strekken.png,images/cb_strekken.png,0,,,,,,,,,,,,,,,,,,,,,,
,,,,,00025,2023-09-05_12h34.30.316,vbt_B2_day3,2022.2.4,MacIntel,60.0024001,,,,,,down,0,0.7015,,-0.016666667,-0.295503472,1,0,0,0,94,94,1,1,zaal,images/br_zaal.png,images/cb_zaal.png,0,,,,,,,,,,,,,,,,,,,,,,
,,,,,00025,2023-09-05_12h34.30.316,vbt_B2_day3,2022.2.4,MacIntel,60.0024001,,,,,,down,0,9.1044,,-0.062109375,-0.263888889,1,0,0,0,95,95,143,1,hechten,images/br_hechten.png,images/cb_hechten.png,1,hechten,,,,,,,,,,,,,,,,,,,,,
,,,,,00025,2023-09-05_12h34.30.316,vbt_B2_day3,2022.2.4,MacIntel,60.0024001,,,,,,down,0,1.0771,,-0.062109375,-0.263888889,1,0,0,0,96,96,39,1,laag,images/br_laag.png,images/cb_laag.png,0,,,,,,,,,,,,,,,,,,,,,,
,,,,,00025,2023-09-05_12h34.30.316,vbt_B2_day3,2022.2.4,MacIntel,60.0024001,,,,,,down,0,4.1027,,-0.062109375,-0.263888889,1,0,0,0,97,97,152,1,afnemen,images/br_afnemen.png,images/cb_afnemen.png,0,,,,,,,,,,,,,,,,,,,,,,
,,,,,00025,2023-09-05_12h34.30.316,vbt_B2_day3,2022.2.4,MacIntel,60.0024001,,,,,,down,0,2.6088,,-0.062109375,-0.263888889,1,0,0,0,98,98,51,1,samen,images/br_samen.png,images/cb_samen.png,0,,,,,,,,,,,,,,,,,,,,,,
,,,,,00025,2023-09-05_12h34.30.316,vbt_B2_day3,2022.2.4,MacIntel,60.0024001,,,,,,down,0,6.5491,,-0.062109375,-0.263888889,1,0,0,0,99,99,82,1,muziek,images/br_muziek.png,images/cb_muziek.png,0,,,,,,,,,,,,,,,,,,,,,,
,,,,,00025,2023-09-05_12h34.30.316,vbt_B2_day3,2022.2.4,MacIntel,60.0024001,,,,,,down,0,10.5239,,-0.062109375,-0.263888889,1,0,0,0,100,100,87,1,toeval,images/br_toeval.png,images/cb_toeval.png,0,,,,,,,,,,,,,,,,,,,,,,
,,,,,00025,2023-09-05_12h34.30.316,vbt_B2_day3,2022.2.4,MacIntel,60.0024001,,,,,,down,0,1.9872,,-0.062109375,-0.263888889,1,0,0,0,101,101,76,1,afval,images/br_afval.png,images/cb_afval.png,0,,,,,,,,,,,,,,,,,,,,,,
,,,,,00025,2023-09-05_12h34.30.316,vbt_B2_day3,2022.2.4,MacIntel,60.0024001,,,,,,down,0,1.3507,,-0.062109375,-0.263888889,1,0,0,0,102,102,88,1,boeien,images/br_boeien.png,images/cb_boeien.png,0,,,,,,,,,,,,,,,,,,,,,,
,,,,,00025,2023-09-05_12h34.30.316,vbt_B2_day3,2022.2.4,MacIntel,60.0024001,,,,,,down,0,3.8596,,-0.062109375,-0.263888889,1,0,0,0,103,103,21,1,mist,images/br_mist.png,images/cb_mist.png,1,mist,,,,,,,,,,,,,,,,,,,,,
,,,,,00025,2023-09-05_12h34.30.316,vbt_B2_day3,2022.2.4,MacIntel,60.0024001,,,,,,down,0,2.5199,,-0.063515625,-0.263888889,1,0,0,0,104,104,105,1,wijlen,images/br_wijlen.png,images/cb_wijlen.png,0,,,,,,,,,,,,,,,,,,,,,,
,,,,,00025,2023-09-05_12h34.30.316,vbt_B2_day3,2022.2.4,MacIntel,60.0024001,,,,,,down,0,5.1002,,-0.063515625,-0.263888889,1,0,0,0,105,105,2,1,jaar,images/br_jaar.png,images/cb_jaar.png,0,,,,,,,,,,,,,,,,,,,,,,
,,,,,00025,2023-09-05_12h34.30.316,vbt_B2_day3,2022.2.4,MacIntel,60.0024001,,,,,,down,0,0.2229,,-0.063515625,-0.263888889,1,0,0,0,106,106,29,1,baas,images/br_baas.png,images/cb_baas.png,0,,,,,,,,,,,,,,,,,,,,,,
,,,,,00025,2023-09-05_12h34.30.316,vbt_B2_day3,2022.2.4,MacIntel,60.0024001,,,,,,down,0,12.8866,,-0.063515625,-0.263888889,1,0,0,0,107,107,196,1,nakijken,images/br_nakijken.png,images/cb_nakijken.png,0,,,,,,,,,,,,,,,,,,,,,,
,,,,,00025,2023-09-05_12h34.30.316,vbt_B2_day3,2022.2.4,MacIntel,60.0024001,,,,,,down,0,1.2894,,-0.063515625,-0.263888889,1,0,0,0,108,108,65,1,parel,images/br_parel.png,images/cb_parel.png,0,,,,,,,,,,,,,,,,,,,,,,
,,,,,00025,2023-09-05_12h34.30.316,vbt_B2_day3,2022.2.4,MacIntel,60.0024001,,,,,,down,0,0.4308,,-0.063515625,-0.263888889,1,0,0,0,109,109,3,1,mand,images/br_mand.png,images/cb_mand.png,0,,,,,,,,,,,,,,,,,,,,,,
,,,,,00025,2023-09-05_12h34.30.316,vbt_B2_day3,2022.2.4,MacIntel,60.0024001,,,,,,down,0,10.267,,-0.063515625,-0.263888889,1,0,0,0,110,110,172,1,weigeren,images/br_weigeren.png,images/cb_weigeren.png,0,,,,,,,,,,,,,,,,,,,,,,
,,,,,00025,2023-09-05_12h34.30.316,vbt_B2_day3,2022.2.4,MacIntel,60.0024001,,,,,,down,0,17.0033,,0.07296441,-0.039947917,1,0,0,0,111,111,100,1,geduld,images/br_geduld.png,images/cb_geduld.png,1,geduld,,,,,,,,,,,,,,,,,,,,,
,,,,,00025,2023-09-05_12h34.30.316,vbt_B2_day3,2022.2.4,MacIntel,60.0024001,,,,,,down,0,0.2215,,-0.061206597,-0.085976563,1,0,0,0,112,112,138,1,akkoord,images/br_akkoord.png,images/cb_akkoord.png,0,,,,,,,,,,,,,,,,,,,,,,
,,,,,00025,2023-09-05_12h34.30.316,vbt_B2_day3,2022.2.4,MacIntel,60.0024001,,,,,,down,0,5.7302,,-0.061206597,-0.085976563,1,0,0,0,113,113,177,1,maaltijd,images/br_maaltijd.png,images/cb_maaltijd.png,0,,,,,,,,,,,,,,,,,,,,,,
,,,,,00025,2023-09-05_12h34.30.316,vbt_B2_day3,2022.2.4,MacIntel,60.0024001,,,,,,down,0,3.2681,,-0.061206597,-0.084930556,1,0,0,0,114,114,132,1,grappen,images/br_grappen.png,images/cb_grappen.png,0,,,,,,,,,,,,,,,,,,,,,,
,,,,,00025,2023-09-05_12h34.30.316,vbt_B2_day3,2022.2.4,MacIntel,60.0024001,,,,,,down,0,0.7134,,-0.061206597,-0.084149306,1,0,0,0,115,115,108,1,excuus,images/br_excuus.png,images/cb_excuus.png,0,,,,,,,,,,,,,,,,,,,,,,
,,,,,00025,2023-09-05_12h34.30.316,vbt_B2_day3,2022.2.4,MacIntel,60.0024001,,,,,,down,0,1.1514,,-0.061206597,-0.084149306,1,0,0,0,116,116,41,1,maken,images/br_maken.png,images/cb_maken.png,0,,,,,,,,,,,,,,,,,,,,,,
,,,,,00025,2023-09-05_12h34.30.316,vbt_B2_day3,2022.2.4,MacIntel,60.0024001,,,,,,down,0,3.7076,,-0.061197917,-0.084661458,1,0,0,0,117,117,14,1,rijp,images/br_rijp.png,images/cb_rijp.png,0,,,,,,,,,,,,,,,,,,,,,,
,,,,,00025,2023-09-05_12h34.30.316,vbt_B2_day3,2022.2.4,MacIntel,60.0024001,,,,,,down,0,4.3363,,-0.061197917,-0.084661458,1,0,0,0,118,118,61,1,groen,images/br_groen.png,images/cb_groen.png,1,groen,,,,,,,,,,,,,,,,,,,,,
,,,,,00025,2023-09-05_12h34.30.316,vbt_B2_day3,2022.2.4,MacIntel,60.0024001,,,,,,down,0,5.8021,,-0.062013889,-0.083845486,1,0,0,0,119,119,186,1,voorraad,images/br_voorraad.png,images/cb_voorraad.png,0,,,,,,,,,,,,,,,,,,,,,,
,,,,,00025,2023-09-05_12h34.30.316,vbt_B2_day3,2022.2.4,MacIntel,60.0024001,,,,,,down,0,6.1504,,-0.062013889,-0.083845486,1,0,0,0,120,120,6,1,diep,images/br_diep.png,images/cb_diep.png,0,,,,,,,,,,,,,,,,,,,,,,
,,,,,00025,2023-09-05_12h34.30.316,vbt_B2_day3,2022.2.4,MacIntel,60.0024001,,,,,,down,0,24.4275,,-0.063068576,-0.303394097,1,0,0,0,121,121,103,1,joggen,images/br_joggen.png,images/cb_joggen.png,1,oggen,,,,,,,,,,,,,,,,,,,,,
,,,,,00025,2023-09-05_12h34.30.316,vbt_B2_day3,2022.2.4,MacIntel,60.0024001,,,,,,down,0,0.7857,,-0.063068576,-0.303394097,1,0,0,0,122,122,19,1,geit,images/br_geit.png,images/cb_geit.png,0,,,,,,,,,,,,,,,,,,,,,,
,,,,,00025,2023-09-05_12h34.30.316,vbt_B2_day3,2022.2.4,MacIntel,60.0024001,,,,,,down,0,4.2883,,-0.063068576,-0.303394097,1,0,0,0,123,123,134,1,geliefd,images/br_geliefd.png,images/cb_geliefd.png,0,,,,,,,,,,,,,,,,,,,,,,
,,,,,00025,2023-09-05_12h34.30.316,vbt_B2_day3,2022.2.4,MacIntel,60.0024001,,,,,,down,0,3.2827,,-0.063068576,-0.303394097,1,0,0,0,124,124,165,1,feestdag,images/br_feestdag.png,images/cb_feestdag.png,0,,,,,,,,,,,,,,,,,,,,,,
,,,,,00025,2023-09-05_12h34.30.316,vbt_B2_day3,2022.2.4,MacIntel,60.0024001,,,,,,down,0,14.9996,,-0.063068576,-0.303394097,1,0,0,0,125,125,86,1,woning,images/br_woning.png,images/cb_woning.png,0,,,,,,,,,,,,,,,,,,,,,,
,,,,,00025,2023-09-05_12h34.30.316,vbt_B2_day3,2022.2.4,MacIntel,60.0024001,,,,,,down,0,0.3657,,-0.063068576,-0.303394097,1,0,0,0,126,126,35,1,lust,images/br_lust.png,images/cb_lust.png,0,,,,,,,,,,,,,,,,,,,,,,
,,,,,00025,2023-09-05_12h34.30.316,vbt_B2_day3,2022.2.4,MacIntel,60.0024001,,,,,,down,0,0.0858,,-0.063068576,-0.303394097,1,0,0,0,127,127,77,1,woede,images/br_woede.png,images/cb_woede.png,0,,,,,,,,,,,,,,,,,,,,,,
,,,,,00025,2023-09-05_12h34.30.316,vbt_B2_day3,2022.2.4,MacIntel,60.0024001,,,,,,down,0,1.1062,,-0.063068576,-0.303394097,1,0,0,0,128,128,102,1,legaal,images/br_legaal.png,images/cb_legaal.png,1,legaal,,,,,,,,,,,,,,,,,,,,,
,,,,,00025,2023-09-05_12h34.30.316,vbt_B2_day3,2022.2.4,MacIntel,60.0024001,,,,,,down,0,2.3854,,-0.063068576,-0.303394097,1,0,0,0,129,129,156,1,rechten,images/br_rechten.png,images/cb_rechten.png,0,,,,,,,,,,,,,,,,,,,,,,
,,,,,00025,2023-09-05_12h34.30.316,vbt_B2_day3,2022.2.4,MacIntel,60.0024001,,,,,,down,0,4.3651,,-0.063068576,-0.303394097,1,0,0,0,130,130,160,1,daarheen,images/br_daarheen.png,images/cb_daarheen.png,0,,,,,,,,,,,,,,,,,,,,,,
,,,,,00025,2023-09-05_12h34.30.316,vbt_B2_day3,2022.2.4,MacIntel,60.0024001,,,,,,down,0,0.7513,,-0.063068576,-0.303394097,1,0,0,0,131,131,128,1,prikken,images/br_prikken.png,images/cb_prikken.png,0,,,,,,,,,,,,,,,,,,,,,,
,,,,,00025,2023-09-05_12h34.30.316,vbt_B2_day3,2022.2.4,MacIntel,60.0024001,,,,,,down,0,2.4551,,-0.063068576,-0.303394097,1,0,0,0,132,132,118,1,vinger,images/br_vinger.png,images/cb_vinger.png,0,,,,,,,,,,,,,,,,,,,,,,
,,,,,00025,2023-09-05_12h34.30.316,vbt_B2_day3,2022.2.4,MacIntel,60.0024001,,,,,,down,0,1.6201,,-0.063068576,-0.303394097,1,0,0,0,133,133,135,1,gedicht,images/br_gedicht.png,images/cb_gedicht.png,0,,,,,,,,,,,,,,,,,,,,,,
,,,,,00025,2023-09-05_12h34.30.316,vbt_B2_day3,2022.2.4,MacIntel,60.0024001,,,,,,down,0,9.8197,,0.023667535,-0.145915799,1,0,0,0,134,134,22,1,stof,images/br_stof.png,images/cb_stof.png,1,sto,,,,,,,,,,,,,,,,,,,,,
,,,,,00025,2023-09-05_12h34.30.316,vbt_B2_day3,2022.2.4,MacIntel,60.0024001,,,,,,down,0,1.1564,,0.023667535,-0.145915799,1,0,0,0,135,135,74,1,graaf,images/br_graaf.png,images/cb_graaf.png,0,,,,,,,,,,,,,,,,,,,,,,
,,,,,00025,2023-09-05_12h34.30.316,vbt_B2_day3,2022.2.4,MacIntel,60.0024001,,,,,,down,0,7.3227,,0.023667535,-0.145915799,1,0,0,0,136,136,121,1,twijfel,images/br_twijfel.png,images/cb_twijfel.png,0,,,,,,,,,,,,,,,,,,,,,,
,,,,,00025,2023-09-05_12h34.30.316,vbt_B2_day3,2022.2.4,MacIntel,60.0024001,,,,,,down,0,0.3524,,0.023667535,-0.145915799,1,0,0,0,137,137,97,1,loyaal,images/br_loyaal.png,images/cb_loyaal.png,0,,,,,,,,,,,,,,,,,,,,,,
,,,,,00025,2023-09-05_12h34.30.316,vbt_B2_day3,2022.2.4,MacIntel,60.0024001,,,,,,down,0,0.274,,0.023667535,-0.145915799,1,0,0,0,138,138,173,1,apparaat,images/br_apparaat.png,images/cb_apparaat.png,0,,,,,,,,,,,,,,,,,,,,,,
,,,,,00025,2023-09-05_12h34.30.316,vbt_B2_day3,2022.2.4,MacIntel,60.0024001,,,,,,down,0,0.5699,,0.023667535,-0.145915799,1,0,0,0,139,139,119,1,liefje,images/br_liefje.png,images/cb_liefje.png,0,,,,,,,,,,,,,,,,,,,,,,
,,,,,00025,2023-09-05_12h34.30.316,vbt_B2_day3,2022.2.4,MacIntel,60.0024001,,,,,,down,0,0.0498,,0.023667535,-0.145915799,1,0,0,0,140,140,70,1,ijdel,images/br_ijdel.png,images/cb_ijdel.png,0,,,,,,,,,,,,,,,,,,,,,,
,,,,,00025,2023-09-05_12h34.30.316,vbt_B2_day3,2022.2.4,MacIntel,60.0024001,,,,,,down,0,1.0004,,0.023667535,-0.145915799,1,0,0,0,141,141,171,1,aarzelen,images/br_aarzelen.png,images/cb_aarzelen.png,0,,,,,,,,,,,,,,,,,,,,,,
,,,,,00025,2023-09-05_12h34.30.316,vbt_B2_day3,2022.2.4,MacIntel,60.0024001,,,,,,down,0,1.5432,,0.023667535,-0.145915799,1,0,0,0,142,142,153,1,vervoer,images/br_vervoer.png,images/cb_vervoer.png,0,,,,,,,,,,,,,,,,,,,,,,
,,,,,00025,2023-09-05_12h34.30.316,vbt_B2_day3,2022.2.4,MacIntel,60.0024001,,,,,,down,0,7.0779,,0.023667535,-0.145915799,1,0,0,0,143,143,180,1,openbaar,images/br_openbaar.png,images/cb_openbaar.png,1,openbaar,,,,,,,,,,,,,,,,,,,,,
,,,,,00025,2023-09-05_12h34.30.316,vbt_B2_day3,2022.2.4,MacIntel,60.0024001,,,,,,down,0,6.8271,,0.023667535,-0.145915799,1,0,0,0,144,144,7,1,geld,images/br_geld.png,images/cb_geld.png,0,,,,,,,,,,,,,,,,,,,,,,
,,,,,00025,2023-09-05_12h34.30.316,vbt_B2_day3,2022.2.4,MacIntel,60.0024001,,,,,,down,0,5.6572,,0.023667535,-0.145915799,1,0,0,0,145,145,149,1,redding,images/br_redding.png,images/cb_redding.png,0,,,,,,,,,,,,,,,,,,,,,,
,,,,,00025,2023-09-05_12h34.30.316,vbt_B2_day3,2022.2.4,MacIntel,60.0024001,,,,,,down,0,0.1037,,0.023667535,-0.145915799,1,0,0,0,146,146,114,1,vullen,images/br_vullen.png,images/cb_vullen.png,0,,,,,,,,,,,,,,,,,,,,,,
,,,,,00025,2023-09-05_12h34.30.316,vbt_B2_day3,2022.2.4,MacIntel,60.0024001,,,,,,down,0,0.9171,,0.023667535,-0.145659722,1,0,0,0,147,147,64,1,wegen,images/br_wegen.png,images/cb_wegen.png,0,,,,,,,,,,,,,,,,,,,,,,
,,,,,00025,2023-09-05_12h34.30.316,vbt_B2_day3,2022.2.4,MacIntel,60.0024001,,,,,,down,0,1.9411,,0.023667535,-0.145659722,1,0,0,0,148,148,133,1,seizoen,images/br_seizoen.png,images/cb_seizoen.png,0,,,,,,,,,,,,,,,,,,,,,,
,,,,,00025,2023-09-05_12h34.30.316,vbt_B2_day3,2022.2.4,MacIntel,60.0024001,,,,,,down,0,0.5028,,0.023667535,-0.145659722,1,0,0,0,149,149,117,1,kennis,images/br_kennis.png,images/cb_kennis.png,0,,,,,,,,,,,,,,,,,,,,,,
,,,,,00025,2023-09-05_12h34.30.316,vbt_B2_day3,2022.2.4,MacIntel,60.0024001,,,,,,down,0,2.6338,,0.023667535,-0.145659722,1,0,0,0,150,150,58,1,tekst,images/br_tekst.png,images/cb_tekst.png,0,,,,,,,,,,,,,,,,,,,,,,
,,,,,00025,2023-09-05_12h34.30.316,vbt_B2_day3,2022.2.4,MacIntel,60.0024001,,,,,,down,0,5.9458,,0.023667535,-0.145659722,1,0,0,0,151,151,129,1,verhaal,images/br_verhaal.png,images/cb_verhaal.png,0,,,,,,,,,,,,,,,,,,,,,,
,,,,,00025,2023-09-05_12h34.30.316,vbt_B2_day3,2022.2.4,MacIntel,60.0024001,,,,,,down,0,0.2043,,0.023667535,-0.145659722,1,0,0,0,152,152,111,1,ticket,images/br_ticket.png,images/cb_ticket.png,0,,,,,,,,,,,,,,,,,,,,,,
,,,,,00025,2023-09-05_12h34.30.316,vbt_B2_day3,2022.2.4,MacIntel,60.0024001,,,,,,down,0,8.0884,,0.023667535,-0.145659722,1,0,0,0,153,153,106,1,zingen,images/br_zingen.png,images/cb_zingen.png,0,,,,,,,,,,,,,,,,,,,,,,
,,,,,00025,2023-09-05_12h34.30.316,vbt_B2_day3,2022.2.4,MacIntel,60.0024001,,,,,,down,0,5.3559,,0.023667535,-0.145659722,1,0,0,0,154,154,17,1,taal,images/br_taal.png,images/cb_taal.png,0,,,,,,,,,,,,,,,,,,,,,,
,,,,,00025,2023-09-05_12h34.30.316,vbt_B2_day3,2022.2.4,MacIntel,60.0024001,,,,,,down,0,0.5647,,0.023667535,-0.145659722,1,0,0,0,155,155,80,1,kanjer,images/br_kanjer.png,images/cb_kanjer.png,0,,,,,,,,,,,,,,,,,,,,,,
,,,,,00025,2023-09-05_12h34.30.316,vbt_B2_day3,2022.2.4,MacIntel,60.0024001,,,,,,down,0,0.2349,,0.023667535,-0.145659722,1,0,0,0,156,156,91,1,gezond,images/br_gezond.png,images/cb_gezond.png,0,,,,,,,,,,,,,,,,,,,,,,
,,,,,00025,2023-09-05_12h34.30.316,vbt_B2_day3,2022.2.4,MacIntel,60.0024001,,,,,,down,0,0.3871,,0.023667535,-0.145659722,1,0,0,0,157,157,85,1,heilig,images/br_heilig.png,images/cb_heilig.png,0,,,,,,,,,,,,,,,,,,,,,,
,,,,,00025,2023-09-05_12h34.30.316,vbt_B2_day3,2022.2.4,MacIntel,60.0024001,,,,,,down,0,1.0668,,0.023667535,-0.145659722,1,0,0,0,158,158,89,1,slapen,images/br_slapen.png,images/cb_slapen.png,0,,,,,,,,,,,,,,,,,,,,,,
,,,,,00025,2023-09-05_12h34.30.316,vbt_B2_day3,2022.2.4,MacIntel,60.0024001,,,,,,down,0,0.2338,,0.023667535,-0.145659722,1,0,0,0,159,159,137,1,trekker,images/br_trekker.png,images/cb_trekker.png,0,,,,,,,,,,,,,,,,,,,,,,
,,,,,00025,2023-09-05_12h34.30.316,vbt_B2_day3,2022.2.4,MacIntel,60.0024001,,,,,,down,0,0.5373,,0.023667535,-0.145659722,1,0,0,0,160,160,0,1,slak,images/br_slak.png,images/cb_slak.png,0,,,,,,,,,,,,,,,,,,,,,,
,,,,,00025,2023-09-05_12h34.30.316,vbt_B2_day3,2022.2.4,MacIntel,60.0024001,,,,,,down,0,14.1757,,0.023667535,-0.145659722,1,0,0,0,161,161,198,1,bedoelen,images/br_bedoelen.png,images/cb_bedoelen.png,0,,,,,,,,,,,,,,,,,,,,,,
,,,,,00025,2023-09-05_12h34.30.316,vbt_B2_day3,2022.2.4,MacIntel,60.0024001,,,,,,down,0,4.3846,,0.023667535,-0.145659722,1,0,0,0,162,162,168,1,bisschop,images/br_bisschop.png,images/cb_bisschop.png,0,,,,,,,,,,,,,,,,,,,,,,
,,,,,00025,2023-09-05_12h34.30.316,vbt_B2_day3,2022.2.4,MacIntel,60.0024001,,,,,,down,0,2.0935,,0.023667535,-0.145659722,1,0,0,0,163,163,73,1,volop,images/br_volop.png,images/cb_volop.png,0,,,,,,,,,,,,,,,,,,,,,,
,,,,,00025,2023-09-05_12h34.30.316,vbt_B2_day3,2022.2.4,MacIntel,60.0024001,,,,,,down,0,0.4365,,0.023667535,-0.145659722,1,0,0,0,164,164,131,1,opzicht,images/br_opzicht.png,images/cb_opzicht.png,0,,,,,,,,,,,,,,,,,,,,,,
,,,,,00025,2023-09-05_12h34.30.316,vbt_B2_day3,2022.2.4,MacIntel,60.0024001,,,,,,down,0,1.4363,,0.023667535,-0.145659722,1,0,0,0,165,165,27,1,dans,images/br_dans.png,images/cb_dans.png,0,,,,,,,,,,,,,,,,,,,,,,
,,,,,00025,2023-09-05_12h34.30.316,vbt_B2_day3,2022.2.4,MacIntel,60.0024001,,,,,,down,0,1.077,,0.023667535,-0.145659722,1,0,0,0,166,166,79,1,nodig,images/br_nodig.png,images/cb_nodig.png,0,,,,,,,,,,,,,,,,,,,,,,
,,,,,00025,2023-09-05_12h34.30.316,vbt_B2_day3,2022.2.4,MacIntel,60.0024001,,,,,,down,0,5.728,,0.023667535,-0.145659722,1,0,0,0,167,167,183,1,getuigen,images/br_getuigen.png,images/cb_getuigen.png,1,getuigen,,,,,,,,,,,,,,,,,,,,,
,,,,,00025,2023-09-05_12h34.30.316,vbt_B2_day3,2022.2.4,MacIntel,60.0024001,,,,,,down,0,0.3178,,0.023667535,-0.145659722,1,0,0,0,168,168,12,1,kust,images/br_kust.png,images/cb_kust.png,0,,,,,,,,,,,,,,,,,,,,,,
,,,,,00025,2023-09-05_12h34.30.316,vbt_B2_day3,2022.2.4,MacIntel,60.0024001,,,,,,down,0,1.2845,,0.023667535,-0.145403646,1,0,0,0,169,169,184,1,aandelen,images/br_aandelen.png,images/cb_aandelen.png,0,,,,,,,,,,,,,,,,,,,,,,
,,,,,00025,2023-09-05_12h34.30.316,vbt_B2_day3,2022.2.4,MacIntel,60.0024001,,,,,,down,0,2.5659,,0.023667535,-0.145403646,1,0,0,0,170,170,181,1,toegeven,images/br_toegeven.png,images/cb_toegeven.png,1,toegeven,,,,,,,,,,,,,,,,,,,,,
,,,,,00025,2023-09-05_12h34.30.316,vbt_B2_day3,2022.2.4,MacIntel,60.0024001,,,,,,down,0,0.4093,,0.023667535,-0.145403646,1,0,0,0,171,171,8,1,knie,images/br_knie.png,images/cb_knie.png,0,,,,,,,,,,,,,,,,,,,,,,
,,,,,00025,2023-09-05_12h34.30.316,vbt_B2_day3,2022.2.4,MacIntel,60.0024001,,,,,,down,0,6.6098,,0.023667535,-0.145403646,1,0,0,0,172,172,178,1,huisdier,images/br_huisdier.png,images/cb_huisdier.png,0,,,,,,,,,,,,,,,,,,,,,,
,,,,,00025,2023-09-05_12h34.30.316,vbt_B2_day3,2022.2.4,MacIntel,60.0024001,,,,,,down,0,1.335,,0.023667535,-0.145403646,1,0,0,0,173,173,16,1,ziek,images/br_ziek.png,images/cb_ziek.png,0,,,,,,,,,,,,,,,,,,,,,,
,,,,,00025,2023-09-05_12h34.30.316,vbt_B2_day3,2022.2.4,MacIntel,60.0024001,,,,,,down,0,1.7996,,0.023667535,-0.145403646,1,0,0,0,174,174,170,1,schatten,images/br_schatten.png,images/cb_schatten.png,0,,,,,,,,,,,,,,,,,,,,,,
,,,,,00025,2023-09-05_12h34.30.316,vbt_B2_day3,2022.2.4,MacIntel,60.0024001,,,,,,down,0,29.1377,,0.023667535,-0.145403646,1,0,0,0,175,175,162,1,uitdelen,images/br_uitdelen.png,images/cb_uitdelen.png,0,,,,,,,,,,,,,,,,,,,,,,
,,,,,00025,2023-09-05_12h34.30.316,vbt_B2_day3,2022.2.4,MacIntel,60.0024001,,,,,,down,0,3.7066,,0.023667535,-0.145403646,1,0,0,0,176,176,45,1,piste,images/br_piste.png,images/cb_piste.png,0,,,,,,,,,,,,,,,,,,,,,,
,,,,,00025,2023-09-05_12h34.30.316,vbt_B2_day3,2022.2.4,MacIntel,60.0024001,,,,,,down,0,0.7029,,0.023667535,-0.145403646,1,0,0,0,177,177,30,1,uien,images/br_uien.png,images/cb_uien.png,0,,,,,,,,,,,,,,,,,,,,,,
,,,,,00025,2023-09-05_12h34.30.316,vbt_B2_day3,2022.2.4,MacIntel,60.0024001,,,,,,down,0,2.7417,,0.023667535,-0.145403646,1,0,0,0,178,178,144,1,eetlust,images/br_eetlust.png,images/cb_eetlust.png,0,,,,,,,,,,,,,,,,,,,,,,
,,,,,00025,2023-09-05_12h34.30.316,vbt_B2_day3,2022.2.4,MacIntel,60.0024001,,,,,,down,0,4.4611,,0.023667535,-0.145403646,1,0,0,0,179,179,199,1,beseffen,images/br_beseffen.png,images/cb_beseffen.png,0,,,,,,,,,,,,,,,,,,,,,,
,,,,,00025,2023-09-05_12h34.30.316,vbt_B2_day3,2022.2.4,MacIntel,60.0024001,,,,,,down,0,7.873,,0.023667535,-0.145403646,1,0,0,0,180,180,69,1,waken,images/br_waken.png,images/cb_waken.png,0,,,,,,,,,,,,,,,,,,,,,,
,,,,,00025,2023-09-05_12h34.30.316,vbt_B2_day3,2022.2.4,MacIntel,60.0024001,,,,,,down,0,0.7686,,0.023667535,-0.145403646,1,0,0,0,181,181,49,1,laken,images/br_laken.png,images/cb_laken.png,0,,,,,,,,,,,,,,,,,,,,,,
,,,,,00025,2023-09-05_12h34.30.316,vbt_B2_day3,2022.2.4,MacIntel,60.0024001,,,,,,down,0,11.5708,,-0.051163194,-0.312630208,1,0,0,0,182,182,182,1,bijkomen,images/br_bijkomen.png,images/cb_bijkomen.png,1,bijkomen,,,,,,,,,,,,,,,,,,,,,
,,,,,00025,2023-09-05_12h34.30.316,vbt_B2_day3,2022.2.4,MacIntel,60.0024001,,,,,,down,0,1.4568,,-0.051163194,-0.312630208,1,0,0,0,183,183,101,1,staren,images/br_staren.png,images/cb_staren.png,1,staren,,,,,,,,,,,,,,,,,,,,,
,,,,,00025,2023-09-05_12h34.30.316,vbt_B2_day3,2022.2.4,MacIntel,60.0024001,,,,,,down,0,0.7501,,-0.051163194,-0.312630208,1,0,0,0,184,184,197,1,spanning,images/br_spanning.png,images/cb_spanning.png,0,,,,,,,,,,,,,,,,,,,,,,
,,,,,00025,2023-09-05_12h34.30.316,vbt_B2_day3,2022.2.4,MacIntel,60.0024001,,,,,,down,0,1.4167,,-0.057673611,-0.312630208,1,0,0,0,185,185,40,1,schep,images/br_schep.png,images/cb_schep.png,0,,,,,,,,,,,,,,,,,,,,,,
,,,,,00025,2023-09-05_12h34.30.316,vbt_B2_day3,2022.2.4,MacIntel,60.0024001,,,,,,down,0,4.3365,,-0.057673611,-0.312630208,1,0,0,0,186,186,81,1,dubbel,images/br_dubbel.png,images/cb_dubbel.png,0,,,,,,,,,,,,,,,,,,,,,,
,,,,,00025,2023-09-05_12h34.30.316,vbt_B2_day3,2022.2.4,MacIntel,60.0024001,,,,,,down,0,0.245,,-0.057673611,-0.312630208,1,0,0,0,187,187,90,1,geluid,images/br_geluid.png,images/cb_geluid.png,0,,,,,,,,,,,,,,,,,,,,,,
,,,,,00025,2023-09-05_12h34.30.316,vbt_B2_day3,2022.2.4,MacIntel,60.0024001,,,,,,down,0,1.6332,,-0.057673611,-0.312630208,1,0,0,0,188,188,62,1,knaap,images/br_knaap.png,images/cb_knaap.png,1,knaap,,,,,,,,,,,,,,,,,,,,,
,,,,,00025,2023-09-05_12h34.30.316,vbt_B2_day3,2022.2.4,MacIntel,60.0024001,,,,,,down,0,0.3349,,-0.057673611,-0.312630208,1,0,0,0,189,189,99,1,koffie,images/br_koffie.png,images/cb_koffie.png,0,,,,,,,,,,,,,,,,,,,,,,
,,,,,00025,2023-09-05_12h34.30.316,vbt_B2_day3,2022.2.4,MacIntel,60.0024001,,,,,,down,0,6.3381,,-0.006818576,-0.33734375,1,0,0,0,190,190,23,1,zout,images/br_zout.png,images/cb_zout.png,1,zoet,,,,,,,,,,,,,,,,,,,,,
,,,,,00025,2023-09-05_12h34.30.316,vbt_B2_day3,2022.2.4,MacIntel,60.0024001,,,,,,down,0,33.7169,,-0.006818576,-0.33734375,1,0,0,0,191,191,191,1,opheffen,images/br_opheffen.png,images/cb_opheffen.png,0,,,,,,,,,,,,,,,,,,,,,,
,,,,,00025,2023-09-05_12h34.30.316,vbt_B2_day3,2022.2.4,MacIntel,60.0024001,,,,,,down,0,1.2186,,-0.006818576,-0.33734375,1,0,0,0,192,192,174,1,stemming,images/br_stemming.png,images/cb_stemming.png,0,,,,,,,,,,,,,,,,,,,,,,
,,,,,00025,2023-09-05_12h34.30.316,vbt_B2_day3,2022.2.4,MacIntel,60.0024001,,,,,,down,0,0.2218,,-0.006818576,-0.33734375,1,0,0,0,193,193,50,1,stoom,images/br_stoom.png,images/cb_stoom.png,0,,,,,,,,,,,,,,,,,,,,,,
,,,,,00025,2023-09-05_12h34.30.316,vbt_B2_day3,2022.2.4,MacIntel,60.0024001,,,,,,down,0,1.4944,,-0.006818576,-0.33734375,1,0,0,0,194,194,43,1,klauw,images/br_klauw.png,images/cb_klauw.png,0,,,,,,,,,,,,,,,,,,,,,,
,,,,,00025,2023-09-05_12h34.30.316,vbt_B2_day3,2022.2.4,MacIntel,60.0024001,,,,,,down,0,7.6539,,-0.006818576,-0.33734375,1,0,0,0,195,195,167,1,eenhoorn,images/br_eenhoorn.png,images/cb_eenhoorn.png,0,,,,,,,,,,,,,,,,,,,,,,
,,,,,00025,2023-09-05_12h34.30.316,vbt_B2_day3,2022.2.4,MacIntel,60.0024001,,,,,,down,0,0.4039,,-0.006818576,-0.33734375,1,0,0,0,196,196,13,1,kaal,images/br_kaal.png,images/cb_kaal.png,0,,,,,,,,,,,,,,,,,,,,,,
,,,,,00025,2023-09-05_12h34.30.316,vbt_B2_day3,2022.2.4,MacIntel,60.0024001,,,,,,down,0,0.7209,,-0.006818576,-0.33734375,1,0,0,0,197,197,151,1,aanzoek,images/br_aanzoek.png,images/cb_aanzoek.png,0,,,,,,,,,,,,,,,,,,,,,,
,,,,,00025,2023-09-05_12h34.30.316,vbt_B2_day3,2022.2.4,MacIntel,60.0024001,,,,,,down,0,0.6658,,-0.006818576,-0.33734375,1,0,0,0,198,198,72,1,strak,images/br_strak.png,images/cb_strak.png,0,,,,,,,,,,,,,,,,,,,,,,
,,,,,00025,2023-09-05_12h34.30.316,vbt_B2_day3,2022.2.4,MacIntel,60.0024001,,,,,,down,0,0.136,,-0.006818576,-0.33734375,1,0,0,0,199,199,28,1,stal,images/br_stal.png,images/cb_stal.png,0,,,,,,,,,,,,,,,,,,,,,,
,,,,,00025,2023-09-05_12h34.30.316,vbt_B2_day3,2022.2.4,MacIntel,60.0024001,,,,,,,,,,,,,,,,,,,,,,,,,-0.006818576,-0.33734375,1,0,0,,,,,,,,,,,,,,,,
,,,,,00025,2023-09-05_12h34.30.316,vbt_B2_day3,2022.2.4,MacIntel,60.0024001,,,,,,,,,,,,,,,,,,,,,,,,,,,,,,-0.006818576,-0.33734375,1,0,0,,,,,,,,,,,
,,,,,00025,2023-09-05_12h34.30.316,vbt_B2_day3,2022.2.4,MacIntel,60.0024001,,,,,,,,,,,,,,,,,,,,jongelui,images/br_jongelui.png,images/cb_jongelui.png,,.ongelu.,,,,,,,,,,,0.193385417,-0.052009549,1,0,0,.ongelu.,0,0,0,59,1
,,,,,00025,2023-09-05_12h34.30.316,vbt_B2_day3,2022.2.4,MacIntel,60.0024001,,,,,,,,,,,,,,,,,,,,stoom,images/br_stoom.png,images/cb_stoom.png,,stoom,,,,,,,,,,,0.064405382,-0.0159375,1,0,0,stoom,0,1,1,6,1
,,,,,00025,2023-09-05_12h34.30.316,vbt_B2_day3,2022.2.4,MacIntel,60.0024001,,,,,,,,,,,,,,,,,,,,aarzelen,images/br_aarzelen.png,images/cb_aarzelen.png,,aarzelen,,,,,,,,,,,0.066705729,-0.013693576,1,0,0,aarzelen,0,2,2,19,1
,,,,,00025,2023-09-05_12h34.30.316,vbt_B2_day3,2022.2.4,MacIntel,60.0024001,,,,,,,,,,,,,,,,,,,,afbopen,images/br_afbopen.png,images/cb_afbopen.png,,a.bopen,,,,,,,,,,,0.075243056,-0.023159722,1,0,0,a.bopen,0,3,3,34,1
,,,,,00025,2023-09-05_12h34.30.316,vbt_B2_day3,2022.2.4,MacIntel,60.0024001,,,,,,,,,,,,,,,,,,,,croo,images/br_croo.png,images/cb_croo.png,,croo,,,,,,,,,,,0.112317708,-0.015585938,1,0,0,croo,0,4,4,22,1
,,,,,00025,2023-09-05_12h34.30.316,vbt_B2_day3,2022.2.4,MacIntel,60.0024001,,,,,,,,,,,,,,,,,,,,knie,images/br_knie.png,images/cb_knie.png,,knie,,,,,,,,,,,0.154253472,-0.001514757,1,0,0,knie,0,5,5,0,1
,,,,,00025,2023-09-05_12h34.30.316,vbt_B2_day3,2022.2.4,MacIntel,60.0024001,,,,,,,,,,,,,,,,,,,,begrip,images/br_begrip.png,images/cb_begrip.png,,begrip,,,,,,,,,,,0.163424479,0.000546875,1,0,0,begrip,0,6,6,48,1
,,,,,00025,2023-09-05_12h34.30.316,vbt_B2_day3,2022.2.4,MacIntel,60.0024001,,,,,,,,,,,,,,,,,,,,kest,images/br_kest.png,images/cb_kest.png,,kest,,,,,,,,,,,0.09719184,-0.032795139,1,0,0,kest,0,7,7,21,1
,,,,,00025,2023-09-05_12h34.30.316,vbt_B2_day3,2022.2.4,MacIntel,60.0024001,,,,,,,,,,,,,,,,,,,,kaas,images/br_kaas.png,images/cb_kaas.png,,kaas,,,,,,,,,,,0.011371528,-0.021827257,1,0,0,kaas,0,8,8,42,1
,,,,,00025,2023-09-05_12h34.30.316,vbt_B2_day3,2022.2.4,MacIntel,60.0024001,,,,,,,,,,,,,,,,,,,,booien,images/br_booien.png,images/cb_booien.png,,booien,,,,,,,,,,,0.122556424,-0.040707465,1,0,0,booien,0,9,9,31,1
,,,,,00025,2023-09-05_12h34.30.316,vbt_B2_day3,2022.2.4,MacIntel,60.0024001,,,,,,,,,,,,,,,,,,,,hust,images/br_hust.png,images/cb_hust.png,,.ust,,,,,,,,,,,0.133046875,-0.039014757,1,0,0,.ust,0,10,10,23,1
,,,,,00025,2023-09-05_12h34.30.316,vbt_B2_day3,2022.2.4,MacIntel,60.0024001,,,,,,,,,,,,,,,,,,,,uniek,images/br_uniek.png,images/cb_uniek.png,,uniek,,,,,,,,,,,0.149800347,-0.045069444,1,0,0,uniek,0,11,11,46,1
,,,,,00025,2023-09-05_12h34.30.316,vbt_B2_day3,2022.2.4,MacIntel,60.0024001,,,,,,,,,,,,,,,,,,,,leek,images/br_leek.png,images/cb_leek.png,,leek,,,,,,,,,,,0.059331597,-0.017799479,1,0,0,leek,0,12,12,2,1
,,,,,00025,2023-09-05_12h34.30.316,vbt_B2_day3,2022.2.4,MacIntel,60.0024001,,,,,,,,,,,,,,,,,,,,slapen,images/br_slapen.png,images/cb_slapen.png,,slapen,,,,,,,,,,,0.116445312,-0.031458333,1,0,0,slapen,0,13,13,9,1
,,,,,00025,2023-09-05_12h34.30.316,vbt_B2_day3,2022.2.4,MacIntel,60.0024001,,,,,,,,,,,,,,,,,,,,hint,images/br_hint.png,images/cb_hint.png,,hint,,,,,,,,,,,0.121545139,-0.028111979,1,0,0,hint,0,14,14,43,1
,,,,,00025,2023-09-05_12h34.30.316,vbt_B2_day3,2022.2.4,MacIntel,60.0024001,,,,,,,,,,,,,,,,,,,,bisschop,images/br_bisschop.png,images/cb_bisschop.png,,bisschop,,,,,,,,,,,0.212196181,-0.038016493,1,0,0,bisschop,0,15,15,16,1
,,,,,00025,2023-09-05_12h34.30.316,vbt_B2_day3,2022.2.4,MacIntel,60.0024001,,,,,,,,,,,,,,,,,,,,keihard,images/br_keihard.png,images/cb_keihard.png,,keihard,,,,,,,,,,,0.078676215,-0.025221354,1,0,0,keihard,0,16,16,14,1
,,,,,00025,2023-09-05_12h34.30.316,vbt_B2_day3,2022.2.4,MacIntel,60.0024001,,,,,,,,,,,,,,,,,,,,vlager,images/br_vlager.png,images/cb_vlager.png,,vlager,,,,,,,,,,,0.151041667,-0.023246528,1,0,0,vlager,0,17,17,28,1
,,,,,00025,2023-09-05_12h34.30.316,vbt_B2_day3,2022.2.4,MacIntel,60.0024001,,,,,,,,,,,,,,,,,,,,opzetten,images/br_opzetten.png,images/cb_opzetten.png,,opzetten,,,,,,,,,,,0.181467014,-0.044570313,1,0,0,opzetten,0,18,18,56,1
,,,,,00025,2023-09-05_12h34.30.316,vbt_B2_day3,2022.2.4,MacIntel,60.0024001,,,,,,,,,,,,,,,,,,,,schatten,images/br_schatten.png,images/cb_schatten.png,,schatten,,,,,,,,,,,0.131015625,-0.030273438,1,0,0,schatten,0,19,19,18,1
,,,,,00025,2023-09-05_12h34.30.316,vbt_B2_day3,2022.2.4,MacIntel,60.0024001,,,,,,,,,,,,,,,,,,,,twaaf,images/br_twaaf.png,images/cb_twaaf.png,,twaa.,,,,,,,,,,,0.116601563,-0.003480903,1,0,0,twaa.,0,20,20,24,1
,,,,,00025,2023-09-05_12h34.30.316,vbt_B2_day3,2022.2.4,MacIntel,60.0024001,,,,,,,,,,,,,,,,,,,,gebod,images/br_gebod.png,images/cb_gebod.png,,gebod,,,,,,,,,,,0.211909722,-0.020425347,1,0,0,gebod,0,21,21,45,1
,,,,,00025,2023-09-05_12h34.30.316,vbt_B2_day3,2022.2.4,MacIntel,60.0024001,,,,,,,,,,,,,,,,,,,,sultan,images/br_sultan.png,images/cb_sultan.png,,sultan,,,,,,,,,,,0.119253472,-0.039084201,1,0,0,sultan,0,22,22,49,1
,,,,,00025,2023-09-05_12h34.30.316,vbt_B2_day3,2022.2.4,MacIntel,60.0024001,,,,,,,,,,,,,,,,,,,,theeting,images/br_theeting.png,images/cb_theeting.png,,t.oot,,,,,,,,,,,-0.035998264,-0.013376736,1,0,0,t.oot,0,23,23,38,1
,,,,,00025,2023-09-05_12h34.30.316,vbt_B2_day3,2022.2.4,MacIntel,60.0024001,,,,,,,,,,,,,,,,,,,,oprotten,images/br_oprotten.png,images/cb_oprotten.png,,oprotten,,,,,,,,,,,0.135763889,-0.035091146,1,0,0,oprotten,0,24,24,17,1
,,,,,00025,2023-09-05_12h34.30.316,vbt_B2_day3,2022.2.4,MacIntel,60.0024001,,,,,,,,,,,,,,,,,,,,geluid,images/br_geluid.png,images/cb_geluid.png,,gelu..,,,,,,,,,,,0.085234375,-0.031006944,1,0,0,gelu..,0,25,25,10,1
,,,,,00025,2023-09-05_12h34.30.316,vbt_B2_day3,2022.2.4,MacIntel,60.0024001,,,,,,,,,,,,,,,,,,,,verraden,images/br_verraden.png,images/cb_verraden.png,,verraden,,,,,,,,,,,0.112573785,-0.008919271,1,0,0,verraden,0,26,26,58,1
,,,,,00025,2023-09-05_12h34.30.316,vbt_B2_day3,2022.2.4,MacIntel,60.0024001,,,,,,,,,,,,,,,,,,,,eens,images/br_eens.png,images/cb_eens.png,,eens,,,,,,,,,,,0.071623264,-0.022465278,1,0,0,eens,0,27,27,40,1
,,,,,00025,2023-09-05_12h34.30.316,vbt_B2_day3,2022.2.4,MacIntel,60.0024001,,,,,,,,,,,,,,,,,,,,verhaal,images/br_verhaal.png,images/cb_verhaal.png,,verhaal,,,,,,,,,,,0.02999566,-0.020416667,1,0,0,verhaal,0,28,28,13,1
,,,,,00025,2023-09-05_12h34.30.316,vbt_B2_day3,2022.2.4,MacIntel,60.0024001,,,,,,,,,,,,,,,,,,,,dwang,images/br_dwang.png,images/cb_dwang.png,,dwang,,,,,,,,,,,0.019609375,-0.118888889,1,0,0,dwang,0,29,29,47,1
,,,,,00025,2023-09-05_12h34.30.316,vbt_B2_day3,2022.2.4,MacIntel,60.0024001,,,,,,,,,,,,,,,,,,,,hier,images/br_hier.png,images/cb_hier.png,,dier,,,,,,,,,,,0.067300347,-0.009301215,1,0,0,dier,0,30,30,1,1
,,,,,00025,2023-09-05_12h34.30.316,vbt_B2_day3,2022.2.4,MacIntel,60.0024001,,,,,,,,,,,,,,,,,,,,bevret,images/br_bevret.png,images/cb_bevret.png,,bevret,,,,,,,,,,,0.120842014,-0.0128125,1,0,0,bevret,0,31,31,30,1
,,,,,00025,2023-09-05_12h34.30.316,vbt_B2_day3,2022.2.4,MacIntel,60.0024001,,,,,,,,,,,,,,,,,,,,laken,images/br_laken.png,images/cb_laken.png,,laken,,,,,,,,,,,0.0975,-0.000959201,1,0,0,laken,0,32,32,5,1
,,,,,00025,2023-09-05_12h34.30.316,vbt_B2_day3,2022.2.4,MacIntel,60.0024001,,,,,,,,,,,,,,,,,,,,stikken,images/br_stikken.png,images/cb_stikken.png,,stikken,,,,,,,,,,,0.105477431,-0.025737847,1,0,0,stikken,0,33,33,54,1
,,,,,00025,2023-09-05_12h34.30.316,vbt_B2_day3,2022.2.4,MacIntel,60.0024001,,,,,,,,,,,,,,,,,,,,glijden,images/br_glijden.png,images/cb_glijden.png,,gli..en,,,,,,,,,,,0.1446875,0.001323785,1,0,0,gli..en,0,34,34,53,1
,,,,,00025,2023-09-05_12h34.30.316,vbt_B2_day3,2022.2.4,MacIntel,60.0024001,,,,,,,,,,,,,,,,,,,,schodel,images/br_schodel.png,images/cb_schodel.png,,schodel,,,,,,,,,,,0.063893229,0.030659722,1,0,0,schodel,0,35,35,33,1
,,,,,00025,2023-09-05_12h34.30.316,vbt_B2_day3,2022.2.4,MacIntel,60.0024001,,,,,,,,,,,,,,,,,,,,invallen,images/br_invallen.png,images/cb_invallen.png,,invallen,,,,,,,,,,,0.011931424,-0.025095486,1,0,0,invallen,0,36,36,57,1
,,,,,00025,2023-09-05_12h34.30.316,vbt_B2_day3,2022.2.4,MacIntel,60.0024001,,,,,,,,,,,,,,,,,,,,alsof,images/br_alsof.png,images/cb_alsof.png,,alsof,,,,,,,,,,,-0.036944444,-0.036623264,1,0,0,alsof,0,37,37,44,1
,,,,,00025,2023-09-05_12h34.30.316,vbt_B2_day3,2022.2.4,MacIntel,60.0024001,,,,,,,,,,,,,,,,,,,,beslag,images/br_beslag.png,images/cb_beslag.png,,beslag,,,,,,,,,,,0.138632813,-0.013680556,1,0,0,beslag,0,38,38,51,1
,,,,,00025,2023-09-05_12h34.30.316,vbt_B2_day3,2022.2.4,MacIntel,60.0024001,,,,,,,,,,,,,,,,,,,,steel,images/br_steel.png,images/cb_steel.png,,steel,,,,,,,,,,,0.128663194,-0.026853299,1,0,0,steel,0,39,39,4,1
,,,,,00025,2023-09-05_12h34.30.316,vbt_B2_day3,2022.2.4,MacIntel,60.0024001,,,,,,,,,,,,,,,,,,,,paken,images/br_paken.png,images/cb_paken.png,,paken,,,,,,,,,,,0.065147569,-0.007630208,1,0,0,paken,0,40,40,27,1
,,,,,00025,2023-09-05_12h34.30.316,vbt_B2_day3,2022.2.4,MacIntel,60.0024001,,,,,,,,,,,,,,,,,,,,gezond,images/br_gezond.png,images/cb_gezond.png,,gezond,,,,,,,,,,,0.112491319,-0.019357639,1,0,0,gezond,0,41,41,11,1
,,,,,00025,2023-09-05_12h34.30.316,vbt_B2_day3,2022.2.4,MacIntel,60.0024001,,,,,,,,,,,,,,,,,,,,samen,images/br_samen.png,images/cb_samen.png,,samen,,,,,,,,,,,0.084157986,0.003337674,1,0,0,samen,0,42,42,7,1
,,,,,00025,2023-09-05_12h34.30.316,vbt_B2_day3,2022.2.4,MacIntel,60.0024001,,,,,,,,,,,,,,,,,,,,onrecht,images/br_onrecht.png,images/cb_onrecht.png,,onrecht,,,,,,,,,,,0.084157986,0.003337674,1,0,0,onrecht,0,43,43,55,1
,,,,,00025,2023-09-05_12h34.30.316,vbt_B2_day3,2022.2.4,MacIntel,60.0024001,,,,,,,,,,,,,,,,,,,,leugeren,images/br_leugeren.png,images/cb_leugeren.png,,leuger..,,,,,,,,,,,0.047625868,-0.028546007,1,0,0,leuger..,0,44,44,37,1
,,,,,00025,2023-09-05_12h34.30.316,vbt_B2_day3,2022.2.4,MacIntel,60.0024001,,,,,,,,,,,,,,,,,,,,boeien,images/br_boeien.png,images/cb_boeien.png,,boeien,,,,,,,,,,,0.117643229,-0.014427083,1,0,0,boeien,0,45,45,8,1
,,,,,00025,2023-09-05_12h34.30.316,vbt_B2_day3,2022.2.4,MacIntel,60.0024001,,,,,,,,,,,,,,,,,,,,verwoor,images/br_verwoor.png,images/cb_verwoor.png,,verwoor,,,,,,,,,,,0.162999132,-0.049257812,1,0,0,verwoor,0,46,46,32,1
,,,,,00025,2023-09-05_12h34.30.316,vbt_B2_day3,2022.2.4,MacIntel,60.0024001,,,,,,,,,,,,,,,,,,,,stallen,images/br_stallen.png,images/cb_stallen.png,,stallen,,,,,,,,,,,0.19094184,-0.036831597,1,0,0,stallen,0,47,47,52,1
,,,,,00025,2023-09-05_12h34.30.316,vbt_B2_day3,2022.2.4,MacIntel,60.0024001,,,,,,,,,,,,,,,,,,,,mugeek,images/br_mugeek.png,images/cb_mugeek.png,,mugeek,,,,,,,,,,,0.179474826,-0.017573785,1,0,0,mugeek,0,48,48,29,1
,,,,,00025,2023-09-05_12h34.30.316,vbt_B2_day3,2022.2.4,MacIntel,60.0024001,,,,,,,,,,,,,,,,,,,,mode,images/br_mode.png,images/cb_mode.png,,mode,,,,,,,,,,,0.061480035,0.020164931,1,0,0,mode,0,49,49,3,1
,,,,,00025,2023-09-05_12h34.30.316,vbt_B2_day3,2022.2.4,MacIntel,60.0024001,,,,,,,,,,,,,,,,,,,,zone,images/br_zone.png,images/cb_zone.png,,zone,,,,,,,,,,,0.027013889,-0.014318576,1,0,0,zone,0,50,50,41,1
,,,,,00025,2023-09-05_12h34.30.316,vbt_B2_day3,2022.2.4,MacIntel,60.0024001,,,,,,,,,,,,,,,,,,,,uviek,images/br_uviek.png,images/cb_uviek.png,,uviek,,,,,,,,,,,0.152261285,-0.020646701,1,0,0,uviek,0,51,51,25,1
,,,,,00025,2023-09-05_12h34.30.316,vbt_B2_day3,2022.2.4,MacIntel,60.0024001,,,,,,,,,,,,,,,,,,,,opzicht,images/br_opzicht.png,images/cb_opzicht.png,,opzicht,,,,,,,,,,,0.056280382,0.000590278,1,0,0,opzicht,0,52,52,15,1
,,,,,00025,2023-09-05_12h34.30.316,vbt_B2_day3,2022.2.4,MacIntel,60.0024001,,,,,,,,,,,,,,,,,,,,gout,images/br_gout.png,images/cb_gout.png,,gout,,,,,,,,,,,0.046006944,-0.030438368,1,0,0,gout,0,53,53,20,1
,,,,,00025,2023-09-05_12h34.30.316,vbt_B2_day3,2022.2.4,MacIntel,60.0024001,,,,,,,,,,,,,,,,,,,,brappen,images/br_brappen.png,images/cb_brappen.png,,brappen,,,,,,,,,,,0.113841146,-0.032217882,1,0,0,brappen,0,54,54,35,1
,,,,,00025,2023-09-05_12h34.30.316,vbt_B2_day3,2022.2.4,MacIntel,60.0024001,,,,,,,,,,,,,,,,,,,,leemaken,images/br_leemaken.png,images/cb_leemaken.png,,leemaken,,,,,,,,,,,0.123198785,-0.01015625,1,0,0,leemaken,0,55,55,39,1
,,,,,00025,2023-09-05_12h34.30.316,vbt_B2_day3,2022.2.4,MacIntel,60.0024001,,,,,,,,,,,,,,,,,,,,kwaas,images/br_kwaas.png,images/cb_kwaas.png,,kwaas,,,,,,,,,,,0.126367188,-0.018355035,1,0,0,kwaas,0,56,56,26,1
,,,,,00025,2023-09-05_12h34.30.316,vbt_B2_day3,2022.2.4,MacIntel,60.0024001,,,,,,,,,,,,,,,,,,,,prikken,images/br_prikken.png,images/cb_prikken.png,,prikken,,,,,,,,,,,0.104409722,0.011905382,1,0,0,prikken,0,57,57,12,1
,,,,,00025,2023-09-05_12h34.30.316,vbt_B2_day3,2022.2.4,MacIntel,60.0024001,,,,,,,,,,,,,,,,,,,,sluier,images/br_sluier.png,images/cb_sluier.png,,sluier,,,,,,,,,,,0.130607639,0.011371528,1,0,0,sluier,0,58,58,50,1
,,,,,00025,2023-09-05_12h34.30.316,vbt_B2_day3,2022.2.4,MacIntel,60.0024001,,,,,,,,,,,,,,,,,,,,makieren,images/br_makieren.png,images/cb_makieren.png,,makieren,,,,,,,,,,,0.117395833,-0.041497396,1,0,0,makieren,0,59,59,36,1
,,,,,00025,2023-09-05_12h34.30.316,vbt_B2_day3,2022.2.4,MacIntel,60.0024001,,,,,,,,,,,,,,,,,,,,,,,,,,,,,,,,,,,,,,,,,,,,,
