welcome_mouse.x,welcome_mouse.y,welcome_mouse.leftButton,welcome_mouse.midButton,welcome_mouse.rightButton,"ID",date,expName,psychopyVersion,OS,frameRate,trainInstr_mouse.x,trainInstr_mouse.y,trainInstr_mouse.leftButton,trainInstr_mouse.midButton,trainInstr_mouse.rightButton,translation_key.keys,translation_key.corr,translation_key.rt,word_rsp.text,trWrd_mouse.x,trWrd_mouse.y,trWrd_mouse.leftButton,trWrd_mouse.midButton,trWrd_mouse.rightButton,train_loop.thisRepN,train_loop.thisTrialN,train_loop.thisN,train_loop.thisIndex,train_loop.ran,nlWrd,brWrd,cbWrd,test,testResp,mouse.x,mouse.y,mouse.leftButton,mouse.midButton,mouse.rightButton,testInstr_mouse.x,testInstr_mouse.y,testInstr_mouse.leftButton,testInstr_mouse.midButton,testInstr_mouse.rightButton,test_mouse.x,test_mouse.y,test_mouse.leftButton,test_mouse.midButton,test_mouse.rightButton,test_response.text,test_loop.thisRepN,test_loop.thisTrialN,test_loop.thisN,test_loop.thisIndex,test_loop.ran
-0.102777764,0.057407414,1,0,0,00111,2023-12-08_15h41.55.944,vbt_B2_day3,2022.2.4,Win32,60.15761295,,,,,,,,,,,,,,,,,,,,,,,,,,,,,,,,,,,,,,,,,,,,,
,,,,,00111,2023-12-08_15h41.55.944,vbt_B2_day3,2022.2.4,Win32,60.15761295,-0.102777764,0.057407414,1,0,0,,,,,,,,,,,,,,,,,,,,,,,,,,,,,,,,,,,,,,,,
,,,,,00111,2023-12-08_15h41.55.944,vbt_B2_day3,2022.2.4,Win32,60.15761295,,,,,,down,0,2.7823,,-0.102777764,0.057407414,1,0,0,0,0,0,95,1,vreten,images/br_vreten.png,images/cb_vreten.png,0,,,,,,,,,,,,,,,,,,,,,,
,,,,,00111,2023-12-08_15h41.55.944,vbt_B2_day3,2022.2.4,Win32,60.15761295,,,,,,down,0,2.666099999,,-0.102777764,0.057407414,1,0,0,0,1,1,149,1,redding,images/br_redding.png,images/cb_redding.png,0,,,,,,,,,,,,,,,,,,,,,,
,,,,,00111,2023-12-08_15h41.55.944,vbt_B2_day3,2022.2.4,Win32,60.15761295,,,,,,down,0,3.1198,,-0.102777764,0.057407414,1,0,0,0,2,2,131,1,opzicht,images/br_opzicht.png,images/cb_opzicht.png,0,,,,,,,,,,,,,,,,,,,,,,
,,,,,00111,2023-12-08_15h41.55.944,vbt_B2_day3,2022.2.4,Win32,60.15761295,,,,,,down,0,4.7448,,-0.102777764,0.057407414,1,0,0,0,3,3,198,1,bedoelen,images/br_bedoelen.png,images/cb_bedoelen.png,0,,,,,,,,,,,,,,,,,,,,,,
,,,,,00111,2023-12-08_15h41.55.944,vbt_B2_day3,2022.2.4,Win32,60.15761295,,,,,,down,0,3.3025,,-0.102777764,0.057407414,1,0,0,0,4,4,184,1,aandelen,images/br_aandelen.png,images/cb_aandelen.png,0,,,,,,,,,,,,,,,,,,,,,,
,,,,,00111,2023-12-08_15h41.55.944,vbt_B2_day3,2022.2.4,Win32,60.15761295,,,,,,down,0,2.665099999,,-0.102777764,0.057407414,1,0,0,0,5,5,159,1,sufferd,images/br_sufferd.png,images/cb_sufferd.png,0,,,,,,,,,,,,,,,,,,,,,,
,,,,,00111,2023-12-08_15h41.55.944,vbt_B2_day3,2022.2.4,Win32,60.15761295,,,,,,down,0,0.802400001,,-0.102777764,0.057407414,1,0,0,0,6,6,32,1,palm,images/br_palm.png,images/cb_palm.png,0,,,,,,,,,,,,,,,,,,,,,,
,,,,,00111,2023-12-08_15h41.55.944,vbt_B2_day3,2022.2.4,Win32,60.15761295,,,,,,down,0,2.5165,,-0.102777764,0.057407414,1,0,0,0,7,7,80,1,kanjer,images/br_kanjer.png,images/cb_kanjer.png,0,,,,,,,,,,,,,,,,,,,,,,
,,,,,00111,2023-12-08_15h41.55.944,vbt_B2_day3,2022.2.4,Win32,60.15761295,,,,,,down,0,2.047900001,,-0.102777764,0.057407414,1,0,0,0,8,8,30,1,uien,images/br_uien.png,images/cb_uien.png,0,,,,,,,,,,,,,,,,,,,,,,
,,,,,00111,2023-12-08_15h41.55.944,vbt_B2_day3,2022.2.4,Win32,60.15761295,,,,,,down,0,4.2715,,-0.102777764,0.057407414,1,0,0,0,9,9,142,1,snuiven,images/br_snuiven.png,images/cb_snuiven.png,1,snuiven,,,,,,,,,,,,,,,,,,,,,
,,,,,00111,2023-12-08_15h41.55.944,vbt_B2_day3,2022.2.4,Win32,60.15761295,,,,,,down,0,1.6512,,-0.102777764,0.057407414,1,0,0,0,10,10,21,1,mist,images/br_mist.png,images/cb_mist.png,1,mist,,,,,,,,,,,,,,,,,,,,,
,,,,,00111,2023-12-08_15h41.55.944,vbt_B2_day3,2022.2.4,Win32,60.15761295,,,,,,down,0,0.9999,,-0.102777764,0.057407414,1,0,0,0,11,11,148,1,smullen,images/br_smullen.png,images/cb_smullen.png,0,,,,,,,,,,,,,,,,,,,,,,
,,,,,00111,2023-12-08_15h41.55.944,vbt_B2_day3,2022.2.4,Win32,60.15761295,,,,,,down,0,0.2582,,-0.102777764,0.057407414,1,0,0,0,12,12,59,1,kring,images/br_kring.png,images/cb_kring.png,0,,,,,,,,,,,,,,,,,,,,,,
,,,,,00111,2023-12-08_15h41.55.944,vbt_B2_day3,2022.2.4,Win32,60.15761295,,,,,,down,0,0.8053,,-0.102777764,0.057407414,1,0,0,0,13,13,118,1,vinger,images/br_vinger.png,images/cb_vinger.png,0,,,,,,,,,,,,,,,,,,,,,,
,,,,,00111,2023-12-08_15h41.55.944,vbt_B2_day3,2022.2.4,Win32,60.15761295,,,,,,down,0,3.2967,,-0.102777764,0.057407414,1,0,0,0,14,14,150,1,gegeven,images/br_gegeven.png,images/cb_gegeven.png,0,,,,,,,,,,,,,,,,,,,,,,
,,,,,00111,2023-12-08_15h41.55.944,vbt_B2_day3,2022.2.4,Win32,60.15761295,,,,,,down,0,1.2972,,-0.102777764,0.057407414,1,0,0,0,15,15,166,1,strikken,images/br_strikken.png,images/cb_strikken.png,0,,,,,,,,,,,,,,,,,,,,,,
,,,,,00111,2023-12-08_15h41.55.944,vbt_B2_day3,2022.2.4,Win32,60.15761295,,,,,,down,0,0.843400001,,-0.102777764,0.057407414,1,0,0,0,16,16,33,1,vlek,images/br_vlek.png,images/cb_vlek.png,0,,,,,,,,,,,,,,,,,,,,,,
,,,,,00111,2023-12-08_15h41.55.944,vbt_B2_day3,2022.2.4,Win32,60.15761295,,,,,,down,0,3.5672,,-0.102777764,0.057407414,1,0,0,0,17,17,76,1,afval,images/br_afval.png,images/cb_afval.png,0,,,,,,,,,,,,,,,,,,,,,,
,,,,,00111,2023-12-08_15h41.55.944,vbt_B2_day3,2022.2.4,Win32,60.15761295,,,,,,down,0,1.4015,,0.071296339,-0.124074088,1,0,0,0,18,18,27,1,dans,images/br_dans.png,images/cb_dans.png,0,,,,,,,,,,,,,,,,,,,,,,
,,,,,00111,2023-12-08_15h41.55.944,vbt_B2_day3,2022.2.4,Win32,60.15761295,,,,,,down,0,1.461099999,,0.071296339,-0.124074088,1,0,0,0,19,19,112,1,lukken,images/br_lukken.png,images/cb_lukken.png,0,,,,,,,,,,,,,,,,,,,,,,
,,,,,00111,2023-12-08_15h41.55.944,vbt_B2_day3,2022.2.4,Win32,60.15761295,,,,,,down,0,1.2851,,0.071296339,-0.124074088,1,0,0,0,20,20,86,1,woning,images/br_woning.png,images/cb_woning.png,0,,,,,,,,,,,,,,,,,,,,,,
,,,,,00111,2023-12-08_15h41.55.944,vbt_B2_day3,2022.2.4,Win32,60.15761295,,,,,,down,0,0.6718,,0.071296339,-0.124074088,1,0,0,0,21,21,56,1,traag,images/br_traag.png,images/cb_traag.png,0,,,,,,,,,,,,,,,,,,,,,,
,,,,,00111,2023-12-08_15h41.55.944,vbt_B2_day3,2022.2.4,Win32,60.15761295,,,,,,down,0,1.916,,0.071296339,-0.124074088,1,0,0,0,22,22,62,1,knaap,images/br_knaap.png,images/cb_knaap.png,1,knaap,,,,,,,,,,,,,,,,,,,,,
,,,,,00111,2023-12-08_15h41.55.944,vbt_B2_day3,2022.2.4,Win32,60.15761295,,,,,,down,0,4.1661,,0.071296339,-0.124074088,1,0,0,0,23,23,168,1,bisschop,images/br_bisschop.png,images/cb_bisschop.png,0,,,,,,,,,,,,,,,,,,,,,,
,,,,,00111,2023-12-08_15h41.55.944,vbt_B2_day3,2022.2.4,Win32,60.15761295,,,,,,down,0,2.0514,,0.071296339,-0.124074088,1,0,0,0,24,24,116,1,besmet,images/br_besmet.png,images/cb_besmet.png,0,,,,,,,,,,,,,,,,,,,,,,
,,,,,00111,2023-12-08_15h41.55.944,vbt_B2_day3,2022.2.4,Win32,60.15761295,,,,,,down,0,3.6172,,0.071296339,-0.124074088,1,0,0,0,25,25,136,1,waarbij,images/br_waarbij.png,images/cb_waarbij.png,0,,,,,,,,,,,,,,,,,,,,,,
,,,,,00111,2023-12-08_15h41.55.944,vbt_B2_day3,2022.2.4,Win32,60.15761295,,,,,,down,0,2.2202,,0.071296339,-0.124074088,1,0,0,0,26,26,160,1,daarheen,images/br_daarheen.png,images/cb_daarheen.png,0,,,,,,,,,,,,,,,,,,,,,,
,,,,,00111,2023-12-08_15h41.55.944,vbt_B2_day3,2022.2.4,Win32,60.15761295,,,,,,down,0,0.801799999,,0.071296339,-0.124074088,1,0,0,0,27,27,55,1,praat,images/br_praat.png,images/cb_praat.png,0,,,,,,,,,,,,,,,,,,,,,,
,,,,,00111,2023-12-08_15h41.55.944,vbt_B2_day3,2022.2.4,Win32,60.15761295,,,,,,down,0,1.3064,,0.071296339,-0.124074088,1,0,0,0,28,28,109,1,totaal,images/br_totaal.png,images/cb_totaal.png,0,,,,,,,,,,,,,,,,,,,,,,
,,,,,00111,2023-12-08_15h41.55.944,vbt_B2_day3,2022.2.4,Win32,60.15761295,,,,,,down,0,4.690599999,,0.071296339,-0.124074088,1,0,0,0,29,29,140,1,blijven,images/br_blijven.png,images/cb_blijven.png,1,blijven,,,,,,,,,,,,,,,,,,,,,
,,,,,00111,2023-12-08_15h41.55.944,vbt_B2_day3,2022.2.4,Win32,60.15761295,,,,,,down,0,0.374,,0.071296339,-0.124074088,1,0,0,0,30,30,144,1,eetlust,images/br_eetlust.png,images/cb_eetlust.png,0,,,,,,,,,,,,,,,,,,,,,,
,,,,,00111,2023-12-08_15h41.55.944,vbt_B2_day3,2022.2.4,Win32,60.15761295,,,,,,down,0,3.5465,,0.071296339,-0.124074088,1,0,0,0,31,31,111,1,ticket,images/br_ticket.png,images/cb_ticket.png,0,,,,,,,,,,,,,,,,,,,,,,
,,,,,00111,2023-12-08_15h41.55.944,vbt_B2_day3,2022.2.4,Win32,60.15761295,,,,,,down,0,1.0338,,0.071296339,-0.124074088,1,0,0,0,32,32,48,1,steel,images/br_steel.png,images/cb_steel.png,0,,,,,,,,,,,,,,,,,,,,,,
,,,,,00111,2023-12-08_15h41.55.944,vbt_B2_day3,2022.2.4,Win32,60.15761295,,,,,,down,0,0.185400001,,0.071296339,-0.124074088,1,0,0,0,33,33,69,1,waken,images/br_waken.png,images/cb_waken.png,0,,,,,,,,,,,,,,,,,,,,,,
,,,,,00111,2023-12-08_15h41.55.944,vbt_B2_day3,2022.2.4,Win32,60.15761295,,,,,,down,0,0.8871,,0.071296339,-0.124074088,1,0,0,0,34,34,0,1,slak,images/br_slak.png,images/cb_slak.png,0,,,,,,,,,,,,,,,,,,,,,,
,,,,,00111,2023-12-08_15h41.55.944,vbt_B2_day3,2022.2.4,Win32,60.15761295,,,,,,down,0,0.7078,,0.071296339,-0.124074088,1,0,0,0,35,35,114,1,vullen,images/br_vullen.png,images/cb_vullen.png,0,,,,,,,,,,,,,,,,,,,,,,
,,,,,00111,2023-12-08_15h41.55.944,vbt_B2_day3,2022.2.4,Win32,60.15761295,,,,,,down,0,2.3544,,0.071296339,-0.124074088,1,0,0,0,36,36,194,1,driemaal,images/br_driemaal.png,images/cb_driemaal.png,0,,,,,,,,,,,,,,,,,,,,,,
,,,,,00111,2023-12-08_15h41.55.944,vbt_B2_day3,2022.2.4,Win32,60.15761295,,,,,,down,0,1.3757,,0.071296339,-0.124074088,1,0,0,0,37,37,40,1,schep,images/br_schep.png,images/cb_schep.png,0,,,,,,,,,,,,,,,,,,,,,,
,,,,,00111,2023-12-08_15h41.55.944,vbt_B2_day3,2022.2.4,Win32,60.15761295,,,,,,down,0,0.3308,,0.071296339,-0.124074088,1,0,0,0,38,38,4,1,moes,images/br_moes.png,images/cb_moes.png,0,,,,,,,,,,,,,,,,,,,,,,
,,,,,00111,2023-12-08_15h41.55.944,vbt_B2_day3,2022.2.4,Win32,60.15761295,,,,,,down,0,2.429700001,,0.071296339,-0.124074088,1,0,0,0,39,39,124,1,bloeien,images/br_bloeien.png,images/cb_bloeien.png,0,,,,,,,,,,,,,,,,,,,,,,
,,,,,00111,2023-12-08_15h41.55.944,vbt_B2_day3,2022.2.4,Win32,60.15761295,,,,,,down,0,1.3135,,0.071296339,-0.124074088,1,0,0,0,40,40,37,1,mijn,images/br_mijn.png,images/cb_mijn.png,0,,,,,,,,,,,,,,,,,,,,,,
,,,,,00111,2023-12-08_15h41.55.944,vbt_B2_day3,2022.2.4,Win32,60.15761295,,,,,,down,0,1.8487,,0.071296339,-0.124074088,1,0,0,0,41,41,177,1,maaltijd,images/br_maaltijd.png,images/cb_maaltijd.png,0,,,,,,,,,,,,,,,,,,,,,,
,,,,,00111,2023-12-08_15h41.55.944,vbt_B2_day3,2022.2.4,Win32,60.15761295,,,,,,down,0,0.9722,,0.071296339,-0.124074088,1,0,0,0,42,42,117,1,kennis,images/br_kennis.png,images/cb_kennis.png,0,,,,,,,,,,,,,,,,,,,,,,
,,,,,00111,2023-12-08_15h41.55.944,vbt_B2_day3,2022.2.4,Win32,60.15761295,,,,,,down,0,1.549099999,,0.071296339,-0.124074088,1,0,0,0,43,43,155,1,gerucht,images/br_gerucht.png,images/cb_gerucht.png,0,,,,,,,,,,,,,,,,,,,,,,
,,,,,00111,2023-12-08_15h41.55.944,vbt_B2_day3,2022.2.4,Win32,60.15761295,,,,,,down,0,3.397700001,,0.071296339,-0.124074088,1,0,0,0,44,44,179,1,woestijn,images/br_woestijn.png,images/cb_woestijn.png,0,,,,,,,,,,,,,,,,,,,,,,
,,,,,00111,2023-12-08_15h41.55.944,vbt_B2_day3,2022.2.4,Win32,60.15761295,,,,,,down,0,0.631099999,,0.071296339,-0.124074088,1,0,0,0,45,45,14,1,rijp,images/br_rijp.png,images/cb_rijp.png,0,,,,,,,,,,,,,,,,,,,,,,
,,,,,00111,2023-12-08_15h41.55.944,vbt_B2_day3,2022.2.4,Win32,60.15761295,,,,,,down,0,0.8063,,0.071296339,-0.124074088,1,0,0,0,46,46,13,1,kaal,images/br_kaal.png,images/cb_kaal.png,0,,,,,,,,,,,,,,,,,,,,,,
,,,,,00111,2023-12-08_15h41.55.944,vbt_B2_day3,2022.2.4,Win32,60.15761295,,,,,,down,0,0.476900001,,0.071296339,-0.124074088,1,0,0,0,47,47,39,1,laag,images/br_laag.png,images/cb_laag.png,0,,,,,,,,,,,,,,,,,,,,,,
,,,,,00111,2023-12-08_15h41.55.944,vbt_B2_day3,2022.2.4,Win32,60.15761295,,,,,,down,0,2.949599999,,0.071296339,-0.124074088,1,0,0,0,48,48,190,1,goedkoop,images/br_goedkoop.png,images/cb_goedkoop.png,0,,,,,,,,,,,,,,,,,,,,,,
,,,,,00111,2023-12-08_15h41.55.944,vbt_B2_day3,2022.2.4,Win32,60.15761295,,,,,,down,0,0.9803,,0.071296339,-0.124074088,1,0,0,0,49,49,47,1,kabel,images/br_kabel.png,images/cb_kabel.png,0,,,,,,,,,,,,,,,,,,,,,,
,,,,,00111,2023-12-08_15h41.55.944,vbt_B2_day3,2022.2.4,Win32,60.15761295,,,,,,down,0,0.4028,,0.071296339,-0.124074088,1,0,0,0,50,50,99,1,koffie,images/br_koffie.png,images/cb_koffie.png,0,,,,,,,,,,,,,,,,,,,,,,
,,,,,00111,2023-12-08_15h41.55.944,vbt_B2_day3,2022.2.4,Win32,60.15761295,,,,,,down,0,0.849900001,,0.071296339,-0.124074088,1,0,0,0,51,51,18,1,blik,images/br_blik.png,images/cb_blik.png,0,,,,,,,,,,,,,,,,,,,,,,
,,,,,00111,2023-12-08_15h41.55.944,vbt_B2_day3,2022.2.4,Win32,60.15761295,,,,,,down,0,1.750200001,,0.071296339,-0.124074088,1,0,0,0,52,52,98,1,kreeft,images/br_kreeft.png,images/cb_kreeft.png,0,,,,,,,,,,,,,,,,,,,,,,
,,,,,00111,2023-12-08_15h41.55.944,vbt_B2_day3,2022.2.4,Win32,60.15761295,,,,,,down,0,3.6286,,0.071296339,-0.124074088,1,0,0,0,53,53,156,1,rechten,images/br_rechten.png,images/cb_rechten.png,0,,,,,,,,,,,,,,,,,,,,,,
,,,,,00111,2023-12-08_15h41.55.944,vbt_B2_day3,2022.2.4,Win32,60.15761295,,,,,,down,0,2.5091,,0.071296339,-0.124074088,1,0,0,0,54,54,61,1,groen,images/br_groen.png,images/cb_groen.png,1,groen,,,,,,,,,,,,,,,,,,,,,
,,,,,00111,2023-12-08_15h41.55.944,vbt_B2_day3,2022.2.4,Win32,60.15761295,,,,,,down,0,2.6482,,0.071296339,-0.124074088,1,0,0,0,55,55,195,1,middelen,images/br_middelen.png,images/cb_middelen.png,0,,,,,,,,,,,,,,,,,,,,,,
,,,,,00111,2023-12-08_15h41.55.944,vbt_B2_day3,2022.2.4,Win32,60.15761295,,,,,,down,0,0.8705,,0.071296339,-0.124074088,1,0,0,0,56,56,169,1,oprotten,images/br_oprotten.png,images/cb_oprotten.png,0,,,,,,,,,,,,,,,,,,,,,,
,,,,,00111,2023-12-08_15h41.55.944,vbt_B2_day3,2022.2.4,Win32,60.15761295,,,,,,down,0,3.6504,,0.071296339,-0.124074088,1,0,0,0,57,57,23,1,zout,images/br_zout.png,images/cb_zout.png,1,zout,,,,,,,,,,,,,,,,,,,,,
,,,,,00111,2023-12-08_15h41.55.944,vbt_B2_day3,2022.2.4,Win32,60.15761295,,,,,,down,0,3.1111,,0.071296339,-0.124074088,1,0,0,0,58,58,161,1,attentie,images/br_attentie.png,images/cb_attentie.png,0,,,,,,,,,,,,,,,,,,,,,,
,,,,,00111,2023-12-08_15h41.55.944,vbt_B2_day3,2022.2.4,Win32,60.15761295,,,,,,down,0,0.9835,,0.071296339,-0.124074088,1,0,0,0,59,59,115,1,kleren,images/br_kleren.png,images/cb_kleren.png,0,,,,,,,,,,,,,,,,,,,,,,
,,,,,00111,2023-12-08_15h41.55.944,vbt_B2_day3,2022.2.4,Win32,60.15761295,,,,,,down,0,1.7151,,0.071296339,-0.124074088,1,0,0,0,60,60,85,1,heilig,images/br_heilig.png,images/cb_heilig.png,0,,,,,,,,,,,,,,,,,,,,,,
,,,,,00111,2023-12-08_15h41.55.944,vbt_B2_day3,2022.2.4,Win32,60.15761295,,,,,,down,0,3.618599999,,0.071296339,-0.124074088,1,0,0,0,61,61,164,1,anarchie,images/br_anarchie.png,images/cb_anarchie.png,0,,,,,,,,,,,,,,,,,,,,,,
,,,,,00111,2023-12-08_15h41.55.944,vbt_B2_day3,2022.2.4,Win32,60.15761295,,,,,,down,0,5.830099999,,0.071296339,-0.124074088,1,0,0,0,62,62,60,1,jasje,images/br_jasje.png,images/cb_jasje.png,1,jasje,,,,,,,,,,,,,,,,,,,,,
,,,,,00111,2023-12-08_15h41.55.944,vbt_B2_day3,2022.2.4,Win32,60.15761295,,,,,,down,0,1.4143,,0.071296339,-0.124074088,1,0,0,0,63,63,174,1,stemming,images/br_stemming.png,images/cb_stemming.png,0,,,,,,,,,,,,,,,,,,,,,,
,,,,,00111,2023-12-08_15h41.55.944,vbt_B2_day3,2022.2.4,Win32,60.15761295,,,,,,down,0,2.731599999,,0.071296339,-0.124074088,1,0,0,0,64,64,189,1,aanraden,images/br_aanraden.png,images/cb_aanraden.png,0,,,,,,,,,,,,,,,,,,,,,,
,,,,,00111,2023-12-08_15h41.55.944,vbt_B2_day3,2022.2.4,Win32,60.15761295,,,,,,down,0,3.9591,,0.071296339,-0.124074088,1,0,0,0,65,65,24,1,jurk,images/br_jurk.png,images/cb_jurk.png,0,,,,,,,,,,,,,,,,,,,,,,
,,,,,00111,2023-12-08_15h41.55.944,vbt_B2_day3,2022.2.4,Win32,60.15761295,,,,,,down,0,0.0972,,0.071296339,-0.124074088,1,0,0,0,66,66,50,1,stoom,images/br_stoom.png,images/cb_stoom.png,0,,,,,,,,,,,,,,,,,,,,,,
,,,,,00111,2023-12-08_15h41.55.944,vbt_B2_day3,2022.2.4,Win32,60.15761295,,,,,,down,0,7.9891,,0.071296339,-0.124074088,1,0,0,0,67,67,143,1,hechten,images/br_hechten.png,images/cb_hechten.png,1,hechten,,,,,,,,,,,,,,,,,,,,,
,,,,,00111,2023-12-08_15h41.55.944,vbt_B2_day3,2022.2.4,Win32,60.15761295,,,,,,down,0,1.048799999,,0.071296339,-0.124074088,1,0,0,0,68,68,71,1,bever,images/br_bever.png,images/cb_bever.png,0,,,,,,,,,,,,,,,,,,,,,,
,,,,,00111,2023-12-08_15h41.55.944,vbt_B2_day3,2022.2.4,Win32,60.15761295,,,,,,down,0,0.8687,,0.071296339,-0.124074088,1,0,0,0,69,69,53,1,baron,images/br_baron.png,images/cb_baron.png,0,,,,,,,,,,,,,,,,,,,,,,
,,,,,00111,2023-12-08_15h41.55.944,vbt_B2_day3,2022.2.4,Win32,60.15761295,,,,,,down,0,2.005099999,,0.071296339,-0.124074088,1,0,0,0,70,70,133,1,seizoen,images/br_seizoen.png,images/cb_seizoen.png,0,,,,,,,,,,,,,,,,,,,,,,
,,,,,00111,2023-12-08_15h41.55.944,vbt_B2_day3,2022.2.4,Win32,60.15761295,,,,,,down,0,2.3729,,0.071296339,-0.124074088,1,0,0,0,71,71,173,1,apparaat,images/br_apparaat.png,images/cb_apparaat.png,0,,,,,,,,,,,,,,,,,,,,,,
,,,,,00111,2023-12-08_15h41.55.944,vbt_B2_day3,2022.2.4,Win32,60.15761295,,,,,,down,0,3.3603,,0.071296339,-0.124074088,1,0,0,0,72,72,185,1,mijnheer,images/br_mijnheer.png,images/cb_mijnheer.png,0,,,,,,,,,,,,,,,,,,,,,,
,,,,,00111,2023-12-08_15h41.55.944,vbt_B2_day3,2022.2.4,Win32,60.15761295,,,,,,down,0,8.774900001,,0.071296339,-0.124074088,1,0,0,0,73,73,130,1,keihard,images/br_keihard.png,images/cb_keihard.png,0,,,,,,,,,,,,,,,,,,,,,,
,,,,,00111,2023-12-08_15h41.55.944,vbt_B2_day3,2022.2.4,Win32,60.15761295,,,,,,down,0,1.1665,,0.071296339,-0.124074088,1,0,0,0,74,74,122,1,waarvan,images/br_waarvan.png,images/cb_waarvan.png,0,,,,,,,,,,,,,,,,,,,,,,
,,,,,00111,2023-12-08_15h41.55.944,vbt_B2_day3,2022.2.4,Win32,60.15761295,,,,,,down,0,8.1387,,0.071296339,-0.124074088,1,0,0,0,75,75,46,1,jagen,images/br_jagen.png,images/cb_jagen.png,0,,,,,,,,,,,,,,,,,,,,,,
,,,,,00111,2023-12-08_15h41.55.944,vbt_B2_day3,2022.2.4,Win32,60.15761295,,,,,,down,0,0.6843,,0.071296339,-0.124074088,1,0,0,0,76,76,91,1,gezond,images/br_gezond.png,images/cb_gezond.png,0,,,,,,,,,,,,,,,,,,,,,,
,,,,,00111,2023-12-08_15h41.55.944,vbt_B2_day3,2022.2.4,Win32,60.15761295,,,,,,down,0,1.011799999,,0.071296339,-0.124074088,1,0,0,0,77,77,54,1,gebit,images/br_gebit.png,images/cb_gebit.png,0,,,,,,,,,,,,,,,,,,,,,,
,,,,,00111,2023-12-08_15h41.55.944,vbt_B2_day3,2022.2.4,Win32,60.15761295,,,,,,down,0,1.2192,,0.071296339,-0.124074088,1,0,0,0,78,78,20,1,site,images/br_site.png,images/cb_site.png,1,site,,,,,,,,,,,,,,,,,,,,,
,,,,,00111,2023-12-08_15h41.55.944,vbt_B2_day3,2022.2.4,Win32,60.15761295,,,,,,down,0,0.9125,,0.071296339,-0.124074088,1,0,0,0,79,79,10,1,leek,images/br_leek.png,images/cb_leek.png,0,,,,,,,,,,,,,,,,,,,,,,
,,,,,00111,2023-12-08_15h41.55.944,vbt_B2_day3,2022.2.4,Win32,60.15761295,,,,,,down,0,1.376299999,,0.071296339,-0.124074088,1,0,0,0,80,80,170,1,schatten,images/br_schatten.png,images/cb_schatten.png,0,,,,,,,,,,,,,,,,,,,,,,
,,,,,00111,2023-12-08_15h41.55.944,vbt_B2_day3,2022.2.4,Win32,60.15761295,,,,,,down,0,0.8629,,0.071296339,-0.124074088,1,0,0,0,81,81,44,1,flits,images/br_flits.png,images/cb_flits.png,0,,,,,,,,,,,,,,,,,,,,,,
,,,,,00111,2023-12-08_15h41.55.944,vbt_B2_day3,2022.2.4,Win32,60.15761295,,,,,,down,0,0.6359,,0.071296339,-0.124074088,1,0,0,0,82,82,84,1,lokken,images/br_lokken.png,images/cb_lokken.png,0,,,,,,,,,,,,,,,,,,,,,,
,,,,,00111,2023-12-08_15h41.55.944,vbt_B2_day3,2022.2.4,Win32,60.15761295,,,,,,down,0,2.4475,,0.071296339,-0.124074088,1,0,0,0,83,83,153,1,vervoer,images/br_vervoer.png,images/cb_vervoer.png,0,,,,,,,,,,,,,,,,,,,,,,
,,,,,00111,2023-12-08_15h41.55.944,vbt_B2_day3,2022.2.4,Win32,60.15761295,,,,,,down,0,0.0676,,0.071296339,-0.124074088,1,0,0,0,84,84,96,1,slagen,images/br_slagen.png,images/cb_slagen.png,0,,,,,,,,,,,,,,,,,,,,,,
,,,,,00111,2023-12-08_15h41.55.944,vbt_B2_day3,2022.2.4,Win32,60.15761295,,,,,,down,0,1.335799999,,0.071296339,-0.124074088,1,0,0,0,85,85,77,1,woede,images/br_woede.png,images/cb_woede.png,0,,,,,,,,,,,,,,,,,,,,,,
,,,,,00111,2023-12-08_15h41.55.944,vbt_B2_day3,2022.2.4,Win32,60.15761295,,,,,,down,0,1.1449,,0.071296339,-0.124074088,1,0,0,0,86,86,73,1,volop,images/br_volop.png,images/cb_volop.png,0,,,,,,,,,,,,,,,,,,,,,,
,,,,,00111,2023-12-08_15h41.55.944,vbt_B2_day3,2022.2.4,Win32,60.15761295,,,,,,down,0,2.5802,,0.071296339,-0.124074088,1,0,0,0,87,87,123,1,hiervan,images/br_hiervan.png,images/cb_hiervan.png,0,,,,,,,,,,,,,,,,,,,,,,
,,,,,00111,2023-12-08_15h41.55.944,vbt_B2_day3,2022.2.4,Win32,60.15761295,,,,,,down,0,1.1674,,0.071296339,-0.124074088,1,0,0,0,88,88,58,1,tekst,images/br_tekst.png,images/cb_tekst.png,0,,,,,,,,,,,,,,,,,,,,,,
,,,,,00111,2023-12-08_15h41.55.944,vbt_B2_day3,2022.2.4,Win32,60.15761295,,,,,,down,0,1.4356,,0.071296339,-0.124074088,1,0,0,0,89,89,126,1,kasteel,images/br_kasteel.png,images/cb_kasteel.png,0,,,,,,,,,,,,,,,,,,,,,,
,,,,,00111,2023-12-08_15h41.55.944,vbt_B2_day3,2022.2.4,Win32,60.15761295,,,,,,down,0,0.8568,,0.071296339,-0.124074088,1,0,0,0,90,90,78,1,leren,images/br_leren.png,images/cb_leren.png,0,,,,,,,,,,,,,,,,,,,,,,
,,,,,00111,2023-12-08_15h41.55.944,vbt_B2_day3,2022.2.4,Win32,60.15761295,,,,,,down,0,0.808200001,,0.071296339,-0.124074088,1,0,0,0,91,91,9,1,hier,images/br_hier.png,images/cb_hier.png,0,,,,,,,,,,,,,,,,,,,,,,
,,,,,00111,2023-12-08_15h41.55.944,vbt_B2_day3,2022.2.4,Win32,60.15761295,,,,,,down,0,1.393700001,,0.071296339,-0.124074088,1,0,0,0,92,92,65,1,parel,images/br_parel.png,images/cb_parel.png,0,,,,,,,,,,,,,,,,,,,,,,
,,,,,00111,2023-12-08_15h41.55.944,vbt_B2_day3,2022.2.4,Win32,60.15761295,,,,,,down,0,0.7808,,0.071296339,-0.124074088,1,0,0,0,93,93,52,1,wagon,images/br_wagon.png,images/cb_wagon.png,0,,,,,,,,,,,,,,,,,,,,,,
,,,,,00111,2023-12-08_15h41.55.944,vbt_B2_day3,2022.2.4,Win32,60.15761295,,,,,,down,0,4.1918,,0.071296339,-0.124074088,1,0,0,0,94,94,196,1,nakijken,images/br_nakijken.png,images/cb_nakijken.png,0,,,,,,,,,,,,,,,,,,,,,,
,,,,,00111,2023-12-08_15h41.55.944,vbt_B2_day3,2022.2.4,Win32,60.15761295,,,,,,down,0,5.7424,,0.071296339,-0.124074088,1,0,0,0,95,95,141,1,knielen,images/br_knielen.png,images/cb_knielen.png,1,knielen,,,,,,,,,,,,,,,,,,,,,
,,,,,00111,2023-12-08_15h41.55.944,vbt_B2_day3,2022.2.4,Win32,60.15761295,,,,,,down,0,1.465799999,,0.083333333,-0.124074088,1,0,0,0,96,96,97,1,loyaal,images/br_loyaal.png,images/cb_loyaal.png,0,,,,,,,,,,,,,,,,,,,,,,
,,,,,00111,2023-12-08_15h41.55.944,vbt_B2_day3,2022.2.4,Win32,60.15761295,,,,,,down,0,0.5539,,0.086111139,-0.124074088,1,0,0,0,97,97,26,1,leuk,images/br_leuk.png,images/cb_leuk.png,0,,,,,,,,,,,,,,,,,,,,,,
,,,,,00111,2023-12-08_15h41.55.944,vbt_B2_day3,2022.2.4,Win32,60.15761295,,,,,,down,0,0.8634,,0.15370369,-0.124074088,1,0,0,0,98,98,66,1,lever,images/br_lever.png,images/cb_lever.png,0,,,,,,,,,,,,,,,,,,,,,,
,,,,,00111,2023-12-08_15h41.55.944,vbt_B2_day3,2022.2.4,Win32,60.15761295,,,,,,down,0,3.0808,,0.100000028,-0.124074088,1,0,0,0,99,99,101,1,staren,images/br_staren.png,images/cb_staren.png,1,staren,,,,,,,,,,,,,,,,,,,,,
,,,,,00111,2023-12-08_15h41.55.944,vbt_B2_day3,2022.2.4,Win32,60.15761295,,,,,,down,0,0.4759,,0.100000028,-0.124074088,1,0,0,0,100,100,7,1,geld,images/br_geld.png,images/cb_geld.png,0,,,,,,,,,,,,,,,,,,,,,,
,,,,,00111,2023-12-08_15h41.55.944,vbt_B2_day3,2022.2.4,Win32,60.15761295,,,,,,down,0,3.9815,,0.100000028,-0.124074088,1,0,0,0,101,101,183,1,getuigen,images/br_getuigen.png,images/cb_getuigen.png,1,getuigen,,,,,,,,,,,,,,,,,,,,,
,,,,,00111,2023-12-08_15h41.55.944,vbt_B2_day3,2022.2.4,Win32,60.15761295,,,,,,down,0,2.3525,,0.100000028,-0.124074088,1,0,0,0,102,102,157,1,uitlaat,images/br_uitlaat.png,images/cb_uitlaat.png,0,,,,,,,,,,,,,,,,,,,,,,
,,,,,00111,2023-12-08_15h41.55.944,vbt_B2_day3,2022.2.4,Win32,60.15761295,,,,,,down,0,1.2321,,0.100000028,-0.124074088,1,0,0,0,103,103,135,1,gedicht,images/br_gedicht.png,images/cb_gedicht.png,0,,,,,,,,,,,,,,,,,,,,,,
,,,,,00111,2023-12-08_15h41.55.944,vbt_B2_day3,2022.2.4,Win32,60.15761295,,,,,,down,0,0.706599999,,0.100000028,-0.124074088,1,0,0,0,104,104,137,1,trekker,images/br_trekker.png,images/cb_trekker.png,0,,,,,,,,,,,,,,,,,,,,,,
,,,,,00111,2023-12-08_15h41.55.944,vbt_B2_day3,2022.2.4,Win32,60.15761295,,,,,,down,0,0.4844,,0.100000028,-0.124074088,1,0,0,0,105,105,11,1,mode,images/br_mode.png,images/cb_mode.png,0,,,,,,,,,,,,,,,,,,,,,,
,,,,,00111,2023-12-08_15h41.55.944,vbt_B2_day3,2022.2.4,Win32,60.15761295,,,,,,down,0,0.1009,,0.100000028,-0.124074088,1,0,0,0,106,106,29,1,baas,images/br_baas.png,images/cb_baas.png,0,,,,,,,,,,,,,,,,,,,,,,
,,,,,00111,2023-12-08_15h41.55.944,vbt_B2_day3,2022.2.4,Win32,60.15761295,,,,,,down,0,1.053900001,,0.100000028,-0.124074088,1,0,0,0,107,107,83,1,mening,images/br_mening.png,images/cb_mening.png,0,,,,,,,,,,,,,,,,,,,,,,
,,,,,00111,2023-12-08_15h41.55.944,vbt_B2_day3,2022.2.4,Win32,60.15761295,,,,,,down,0,0.086099999,,0.100000028,-0.124074088,1,0,0,0,108,108,16,1,ziek,images/br_ziek.png,images/cb_ziek.png,0,,,,,,,,,,,,,,,,,,,,,,
,,,,,00111,2023-12-08_15h41.55.944,vbt_B2_day3,2022.2.4,Win32,60.15761295,,,,,,down,0,1.175099999,,0.100000028,-0.124074088,1,0,0,0,109,109,192,1,schaamte,images/br_schaamte.png,images/cb_schaamte.png,0,,,,,,,,,,,,,,,,,,,,,,
,,,,,00111,2023-12-08_15h41.55.944,vbt_B2_day3,2022.2.4,Win32,60.15761295,,,,,,down,0,3.0986,,0.100000028,-0.124074088,1,0,0,0,110,110,94,1,oceaan,images/br_oceaan.png,images/cb_oceaan.png,0,,,,,,,,,,,,,,,,,,,,,,
,,,,,00111,2023-12-08_15h41.55.944,vbt_B2_day3,2022.2.4,Win32,60.15761295,,,,,,down,0,1.0835,,0.100000028,-0.124074088,1,0,0,0,111,111,107,1,maling,images/br_maling.png,images/cb_maling.png,0,,,,,,,,,,,,,,,,,,,,,,
,,,,,00111,2023-12-08_15h41.55.944,vbt_B2_day3,2022.2.4,Win32,60.15761295,,,,,,down,0,0.8195,,0.100000028,-0.124074088,1,0,0,0,112,112,64,1,wegen,images/br_wegen.png,images/cb_wegen.png,0,,,,,,,,,,,,,,,,,,,,,,
,,,,,00111,2023-12-08_15h41.55.944,vbt_B2_day3,2022.2.4,Win32,60.15761295,,,,,,down,0,1.7797,,0.100000028,-0.124074088,1,0,0,0,113,113,175,1,heengaan,images/br_heengaan.png,images/cb_heengaan.png,0,,,,,,,,,,,,,,,,,,,,,,
,,,,,00111,2023-12-08_15h41.55.944,vbt_B2_day3,2022.2.4,Win32,60.15761295,,,,,,down,0,2.6815,,0.100000028,-0.124074088,1,0,0,0,114,114,92,1,geheim,images/br_geheim.png,images/cb_geheim.png,0,,,,,,,,,,,,,,,,,,,,,,
,,,,,00111,2023-12-08_15h41.55.944,vbt_B2_day3,2022.2.4,Win32,60.15761295,,,,,,down,0,0.881599999,,0.100000028,-0.124074088,1,0,0,0,115,115,146,1,opkomen,images/br_opkomen.png,images/cb_opkomen.png,0,,,,,,,,,,,,,,,,,,,,,,
,,,,,00111,2023-12-08_15h41.55.944,vbt_B2_day3,2022.2.4,Win32,60.15761295,,,,,,down,0,3.9795,,0.100000028,-0.124074088,1,0,0,0,116,116,187,1,opkijken,images/br_opkijken.png,images/cb_opkijken.png,0,,,,,,,,,,,,,,,,,,,,,,
,,,,,00111,2023-12-08_15h41.55.944,vbt_B2_day3,2022.2.4,Win32,60.15761295,,,,,,down,0,2.731099999,,0.100000028,-0.124074088,1,0,0,0,117,117,186,1,voorraad,images/br_voorraad.png,images/cb_voorraad.png,0,,,,,,,,,,,,,,,,,,,,,,
,,,,,00111,2023-12-08_15h41.55.944,vbt_B2_day3,2022.2.4,Win32,60.15761295,,,,,,down,0,1.4465,,0.100000028,-0.124074088,1,0,0,0,118,118,22,1,stof,images/br_stof.png,images/cb_stof.png,1,staf,,,,,,,,,,,,,,,,,,,,,
,,,,,00111,2023-12-08_15h41.55.944,vbt_B2_day3,2022.2.4,Win32,60.15761295,,,,,,down,0,1.681,,0.100000028,-0.124074088,1,0,0,0,119,119,120,1,klimmen,images/br_klimmen.png,images/cb_klimmen.png,0,,,,,,,,,,,,,,,,,,,,,,
,,,,,00111,2023-12-08_15h41.55.944,vbt_B2_day3,2022.2.4,Win32,60.15761295,,,,,,down,0,5.8582,,0.100000028,-0.124074088,1,0,0,0,120,120,162,1,uitdelen,images/br_uitdelen.png,images/cb_uitdelen.png,0,,,,,,,,,,,,,,,,,,,,,,
,,,,,00111,2023-12-08_15h41.55.944,vbt_B2_day3,2022.2.4,Win32,60.15761295,,,,,,down,0,7.5652,,0.100000028,-0.124074088,1,0,0,0,121,121,182,1,bijkomen,images/br_bijkomen.png,images/cb_bijkomen.png,1,bijkomen,,,,,,,,,,,,,,,,,,,,,
,,,,,00111,2023-12-08_15h41.55.944,vbt_B2_day3,2022.2.4,Win32,60.15761295,,,,,,down,0,1.2597,,0.100000028,-0.124074088,1,0,0,0,122,122,108,1,excuus,images/br_excuus.png,images/cb_excuus.png,0,,,,,,,,,,,,,,,,,,,,,,
,,,,,00111,2023-12-08_15h41.55.944,vbt_B2_day3,2022.2.4,Win32,60.15761295,,,,,,down,0,2.331099999,,0.100000028,-0.124074088,1,0,0,0,123,123,134,1,geliefd,images/br_geliefd.png,images/cb_geliefd.png,0,,,,,,,,,,,,,,,,,,,,,,
,,,,,00111,2023-12-08_15h41.55.944,vbt_B2_day3,2022.2.4,Win32,60.15761295,,,,,,down,0,0.651,,0.100000028,-0.124074088,1,0,0,0,124,124,57,1,steek,images/br_steek.png,images/cb_steek.png,0,,,,,,,,,,,,,,,,,,,,,,
,,,,,00111,2023-12-08_15h41.55.944,vbt_B2_day3,2022.2.4,Win32,60.15761295,,,,,,down,0,4.2458,,0.100000028,-0.124074088,1,0,0,0,125,125,191,1,opheffen,images/br_opheffen.png,images/cb_opheffen.png,0,,,,,,,,,,,,,,,,,,,,,,
,,,,,00111,2023-12-08_15h41.55.944,vbt_B2_day3,2022.2.4,Win32,60.15761295,,,,,,down,0,0.2674,,0.100000028,-0.124074088,1,0,0,0,126,126,113,1,koppen,images/br_koppen.png,images/cb_koppen.png,0,,,,,,,,,,,,,,,,,,,,,,
,,,,,00111,2023-12-08_15h41.55.944,vbt_B2_day3,2022.2.4,Win32,60.15761295,,,,,,down,0,2.6922,,0.100000028,-0.124074088,1,0,0,0,127,127,165,1,feestdag,images/br_feestdag.png,images/cb_feestdag.png,0,,,,,,,,,,,,,,,,,,,,,,
,,,,,00111,2023-12-08_15h41.55.944,vbt_B2_day3,2022.2.4,Win32,60.15761295,,,,,,down,0,0.598900001,,0.100000028,-0.124074088,1,0,0,0,128,128,3,1,mand,images/br_mand.png,images/cb_mand.png,0,,,,,,,,,,,,,,,,,,,,,,
,,,,,00111,2023-12-08_15h41.55.944,vbt_B2_day3,2022.2.4,Win32,60.15761295,,,,,,down,0,0.5195,,0.100000028,-0.124074088,1,0,0,0,129,129,90,1,geluid,images/br_geluid.png,images/cb_geluid.png,0,,,,,,,,,,,,,,,,,,,,,,
,,,,,00111,2023-12-08_15h41.55.944,vbt_B2_day3,2022.2.4,Win32,60.15761295,,,,,,down,0,4.326099999,,0.100000028,-0.124074088,1,0,0,0,130,130,2,1,jaar,images/br_jaar.png,images/cb_jaar.png,0,,,,,,,,,,,,,,,,,,,,,,
,,,,,00111,2023-12-08_15h41.55.944,vbt_B2_day3,2022.2.4,Win32,60.15761295,,,,,,down,0,4.7916,,0.100000028,-0.124074088,1,0,0,0,131,131,158,1,innemen,images/br_innemen.png,images/cb_innemen.png,0,,,,,,,,,,,,,,,,,,,,,,
,,,,,00111,2023-12-08_15h41.55.944,vbt_B2_day3,2022.2.4,Win32,60.15761295,,,,,,down,0,7.0923,,0.100000028,-0.124074088,1,0,0,0,132,132,147,1,komisch,images/br_komisch.png,images/cb_komisch.png,0,,,,,,,,,,,,,,,,,,,,,,
,,,,,00111,2023-12-08_15h41.55.944,vbt_B2_day3,2022.2.4,Win32,60.15761295,,,,,,down,0,4.625099999,,0.100000028,-0.124074088,1,0,0,0,133,133,193,1,weeshuis,images/br_weeshuis.png,images/cb_weeshuis.png,0,,,,,,,,,,,,,,,,,,,,,,
,,,,,00111,2023-12-08_15h41.55.944,vbt_B2_day3,2022.2.4,Win32,60.15761295,,,,,,down,0,0.0515,,0.100000028,-0.124074088,1,0,0,0,134,134,93,1,waarop,images/br_waarop.png,images/cb_waarop.png,0,,,,,,,,,,,,,,,,,,,,,,
,,,,,00111,2023-12-08_15h41.55.944,vbt_B2_day3,2022.2.4,Win32,60.15761295,,,,,,down,0,2.247400001,,0.100000028,-0.124074088,1,0,0,0,135,135,121,1,twijfel,images/br_twijfel.png,images/cb_twijfel.png,0,,,,,,,,,,,,,,,,,,,,,,
,,,,,00111,2023-12-08_15h41.55.944,vbt_B2_day3,2022.2.4,Win32,60.15761295,,,,,,down,0,0.5169,,0.112963005,-0.110185199,1,0,0,0,136,136,68,1,schat,images/br_schat.png,images/cb_schat.png,0,,,,,,,,,,,,,,,,,,,,,,
,,,,,00111,2023-12-08_15h41.55.944,vbt_B2_day3,2022.2.4,Win32,60.15761295,,,,,,down,0,0.466,,0.112963005,-0.110185199,1,0,0,0,137,137,45,1,piste,images/br_piste.png,images/cb_piste.png,0,,,,,,,,,,,,,,,,,,,,,,
,,,,,00111,2023-12-08_15h41.55.944,vbt_B2_day3,2022.2.4,Win32,60.15761295,,,,,,down,0,3.4958,,0.134259259,-0.080555563,1,0,0,0,138,138,102,1,legaal,images/br_legaal.png,images/cb_legaal.png,1,legaal,,,,,,,,,,,,,,,,,,,,,
,,,,,00111,2023-12-08_15h41.55.944,vbt_B2_day3,2022.2.4,Win32,60.15761295,,,,,,down,0,1.6779,,0.134259259,-0.080555563,1,0,0,0,139,139,110,1,zuster,images/br_zuster.png,images/cb_zuster.png,0,,,,,,,,,,,,,,,,,,,,,,
,,,,,00111,2023-12-08_15h41.55.944,vbt_B2_day3,2022.2.4,Win32,60.15761295,,,,,,down,0,3.9593,,0.134259259,-0.080555563,1,0,0,0,140,140,75,1,snoep,images/br_snoep.png,images/cb_snoep.png,0,,,,,,,,,,,,,,,,,,,,,,
,,,,,00111,2023-12-08_15h41.55.944,vbt_B2_day3,2022.2.4,Win32,60.15761295,,,,,,down,0,2.3672,,0.134259259,-0.080555563,1,0,0,0,141,141,154,1,aflopen,images/br_aflopen.png,images/cb_aflopen.png,0,,,,,,,,,,,,,,,,,,,,,,
,,,,,00111,2023-12-08_15h41.55.944,vbt_B2_day3,2022.2.4,Win32,60.15761295,,,,,,down,0,0.686299999,,0.134259259,-0.080555563,1,0,0,0,142,142,35,1,lust,images/br_lust.png,images/cb_lust.png,0,,,,,,,,,,,,,,,,,,,,,,
,,,,,00111,2023-12-08_15h41.55.944,vbt_B2_day3,2022.2.4,Win32,60.15761295,,,,,,down,0,4.5177,,0.134259259,-0.080555563,1,0,0,0,143,143,178,1,huisdier,images/br_huisdier.png,images/cb_huisdier.png,0,,,,,,,,,,,,,,,,,,,,,,
,,,,,00111,2023-12-08_15h41.55.944,vbt_B2_day3,2022.2.4,Win32,60.15761295,,,,,,down,0,2.417599999,,0.134259259,-0.080555563,1,0,0,0,144,144,172,1,weigeren,images/br_weigeren.png,images/cb_weigeren.png,0,,,,,,,,,,,,,,,,,,,,,,
,,,,,00111,2023-12-08_15h41.55.944,vbt_B2_day3,2022.2.4,Win32,60.15761295,,,,,,down,0,1.4155,,0.134259259,-0.080555563,1,0,0,0,145,145,197,1,spanning,images/br_spanning.png,images/cb_spanning.png,0,,,,,,,,,,,,,,,,,,,,,,
,,,,,00111,2023-12-08_15h41.55.944,vbt_B2_day3,2022.2.4,Win32,60.15761295,,,,,,down,0,0.8533,,0.134259259,-0.080555563,1,0,0,0,146,146,19,1,geit,images/br_geit.png,images/cb_geit.png,0,,,,,,,,,,,,,,,,,,,,,,
,,,,,00111,2023-12-08_15h41.55.944,vbt_B2_day3,2022.2.4,Win32,60.15761295,,,,,,down,0,1.2471,,0.134259259,-0.080555563,1,0,0,0,147,147,8,1,knie,images/br_knie.png,images/cb_knie.png,0,,,,,,,,,,,,,,,,,,,,,,
,,,,,00111,2023-12-08_15h41.55.944,vbt_B2_day3,2022.2.4,Win32,60.15761295,,,,,,down,0,2.0952,,0.134259259,-0.080555563,1,0,0,0,148,148,25,1,plek,images/br_plek.png,images/cb_plek.png,0,,,,,,,,,,,,,,,,,,,,,,
,,,,,00111,2023-12-08_15h41.55.944,vbt_B2_day3,2022.2.4,Win32,60.15761295,,,,,,down,0,0.5257,,0.134259259,-0.080555563,1,0,0,0,149,149,36,1,vuur,images/br_vuur.png,images/cb_vuur.png,0,,,,,,,,,,,,,,,,,,,,,,
,,,,,00111,2023-12-08_15h41.55.944,vbt_B2_day3,2022.2.4,Win32,60.15761295,,,,,,down,0,1.0334,,0.134259259,-0.080555563,1,0,0,0,150,150,15,1,soda,images/br_soda.png,images/cb_soda.png,0,,,,,,,,,,,,,,,,,,,,,,
,,,,,00111,2023-12-08_15h41.55.944,vbt_B2_day3,2022.2.4,Win32,60.15761295,,,,,,down,0,0.6998,,0.134259259,-0.080555563,1,0,0,0,151,151,49,1,laken,images/br_laken.png,images/cb_laken.png,0,,,,,,,,,,,,,,,,,,,,,,
,,,,,00111,2023-12-08_15h41.55.944,vbt_B2_day3,2022.2.4,Win32,60.15761295,,,,,,down,0,0.1802,,0.134259259,-0.080555563,1,0,0,0,152,152,34,1,vorm,images/br_vorm.png,images/cb_vorm.png,0,,,,,,,,,,,,,,,,,,,,,,
,,,,,00111,2023-12-08_15h41.55.944,vbt_B2_day3,2022.2.4,Win32,60.15761295,,,,,,down,0,1.4023,,0.134259259,-0.080555563,1,0,0,0,153,153,89,1,slapen,images/br_slapen.png,images/cb_slapen.png,0,,,,,,,,,,,,,,,,,,,,,,
,,,,,00111,2023-12-08_15h41.55.944,vbt_B2_day3,2022.2.4,Win32,60.15761295,,,,,,down,0,2.1525,,0.134259259,-0.080555563,1,0,0,0,154,154,31,1,poes,images/br_poes.png,images/cb_poes.png,0,,,,,,,,,,,,,,,,,,,,,,
,,,,,00111,2023-12-08_15h41.55.944,vbt_B2_day3,2022.2.4,Win32,60.15761295,,,,,,down,0,0.496,,0.134259259,-0.080555563,1,0,0,0,155,155,72,1,strak,images/br_strak.png,images/cb_strak.png,0,,,,,,,,,,,,,,,,,,,,,,
,,,,,00111,2023-12-08_15h41.55.944,vbt_B2_day3,2022.2.4,Win32,60.15761295,,,,,,down,0,3.368900001,,0.134259259,-0.080555563,1,0,0,0,156,156,63,1,flirt,images/br_flirt.png,images/cb_flirt.png,1,flirt,,,,,,,,,,,,,,,,,,,,,
,,,,,00111,2023-12-08_15h41.55.944,vbt_B2_day3,2022.2.4,Win32,60.15761295,,,,,,down,0,0.3443,,0.134259259,-0.080555563,1,0,0,0,157,157,17,1,taal,images/br_taal.png,images/cb_taal.png,0,,,,,,,,,,,,,,,,,,,,,,
,,,,,00111,2023-12-08_15h41.55.944,vbt_B2_day3,2022.2.4,Win32,60.15761295,,,,,,down,0,2.5284,,0.134259259,-0.080555563,1,0,0,0,158,158,82,1,muziek,images/br_muziek.png,images/cb_muziek.png,0,,,,,,,,,,,,,,,,,,,,,,
,,,,,00111,2023-12-08_15h41.55.944,vbt_B2_day3,2022.2.4,Win32,60.15761295,,,,,,down,0,4.1622,,0.134259259,-0.080555563,1,0,0,0,159,159,199,1,beseffen,images/br_beseffen.png,images/cb_beseffen.png,0,,,,,,,,,,,,,,,,,,,,,,
,,,,,00111,2023-12-08_15h41.55.944,vbt_B2_day3,2022.2.4,Win32,60.15761295,,,,,,down,0,0.404700001,,0.134259259,-0.080555563,1,0,0,0,160,160,42,1,bleek,images/br_bleek.png,images/cb_bleek.png,0,,,,,,,,,,,,,,,,,,,,,,
,,,,,00111,2023-12-08_15h41.55.944,vbt_B2_day3,2022.2.4,Win32,60.15761295,,,,,,down,0,3.8323,,0.134259259,-0.080555563,1,0,0,0,161,161,106,1,zingen,images/br_zingen.png,images/cb_zingen.png,0,,,,,,,,,,,,,,,,,,,,,,
,,,,,00111,2023-12-08_15h41.55.944,vbt_B2_day3,2022.2.4,Win32,60.15761295,,,,,,down,0,0.3065,,0.134259259,-0.080555563,1,0,0,0,162,162,128,1,prikken,images/br_prikken.png,images/cb_prikken.png,0,,,,,,,,,,,,,,,,,,,,,,
,,,,,00111,2023-12-08_15h41.55.944,vbt_B2_day3,2022.2.4,Win32,60.15761295,,,,,,down,0,1.1345,,0.134259259,-0.080555563,1,0,0,0,163,163,138,1,akkoord,images/br_akkoord.png,images/cb_akkoord.png,0,,,,,,,,,,,,,,,,,,,,,,
,,,,,00111,2023-12-08_15h41.55.944,vbt_B2_day3,2022.2.4,Win32,60.15761295,,,,,,down,0,2.2844,,0.134259259,-0.080555563,1,0,0,0,164,164,188,1,strekken,images/br_strekken.png,images/cb_strekken.png,0,,,,,,,,,,,,,,,,,,,,,,
,,,,,00111,2023-12-08_15h41.55.944,vbt_B2_day3,2022.2.4,Win32,60.15761295,,,,,,down,0,4.817599999,,0.134259259,-0.080555563,1,0,0,0,165,165,103,1,joggen,images/br_joggen.png,images/cb_joggen.png,1,joggen,,,,,,,,,,,,,,,,,,,,,
,,,,,00111,2023-12-08_15h41.55.944,vbt_B2_day3,2022.2.4,Win32,60.15761295,,,,,,down,0,0.011599999,,0.134259259,-0.080555563,1,0,0,0,166,166,1,1,zaal,images/br_zaal.png,images/cb_zaal.png,0,,,,,,,,,,,,,,,,,,,,,,
,,,,,00111,2023-12-08_15h41.55.944,vbt_B2_day3,2022.2.4,Win32,60.15761295,,,,,,down,0,3.8682,,0.134259259,-0.080555563,1,0,0,0,167,167,145,1,invloed,images/br_invloed.png,images/cb_invloed.png,0,,,,,,,,,,,,,,,,,,,,,,
,,,,,00111,2023-12-08_15h41.55.944,vbt_B2_day3,2022.2.4,Win32,60.15761295,,,,,,down,0,0.7813,,0.134259259,-0.080555563,1,0,0,0,168,168,125,1,aanzien,images/br_aanzien.png,images/cb_aanzien.png,0,,,,,,,,,,,,,,,,,,,,,,
,,,,,00111,2023-12-08_15h41.55.944,vbt_B2_day3,2022.2.4,Win32,60.15761295,,,,,,down,0,0.8479,,0.134259259,-0.080555563,1,0,0,0,169,169,171,1,aarzelen,images/br_aarzelen.png,images/cb_aarzelen.png,0,,,,,,,,,,,,,,,,,,,,,,
,,,,,00111,2023-12-08_15h41.55.944,vbt_B2_day3,2022.2.4,Win32,60.15761295,,,,,,down,0,0.0013,,0.134259259,-0.080555563,1,0,0,0,170,170,28,1,stal,images/br_stal.png,images/cb_stal.png,0,,,,,,,,,,,,,,,,,,,,,,
,,,,,00111,2023-12-08_15h41.55.944,vbt_B2_day3,2022.2.4,Win32,60.15761295,,,,,,down,0,0.1611,,0.134259259,-0.080555563,1,0,0,0,171,171,81,1,dubbel,images/br_dubbel.png,images/cb_dubbel.png,0,,,,,,,,,,,,,,,,,,,,,,
,,,,,00111,2023-12-08_15h41.55.944,vbt_B2_day3,2022.2.4,Win32,60.15761295,,,,,,down,0,2.1909,,0.134259259,-0.080555563,1,0,0,0,172,172,163,1,schuilen,images/br_schuilen.png,images/cb_schuilen.png,0,,,,,,,,,,,,,,,,,,,,,,
,,,,,00111,2023-12-08_15h41.55.944,vbt_B2_day3,2022.2.4,Win32,60.15761295,,,,,,down,0,1.7508,,0.134259259,-0.080555563,1,0,0,0,173,173,129,1,verhaal,images/br_verhaal.png,images/cb_verhaal.png,0,,,,,,,,,,,,,,,,,,,,,,
,,,,,00111,2023-12-08_15h41.55.944,vbt_B2_day3,2022.2.4,Win32,60.15761295,,,,,,down,0,0.0922,,0.134259259,-0.080555563,1,0,0,0,174,174,51,1,samen,images/br_samen.png,images/cb_samen.png,0,,,,,,,,,,,,,,,,,,,,,,
,,,,,00111,2023-12-08_15h41.55.944,vbt_B2_day3,2022.2.4,Win32,60.15761295,,,,,,down,0,1.1494,,0.134259259,-0.080555563,1,0,0,0,175,175,119,1,liefje,images/br_liefje.png,images/cb_liefje.png,0,,,,,,,,,,,,,,,,,,,,,,
,,,,,00111,2023-12-08_15h41.55.944,vbt_B2_day3,2022.2.4,Win32,60.15761295,,,,,,down,0,1.917,,0.134259259,-0.080555563,1,0,0,0,176,176,176,1,techniek,images/br_techniek.png,images/cb_techniek.png,0,,,,,,,,,,,,,,,,,,,,,,
,,,,,00111,2023-12-08_15h41.55.944,vbt_B2_day3,2022.2.4,Win32,60.15761295,,,,,,down,0,0.136700001,,0.134259259,-0.080555563,1,0,0,0,177,177,5,1,blad,images/br_blad.png,images/cb_blad.png,0,,,,,,,,,,,,,,,,,,,,,,
,,,,,00111,2023-12-08_15h41.55.944,vbt_B2_day3,2022.2.4,Win32,60.15761295,,,,,,down,0,0.8946,,0.134259259,-0.080555563,1,0,0,0,178,178,139,1,stiekem,images/br_stiekem.png,images/cb_stiekem.png,0,,,,,,,,,,,,,,,,,,,,,,
,,,,,00111,2023-12-08_15h41.55.944,vbt_B2_day3,2022.2.4,Win32,60.15761295,,,,,,down,0,0.2427,,0.134259259,-0.080555563,1,0,0,0,179,179,41,1,maken,images/br_maken.png,images/cb_maken.png,0,,,,,,,,,,,,,,,,,,,,,,
,,,,,00111,2023-12-08_15h41.55.944,vbt_B2_day3,2022.2.4,Win32,60.15761295,,,,,,down,0,0.7867,,0.134259259,-0.080555563,1,0,0,0,180,180,104,1,zweven,images/br_zweven.png,images/cb_zweven.png,0,,,,,,,,,,,,,,,,,,,,,,
,,,,,00111,2023-12-08_15h41.55.944,vbt_B2_day3,2022.2.4,Win32,60.15761295,,,,,,down,0,1.3313,,0.134259259,-0.080555563,1,0,0,0,181,181,167,1,eenhoorn,images/br_eenhoorn.png,images/cb_eenhoorn.png,0,,,,,,,,,,,,,,,,,,,,,,
,,,,,00111,2023-12-08_15h41.55.944,vbt_B2_day3,2022.2.4,Win32,60.15761295,,,,,,down,0,0.3172,,0.134259259,-0.080555563,1,0,0,0,182,182,79,1,nodig,images/br_nodig.png,images/cb_nodig.png,0,,,,,,,,,,,,,,,,,,,,,,
,,,,,00111,2023-12-08_15h41.55.944,vbt_B2_day3,2022.2.4,Win32,60.15761295,,,,,,down,0,0.4964,,0.134259259,-0.080555563,1,0,0,0,183,183,87,1,toeval,images/br_toeval.png,images/cb_toeval.png,0,,,,,,,,,,,,,,,,,,,,,,
,,,,,00111,2023-12-08_15h41.55.944,vbt_B2_day3,2022.2.4,Win32,60.15761295,,,,,,down,0,2.3302,,0.134259259,-0.080555563,1,0,0,0,184,184,152,1,afnemen,images/br_afnemen.png,images/cb_afnemen.png,0,,,,,,,,,,,,,,,,,,,,,,
,,,,,00111,2023-12-08_15h41.55.944,vbt_B2_day3,2022.2.4,Win32,60.15761295,,,,,,down,0,0.3524,,0.134259259,-0.080555563,1,0,0,0,185,185,38,1,baai,images/br_baai.png,images/cb_baai.png,0,,,,,,,,,,,,,,,,,,,,,,
,,,,,00111,2023-12-08_15h41.55.944,vbt_B2_day3,2022.2.4,Win32,60.15761295,,,,,,down,0,0.5998,,0.134259259,-0.080555563,1,0,0,0,186,186,151,1,aanzoek,images/br_aanzoek.png,images/cb_aanzoek.png,0,,,,,,,,,,,,,,,,,,,,,,
,,,,,00111,2023-12-08_15h41.55.944,vbt_B2_day3,2022.2.4,Win32,60.15761295,,,,,,down,0,1.872400001,,0.134259259,-0.080555563,1,0,0,0,187,187,74,1,graaf,images/br_graaf.png,images/cb_graaf.png,0,,,,,,,,,,,,,,,,,,,,,,
,,,,,00111,2023-12-08_15h41.55.944,vbt_B2_day3,2022.2.4,Win32,60.15761295,,,,,,down,0,0.515,,0.134259259,-0.080555563,1,0,0,0,188,188,43,1,klauw,images/br_klauw.png,images/cb_klauw.png,0,,,,,,,,,,,,,,,,,,,,,,
,,,,,00111,2023-12-08_15h41.55.944,vbt_B2_day3,2022.2.4,Win32,60.15761295,,,,,,down,0,8.2713,,0.134259259,-0.080555563,1,0,0,0,189,189,88,1,boeien,images/br_boeien.png,images/cb_boeien.png,0,,,,,,,,,,,,,,,,,,,,,,
,,,,,00111,2023-12-08_15h41.55.944,vbt_B2_day3,2022.2.4,Win32,60.15761295,,,,,,down,0,7.5224,,0.134259259,-0.080555563,1,0,0,0,190,190,181,1,toegeven,images/br_toegeven.png,images/cb_toegeven.png,1,toegeven ,,,,,,,,,,,,,,,,,,,,,
,,,,,00111,2023-12-08_15h41.55.944,vbt_B2_day3,2022.2.4,Win32,60.15761295,,,,,,down,0,3.6267,,0.134259259,-0.080555563,1,0,0,0,191,191,105,1,wijlen,images/br_wijlen.png,images/cb_wijlen.png,0,,,,,,,,,,,,,,,,,,,,,,
,,,,,00111,2023-12-08_15h41.55.944,vbt_B2_day3,2022.2.4,Win32,60.15761295,,,,,,down,0,6.546299999,,0.134259259,-0.080555563,1,0,0,0,192,192,180,1,openbaar,images/br_openbaar.png,images/cb_openbaar.png,1,openbaar,,,,,,,,,,,,,,,,,,,,,
,,,,,00111,2023-12-08_15h41.55.944,vbt_B2_day3,2022.2.4,Win32,60.15761295,,,,,,down,0,1.5487,,0.134259259,-0.080555563,1,0,0,0,193,193,127,1,doodmoe,images/br_doodmoe.png,images/cb_doodmoe.png,0,,,,,,,,,,,,,,,,,,,,,,
,,,,,00111,2023-12-08_15h41.55.944,vbt_B2_day3,2022.2.4,Win32,60.15761295,,,,,,down,0,0.271099999,,0.134259259,-0.080555563,1,0,0,0,194,194,12,1,kust,images/br_kust.png,images/cb_kust.png,0,,,,,,,,,,,,,,,,,,,,,,
,,,,,00111,2023-12-08_15h41.55.944,vbt_B2_day3,2022.2.4,Win32,60.15761295,,,,,,down,0,2.7035,,0.134259259,-0.080555563,1,0,0,0,195,195,100,1,geduld,images/br_geduld.png,images/cb_geduld.png,1,geduld,,,,,,,,,,,,,,,,,,,,,
,,,,,00111,2023-12-08_15h41.55.944,vbt_B2_day3,2022.2.4,Win32,60.15761295,,,,,,down,0,0.271099999,,0.134259259,-0.080555563,1,0,0,0,196,196,132,1,grappen,images/br_grappen.png,images/cb_grappen.png,0,,,,,,,,,,,,,,,,,,,,,,
,,,,,00111,2023-12-08_15h41.55.944,vbt_B2_day3,2022.2.4,Win32,60.15761295,,,,,,down,0,0.5172,,0.134259259,-0.080555563,1,0,0,0,197,197,6,1,diep,images/br_diep.png,images/cb_diep.png,0,,,,,,,,,,,,,,,,,,,,,,
,,,,,00111,2023-12-08_15h41.55.944,vbt_B2_day3,2022.2.4,Win32,60.15761295,,,,,,down,0,4.0775,,0.134259259,-0.080555563,1,0,0,0,198,198,67,1,zwart,images/br_zwart.png,images/cb_zwart.png,0,,,,,,,,,,,,,,,,,,,,,,
,,,,,00111,2023-12-08_15h41.55.944,vbt_B2_day3,2022.2.4,Win32,60.15761295,,,,,,down,0,2.5474,,0.134259259,-0.080555563,1,0,0,0,199,199,70,1,ijdel,images/br_ijdel.png,images/cb_ijdel.png,0,,,,,,,,,,,,,,,,,,,,,,
,,,,,00111,2023-12-08_15h41.55.944,vbt_B2_day3,2022.2.4,Win32,60.15761295,,,,,,,,,,,,,,,,,,,,,,,,,0.134259259,-0.080555563,1,0,0,,,,,,,,,,,,,,,,
,,,,,00111,2023-12-08_15h41.55.944,vbt_B2_day3,2022.2.4,Win32,60.15761295,,,,,,,,,,,,,,,,,,,,,,,,,,,,,,0.134259259,-0.080555563,1,0,0,,,,,,,,,,,
,,,,,00111,2023-12-08_15h41.55.944,vbt_B2_day3,2022.2.4,Win32,60.15761295,,,,,,,,,,,,,,,,,,,,geluid,images/br_geluid.png,images/cb_geluid.png,,geleud,,,,,,,,,,,0.134259259,-0.080555563,1,0,0,geleud,0,0,0,10,1
,,,,,00111,2023-12-08_15h41.55.944,vbt_B2_day3,2022.2.4,Win32,60.15761295,,,,,,,,,,,,,,,,,,,,stoom,images/br_stoom.png,images/cb_stoom.png,,stoom,,,,,,,,,,,0.134259259,-0.080555563,1,0,0,stoom,0,1,1,6,1
,,,,,00111,2023-12-08_15h41.55.944,vbt_B2_day3,2022.2.4,Win32,60.15761295,,,,,,,,,,,,,,,,,,,,oprotten,images/br_oprotten.png,images/cb_oprotten.png,,oprotten,,,,,,,,,,,0.134259259,-0.080555563,1,0,0,oprotten,0,2,2,17,1
,,,,,00111,2023-12-08_15h41.55.944,vbt_B2_day3,2022.2.4,Win32,60.15761295,,,,,,,,,,,,,,,,,,,,samen,images/br_samen.png,images/cb_samen.png,,samen,,,,,,,,,,,0.134259259,-0.080555563,1,0,0,samen,0,3,3,7,1
,,,,,00111,2023-12-08_15h41.55.944,vbt_B2_day3,2022.2.4,Win32,60.15761295,,,,,,,,,,,,,,,,,,,,opzetten,images/br_opzetten.png,images/cb_opzetten.png,,opzetten,,,,,,,,,,,0.134259259,-0.080555563,1,0,0,opzetten,0,4,4,56,1
,,,,,00111,2023-12-08_15h41.55.944,vbt_B2_day3,2022.2.4,Win32,60.15761295,,,,,,,,,,,,,,,,,,,,verwoor,images/br_verwoor.png,images/cb_verwoor.png,,verwaar,,,,,,,,,,,0.134259259,-0.080555563,1,0,0,verwaar,0,5,5,32,1
,,,,,00111,2023-12-08_15h41.55.944,vbt_B2_day3,2022.2.4,Win32,60.15761295,,,,,,,,,,,,,,,,,,,,makieren,images/br_makieren.png,images/cb_makieren.png,,makieren,,,,,,,,,,,0.134259259,-0.080555563,1,0,0,makieren,0,6,6,36,1
,,,,,00111,2023-12-08_15h41.55.944,vbt_B2_day3,2022.2.4,Win32,60.15761295,,,,,,,,,,,,,,,,,,,,keihard,images/br_keihard.png,images/cb_keihard.png,,keih...,,,,,,,,,,,0.134259259,-0.080555563,1,0,0,keih...,0,7,7,14,1
,,,,,00111,2023-12-08_15h41.55.944,vbt_B2_day3,2022.2.4,Win32,60.15761295,,,,,,,,,,,,,,,,,,,,bisschop,images/br_bisschop.png,images/cb_bisschop.png,,bisshop,,,,,,,,,,,0.134259259,-0.080555563,1,0,0,bisshop,0,8,8,16,1
,,,,,00111,2023-12-08_15h41.55.944,vbt_B2_day3,2022.2.4,Win32,60.15761295,,,,,,,,,,,,,,,,,,,,schodel,images/br_schodel.png,images/cb_schodel.png,,schodel,,,,,,,,,,,0.134259259,-0.080555563,1,0,0,schodel,0,9,9,33,1
,,,,,00111,2023-12-08_15h41.55.944,vbt_B2_day3,2022.2.4,Win32,60.15761295,,,,,,,,,,,,,,,,,,,,stikken,images/br_stikken.png,images/cb_stikken.png,,stikken,,,,,,,,,,,0.134259259,-0.080555563,1,0,0,stikken,0,10,10,54,1
,,,,,00111,2023-12-08_15h41.55.944,vbt_B2_day3,2022.2.4,Win32,60.15761295,,,,,,,,,,,,,,,,,,,,schatten,images/br_schatten.png,images/cb_schatten.png,,schatten,,,,,,,,,,,0.134259259,-0.080555563,1,0,0,schatten,0,11,11,18,1
,,,,,00111,2023-12-08_15h41.55.944,vbt_B2_day3,2022.2.4,Win32,60.15761295,,,,,,,,,,,,,,,,,,,,onrecht,images/br_onrecht.png,images/cb_onrecht.png,,onrecht,,,,,,,,,,,0.134259259,-0.080555563,1,0,0,onrecht,0,12,12,55,1
,,,,,00111,2023-12-08_15h41.55.944,vbt_B2_day3,2022.2.4,Win32,60.15761295,,,,,,,,,,,,,,,,,,,,boeien,images/br_boeien.png,images/cb_boeien.png,,boeien,,,,,,,,,,,0.134259259,-0.080555563,1,0,0,boeien,0,13,13,8,1
,,,,,00111,2023-12-08_15h41.55.944,vbt_B2_day3,2022.2.4,Win32,60.15761295,,,,,,,,,,,,,,,,,,,,glijden,images/br_glijden.png,images/cb_glijden.png,,glijden,,,,,,,,,,,0.134259259,-0.080555563,1,0,0,glijden,0,14,14,53,1
,,,,,00111,2023-12-08_15h41.55.944,vbt_B2_day3,2022.2.4,Win32,60.15761295,,,,,,,,,,,,,,,,,,,,kest,images/br_kest.png,images/cb_kest.png,,kest,,,,,,,,,,,0.134259259,-0.080555563,1,0,0,kest,0,15,15,21,1
,,,,,00111,2023-12-08_15h41.55.944,vbt_B2_day3,2022.2.4,Win32,60.15761295,,,,,,,,,,,,,,,,,,,,stallen,images/br_stallen.png,images/cb_stallen.png,,stallen,,,,,,,,,,,0.134259259,-0.080555563,1,0,0,stallen,0,16,16,52,1
,,,,,00111,2023-12-08_15h41.55.944,vbt_B2_day3,2022.2.4,Win32,60.15761295,,,,,,,,,,,,,,,,,,,,opzicht,images/br_opzicht.png,images/cb_opzicht.png,,opzicht,,,,,,,,,,,0.134259259,-0.080555563,1,0,0,opzicht,0,17,17,15,1
,,,,,00111,2023-12-08_15h41.55.944,vbt_B2_day3,2022.2.4,Win32,60.15761295,,,,,,,,,,,,,,,,,,,,aarzelen,images/br_aarzelen.png,images/cb_aarzelen.png,,aarzelen,,,,,,,,,,,0.134259259,-0.080555563,1,0,0,aarzelen,0,18,18,19,1
,,,,,00111,2023-12-08_15h41.55.944,vbt_B2_day3,2022.2.4,Win32,60.15761295,,,,,,,,,,,,,,,,,,,,uniek,images/br_uniek.png,images/cb_uniek.png,,uniek,,,,,,,,,,,0.134259259,-0.080555563,1,0,0,uniek,0,19,19,46,1
,,,,,00111,2023-12-08_15h41.55.944,vbt_B2_day3,2022.2.4,Win32,60.15761295,,,,,,,,,,,,,,,,,,,,croo,images/br_croo.png,images/cb_croo.png,,croo,,,,,,,,,,,0.134259259,-0.080555563,1,0,0,croo,0,20,20,22,1
,,,,,00111,2023-12-08_15h41.55.944,vbt_B2_day3,2022.2.4,Win32,60.15761295,,,,,,,,,,,,,,,,,,,,twaaf,images/br_twaaf.png,images/cb_twaaf.png,,twaaf,,,,,,,,,,,0.134259259,-0.080555563,1,0,0,twaaf,0,21,21,24,1
,,,,,00111,2023-12-08_15h41.55.944,vbt_B2_day3,2022.2.4,Win32,60.15761295,,,,,,,,,,,,,,,,,,,,gezond,images/br_gezond.png,images/cb_gezond.png,,gezond,,,,,,,,,,,0.134259259,-0.080555563,1,0,0,gezond,0,22,22,11,1
,,,,,00111,2023-12-08_15h41.55.944,vbt_B2_day3,2022.2.4,Win32,60.15761295,,,,,,,,,,,,,,,,,,,,hust,images/br_hust.png,images/cb_hust.png,,hust,,,,,,,,,,,0.134259259,-0.080555563,1,0,0,hust,0,23,23,23,1
,,,,,00111,2023-12-08_15h41.55.944,vbt_B2_day3,2022.2.4,Win32,60.15761295,,,,,,,,,,,,,,,,,,,,verhaal,images/br_verhaal.png,images/cb_verhaal.png,,verhaal,,,,,,,,,,,0.134259259,-0.080555563,1,0,0,verhaal,0,24,24,13,1
,,,,,00111,2023-12-08_15h41.55.944,vbt_B2_day3,2022.2.4,Win32,60.15761295,,,,,,,,,,,,,,,,,,,,steel,images/br_steel.png,images/cb_steel.png,,steel,,,,,,,,,,,0.134259259,-0.080555563,1,0,0,steel,0,25,25,4,1
,,,,,00111,2023-12-08_15h41.55.944,vbt_B2_day3,2022.2.4,Win32,60.15761295,,,,,,,,,,,,,,,,,,,,kaas,images/br_kaas.png,images/cb_kaas.png,,kaas,,,,,,,,,,,0.134259259,-0.080555563,1,0,0,kaas,0,26,26,42,1
,,,,,00111,2023-12-08_15h41.55.944,vbt_B2_day3,2022.2.4,Win32,60.15761295,,,,,,,,,,,,,,,,,,,,sultan,images/br_sultan.png,images/cb_sultan.png,,sultan,,,,,,,,,,,0.134259259,-0.080555563,1,0,0,sultan,0,27,27,49,1
,,,,,00111,2023-12-08_15h41.55.944,vbt_B2_day3,2022.2.4,Win32,60.15761295,,,,,,,,,,,,,,,,,,,,slapen,images/br_slapen.png,images/cb_slapen.png,,slapen,,,,,,,,,,,0.134259259,-0.080555563,1,0,0,slapen,0,28,28,9,1
,,,,,00111,2023-12-08_15h41.55.944,vbt_B2_day3,2022.2.4,Win32,60.15761295,,,,,,,,,,,,,,,,,,,,uviek,images/br_uviek.png,images/cb_uviek.png,,uviek,,,,,,,,,,,0.134259259,-0.080555563,1,0,0,uviek,0,29,29,25,1
,,,,,00111,2023-12-08_15h41.55.944,vbt_B2_day3,2022.2.4,Win32,60.15761295,,,,,,,,,,,,,,,,,,,,jongelui,images/br_jongelui.png,images/cb_jongelui.png,,jongelen,,,,,,,,,,,0.134259259,-0.080555563,1,0,0,jongelen,0,30,30,59,1
,,,,,00111,2023-12-08_15h41.55.944,vbt_B2_day3,2022.2.4,Win32,60.15761295,,,,,,,,,,,,,,,,,,,,prikken,images/br_prikken.png,images/cb_prikken.png,,prikken,,,,,,,,,,,0.134259259,-0.080555563,1,0,0,prikken,0,31,31,12,1
,,,,,00111,2023-12-08_15h41.55.944,vbt_B2_day3,2022.2.4,Win32,60.15761295,,,,,,,,,,,,,,,,,,,,begrip,images/br_begrip.png,images/cb_begrip.png,,begrip,,,,,,,,,,,0.134259259,-0.080555563,1,0,0,begrip,0,32,32,48,1
,,,,,00111,2023-12-08_15h41.55.944,vbt_B2_day3,2022.2.4,Win32,60.15761295,,,,,,,,,,,,,,,,,,,,laken,images/br_laken.png,images/cb_laken.png,,laken,,,,,,,,,,,0.134259259,-0.080555563,1,0,0,laken,0,33,33,5,1
,,,,,00111,2023-12-08_15h41.55.944,vbt_B2_day3,2022.2.4,Win32,60.15761295,,,,,,,,,,,,,,,,,,,,leugeren,images/br_leugeren.png,images/cb_leugeren.png,,leugeren,,,,,,,,,,,0.134259259,-0.080555563,1,0,0,leugeren,0,34,34,37,1
,,,,,00111,2023-12-08_15h41.55.944,vbt_B2_day3,2022.2.4,Win32,60.15761295,,,,,,,,,,,,,,,,,,,,brappen,images/br_brappen.png,images/cb_brappen.png,,brappen,,,,,,,,,,,0.134259259,-0.080555563,1,0,0,brappen,0,35,35,35,1
,,,,,00111,2023-12-08_15h41.55.944,vbt_B2_day3,2022.2.4,Win32,60.15761295,,,,,,,,,,,,,,,,,,,,leemaken,images/br_leemaken.png,images/cb_leemaken.png,,leem...,,,,,,,,,,,0.134259259,-0.080555563,1,0,0,leem...,0,36,36,39,1
,,,,,00111,2023-12-08_15h41.55.944,vbt_B2_day3,2022.2.4,Win32,60.15761295,,,,,,,,,,,,,,,,,,,,leek,images/br_leek.png,images/cb_leek.png,,leek,,,,,,,,,,,0.134259259,-0.080555563,1,0,0,leek,0,37,37,2,1
,,,,,00111,2023-12-08_15h41.55.944,vbt_B2_day3,2022.2.4,Win32,60.15761295,,,,,,,,,,,,,,,,,,,,eens,images/br_eens.png,images/cb_eens.png,,eens,,,,,,,,,,,0.134259259,-0.080555563,1,0,0,eens,0,38,38,40,1
,,,,,00111,2023-12-08_15h41.55.944,vbt_B2_day3,2022.2.4,Win32,60.15761295,,,,,,,,,,,,,,,,,,,,kwaas,images/br_kwaas.png,images/cb_kwaas.png,,kwaas,,,,,,,,,,,0.134259259,-0.080555563,1,0,0,kwaas,0,39,39,26,1
,,,,,00111,2023-12-08_15h41.55.944,vbt_B2_day3,2022.2.4,Win32,60.15761295,,,,,,,,,,,,,,,,,,,,hint,images/br_hint.png,images/cb_hint.png,,hint,,,,,,,,,,,0.134259259,-0.080555563,1,0,0,hint,0,40,40,43,1
,,,,,00111,2023-12-08_15h41.55.944,vbt_B2_day3,2022.2.4,Win32,60.15761295,,,,,,,,,,,,,,,,,,,,alsof,images/br_alsof.png,images/cb_alsof.png,,alsof,,,,,,,,,,,0.134259259,-0.080555563,1,0,0,alsof,0,41,41,44,1
,,,,,00111,2023-12-08_15h41.55.944,vbt_B2_day3,2022.2.4,Win32,60.15761295,,,,,,,,,,,,,,,,,,,,beslag,images/br_beslag.png,images/cb_beslag.png,,beslag,,,,,,,,,,,0.134259259,-0.080555563,1,0,0,beslag,0,42,42,51,1
,,,,,00111,2023-12-08_15h41.55.944,vbt_B2_day3,2022.2.4,Win32,60.15761295,,,,,,,,,,,,,,,,,,,,booien,images/br_booien.png,images/cb_booien.png,,booien,,,,,,,,,,,0.314814815,-0.065740762,1,0,0,booien,0,43,43,31,1
,,,,,00111,2023-12-08_15h41.55.944,vbt_B2_day3,2022.2.4,Win32,60.15761295,,,,,,,,,,,,,,,,,,,,gout,images/br_gout.png,images/cb_gout.png,,gout,,,,,,,,,,,0.314814815,-0.065740762,1,0,0,gout,0,44,44,20,1
,,,,,00111,2023-12-08_15h41.55.944,vbt_B2_day3,2022.2.4,Win32,60.15761295,,,,,,,,,,,,,,,,,,,,verraden,images/br_verraden.png,images/cb_verraden.png,,verraden,,,,,,,,,,,0.314814815,-0.065740762,1,0,0,verraden,0,45,45,58,1
,,,,,00111,2023-12-08_15h41.55.944,vbt_B2_day3,2022.2.4,Win32,60.15761295,,,,,,,,,,,,,,,,,,,,hier,images/br_hier.png,images/cb_hier.png,,hier,,,,,,,,,,,0.314814815,-0.065740762,1,0,0,hier,0,46,46,1,1
,,,,,00111,2023-12-08_15h41.55.944,vbt_B2_day3,2022.2.4,Win32,60.15761295,,,,,,,,,,,,,,,,,,,,theeting,images/br_theeting.png,images/cb_theeting.png,,theeting,,,,,,,,,,,0.314814815,-0.065740762,1,0,0,theeting,0,47,47,38,1
,,,,,00111,2023-12-08_15h41.55.944,vbt_B2_day3,2022.2.4,Win32,60.15761295,,,,,,,,,,,,,,,,,,,,mugeek,images/br_mugeek.png,images/cb_mugeek.png,,mugeek,,,,,,,,,,,0.314814815,-0.065740762,1,0,0,mugeek,0,48,48,29,1
,,,,,00111,2023-12-08_15h41.55.944,vbt_B2_day3,2022.2.4,Win32,60.15761295,,,,,,,,,,,,,,,,,,,,zone,images/br_zone.png,images/cb_zone.png,,zone,,,,,,,,,,,0.314814815,-0.065740762,1,0,0,zone,0,49,49,41,1
,,,,,00111,2023-12-08_15h41.55.944,vbt_B2_day3,2022.2.4,Win32,60.15761295,,,,,,,,,,,,,,,,,,,,invallen,images/br_invallen.png,images/cb_invallen.png,,invallen,,,,,,,,,,,0.314814815,-0.065740762,1,0,0,invallen,0,50,50,57,1
,,,,,00111,2023-12-08_15h41.55.944,vbt_B2_day3,2022.2.4,Win32,60.15761295,,,,,,,,,,,,,,,,,,,,paken,images/br_paken.png,images/cb_paken.png,,paken,,,,,,,,,,,0.314814815,-0.065740762,1,0,0,paken,0,51,51,27,1
,,,,,00111,2023-12-08_15h41.55.944,vbt_B2_day3,2022.2.4,Win32,60.15761295,,,,,,,,,,,,,,,,,,,,gebod,images/br_gebod.png,images/cb_gebod.png,,gebod,,,,,,,,,,,0.314814815,-0.065740762,1,0,0,gebod,0,52,52,45,1
,,,,,00111,2023-12-08_15h41.55.944,vbt_B2_day3,2022.2.4,Win32,60.15761295,,,,,,,,,,,,,,,,,,,,sluier,images/br_sluier.png,images/cb_sluier.png,,sluier,,,,,,,,,,,0.314814815,-0.065740762,1,0,0,sluier,0,53,53,50,1
,,,,,00111,2023-12-08_15h41.55.944,vbt_B2_day3,2022.2.4,Win32,60.15761295,,,,,,,,,,,,,,,,,,,,dwang,images/br_dwang.png,images/cb_dwang.png,,dwang,,,,,,,,,,,0.314814815,-0.065740762,1,0,0,dwang,0,54,54,47,1
,,,,,00111,2023-12-08_15h41.55.944,vbt_B2_day3,2022.2.4,Win32,60.15761295,,,,,,,,,,,,,,,,,,,,afbopen,images/br_afbopen.png,images/cb_afbopen.png,,afboden,,,,,,,,,,,0.314814815,-0.065740762,1,0,0,afboden,0,55,55,34,1
,,,,,00111,2023-12-08_15h41.55.944,vbt_B2_day3,2022.2.4,Win32,60.15761295,,,,,,,,,,,,,,,,,,,,vlager,images/br_vlager.png,images/cb_vlager.png,,vlager,,,,,,,,,,,0.314814815,-0.065740762,1,0,0,vlager,0,56,56,28,1
,,,,,00111,2023-12-08_15h41.55.944,vbt_B2_day3,2022.2.4,Win32,60.15761295,,,,,,,,,,,,,,,,,,,,bevret,images/br_bevret.png,images/cb_bevret.png,,bevret,,,,,,,,,,,0.314814815,-0.065740762,1,0,0,bevret,0,57,57,30,1
,,,,,00111,2023-12-08_15h41.55.944,vbt_B2_day3,2022.2.4,Win32,60.15761295,,,,,,,,,,,,,,,,,,,,knie,images/br_knie.png,images/cb_knie.png,,knie,,,,,,,,,,,0.314814815,-0.065740762,1,0,0,knie,0,58,58,0,1
,,,,,00111,2023-12-08_15h41.55.944,vbt_B2_day3,2022.2.4,Win32,60.15761295,,,,,,,,,,,,,,,,,,,,mode,images/br_mode.png,images/cb_mode.png,,mode,,,,,,,,,,,0.314814815,-0.065740762,1,0,0,mode,0,59,59,3,1
,,,,,00111,2023-12-08_15h41.55.944,vbt_B2_day3,2022.2.4,Win32,60.15761295,,,,,,,,,,,,,,,,,,,,,,,,,,,,,,,,,,,,,,,,,,,,,
