welcome_mouse.x,welcome_mouse.y,welcome_mouse.leftButton,welcome_mouse.midButton,welcome_mouse.rightButton,"ID",date,expName,psychopyVersion,OS,frameRate,trainInstr_mouse.x,trainInstr_mouse.y,trainInstr_mouse.leftButton,trainInstr_mouse.midButton,trainInstr_mouse.rightButton,translation_key.keys,translation_key.corr,translation_key.rt,word_rsp.text,trWrd_mouse.x,trWrd_mouse.y,trWrd_mouse.leftButton,trWrd_mouse.midButton,trWrd_mouse.rightButton,train_loop.thisRepN,train_loop.thisTrialN,train_loop.thisN,train_loop.thisIndex,train_loop.ran,nlWrd,brWrd,cbWrd,test,testResp,mouse.x,mouse.y,mouse.leftButton,mouse.midButton,mouse.rightButton,testInstr_mouse.x,testInstr_mouse.y,testInstr_mouse.leftButton,testInstr_mouse.midButton,testInstr_mouse.rightButton,test_mouse.x,test_mouse.y,test_mouse.leftButton,test_mouse.midButton,test_mouse.rightButton,test_response.text,test_loop.thisRepN,test_loop.thisTrialN,test_loop.thisN,test_loop.thisIndex,test_loop.ran
-0.050000014,-0.111111111,1,0,0,00093,2023-11-04_13h03.37.289,vbt_B2_day3,2022.2.4,Win32,60.00960154,,,,,,,,,,,,,,,,,,,,,,,,,,,,,,,,,,,,,,,,,,,,,
,,,,,00093,2023-11-04_13h03.37.289,vbt_B2_day3,2022.2.4,Win32,60.00960154,-0.050000014,-0.111111111,1,0,0,,,,,,,,,,,,,,,,,,,,,,,,,,,,,,,,,,,,,,,,
,,,,,00093,2023-11-04_13h03.37.289,vbt_B2_day3,2022.2.4,Win32,60.00960154,,,,,,down,0,2.9287,,-0.050000014,-0.111111111,1,0,0,0,0,0,122,1,waarvan,images/br_waarvan.png,images/cb_waarvan.png,0,,,,,,,,,,,,,,,,,,,,,,
,,,,,00093,2023-11-04_13h03.37.289,vbt_B2_day3,2022.2.4,Win32,60.00960154,,,,,,down,0,2.85,,-0.050000014,-0.111111111,1,0,0,0,1,1,169,1,oprotten,images/br_oprotten.png,images/cb_oprotten.png,0,,,,,,,,,,,,,,,,,,,,,,
,,,,,00093,2023-11-04_13h03.37.289,vbt_B2_day3,2022.2.4,Win32,60.00960154,,,,,,down,0,2.2677,,-0.050000014,-0.111111111,1,0,0,0,2,2,28,1,stal,images/br_stal.png,images/cb_stal.png,0,,,,,,,,,,,,,,,,,,,,,,
,,,,,00093,2023-11-04_13h03.37.289,vbt_B2_day3,2022.2.4,Win32,60.00960154,,,,,,down,0,1.477,,-0.050000014,-0.111111111,1,0,0,0,3,3,97,1,loyaal,images/br_loyaal.png,images/cb_loyaal.png,0,,,,,,,,,,,,,,,,,,,,,,
,,,,,00093,2023-11-04_13h03.37.289,vbt_B2_day3,2022.2.4,Win32,60.00960154,,,,,,down,0,0.3009,,-0.050000014,-0.111111111,1,0,0,0,4,4,121,1,twijfel,images/br_twijfel.png,images/cb_twijfel.png,0,,,,,,,,,,,,,,,,,,,,,,
,,,,,00093,2023-11-04_13h03.37.289,vbt_B2_day3,2022.2.4,Win32,60.00960154,,,,,,down,0,0.1181,,-0.050000014,-0.111111111,1,0,0,0,5,5,17,1,taal,images/br_taal.png,images/cb_taal.png,0,,,,,,,,,,,,,,,,,,,,,,
,,,,,00093,2023-11-04_13h03.37.289,vbt_B2_day3,2022.2.4,Win32,60.00960154,,,,,,down,0,2.7072,,-0.050000014,-0.111111111,1,0,0,0,6,6,154,1,aflopen,images/br_aflopen.png,images/cb_aflopen.png,0,,,,,,,,,,,,,,,,,,,,,,
,,,,,00093,2023-11-04_13h03.37.289,vbt_B2_day3,2022.2.4,Win32,60.00960154,,,,,,down,0,2.8162,,-0.050000014,-0.111111111,1,0,0,0,7,7,151,1,aanzoek,images/br_aanzoek.png,images/cb_aanzoek.png,0,,,,,,,,,,,,,,,,,,,,,,
,,,,,00093,2023-11-04_13h03.37.289,vbt_B2_day3,2022.2.4,Win32,60.00960154,,,,,,down,0,2.5553,,-0.050000014,-0.111111111,1,0,0,0,8,8,87,1,toeval,images/br_toeval.png,images/cb_toeval.png,0,,,,,,,,,,,,,,,,,,,,,,
,,,,,00093,2023-11-04_13h03.37.289,vbt_B2_day3,2022.2.4,Win32,60.00960154,,,,,,down,0,3.7699,,-0.050000014,-0.111111111,1,0,0,0,9,9,187,1,opkijken,images/br_opkijken.png,images/cb_opkijken.png,0,,,,,,,,,,,,,,,,,,,,,,
,,,,,00093,2023-11-04_13h03.37.289,vbt_B2_day3,2022.2.4,Win32,60.00960154,,,,,,down,0,4.3864,,-0.050000014,-0.111111111,1,0,0,0,10,10,150,1,gegeven,images/br_gegeven.png,images/cb_gegeven.png,0,,,,,,,,,,,,,,,,,,,,,,
,,,,,00093,2023-11-04_13h03.37.289,vbt_B2_day3,2022.2.4,Win32,60.00960154,,,,,,down,0,31.3995,,-0.050000014,-0.111111111,1,0,0,0,11,11,128,1,prikken,images/br_prikken.png,images/cb_prikken.png,0,,,,,,,,,,,,,,,,,,,,,,
,,,,,00093,2023-11-04_13h03.37.289,vbt_B2_day3,2022.2.4,Win32,60.00960154,,,,,,down,0,0.6049,,-0.050000014,-0.111111111,1,0,0,0,12,12,37,1,mijn,images/br_mijn.png,images/cb_mijn.png,0,,,,,,,,,,,,,,,,,,,,,,
,,,,,00093,2023-11-04_13h03.37.289,vbt_B2_day3,2022.2.4,Win32,60.00960154,,,,,,down,0,5.7938,,-0.050000014,-0.111111111,1,0,0,0,13,13,185,1,mijnheer,images/br_mijnheer.png,images/cb_mijnheer.png,0,,,,,,,,,,,,,,,,,,,,,,
,,,,,00093,2023-11-04_13h03.37.289,vbt_B2_day3,2022.2.4,Win32,60.00960154,,,,,,down,0,2.4873,,-0.050000014,-0.111111111,1,0,0,0,14,14,98,1,kreeft,images/br_kreeft.png,images/cb_kreeft.png,0,,,,,,,,,,,,,,,,,,,,,,
,,,,,00093,2023-11-04_13h03.37.289,vbt_B2_day3,2022.2.4,Win32,60.00960154,,,,,,down,0,7.1729,,-0.050000014,-0.111111111,1,0,0,0,15,15,72,1,strak,images/br_strak.png,images/cb_strak.png,0,,,,,,,,,,,,,,,,,,,,,,
,,,,,00093,2023-11-04_13h03.37.289,vbt_B2_day3,2022.2.4,Win32,60.00960154,,,,,,down,0,2.7433,,-0.050000014,-0.111111111,1,0,0,0,16,16,175,1,heengaan,images/br_heengaan.png,images/cb_heengaan.png,0,,,,,,,,,,,,,,,,,,,,,,
,,,,,00093,2023-11-04_13h03.37.289,vbt_B2_day3,2022.2.4,Win32,60.00960154,,,,,,down,0,0.3438,,-0.050000014,-0.111111111,1,0,0,0,17,17,50,1,stoom,images/br_stoom.png,images/cb_stoom.png,0,,,,,,,,,,,,,,,,,,,,,,
,,,,,00093,2023-11-04_13h03.37.289,vbt_B2_day3,2022.2.4,Win32,60.00960154,,,,,,down,0,3.2375,,-0.050000014,-0.111111111,1,0,0,0,18,18,190,1,goedkoop,images/br_goedkoop.png,images/cb_goedkoop.png,0,,,,,,,,,,,,,,,,,,,,,,
,,,,,00093,2023-11-04_13h03.37.289,vbt_B2_day3,2022.2.4,Win32,60.00960154,,,,,,down,0,4.9684,,-0.050000014,-0.111111111,1,0,0,0,19,19,24,1,jurk,images/br_jurk.png,images/cb_jurk.png,0,,,,,,,,,,,,,,,,,,,,,,
,,,,,00093,2023-11-04_13h03.37.289,vbt_B2_day3,2022.2.4,Win32,60.00960154,,,,,,down,0,0.6093,,-0.050000014,-0.111111111,1,0,0,0,20,20,7,1,geld,images/br_geld.png,images/cb_geld.png,0,,,,,,,,,,,,,,,,,,,,,,
,,,,,00093,2023-11-04_13h03.37.289,vbt_B2_day3,2022.2.4,Win32,60.00960154,,,,,,down,0,2.77,,-0.050000014,-0.111111111,1,0,0,0,21,21,57,1,steek,images/br_steek.png,images/cb_steek.png,0,,,,,,,,,,,,,,,,,,,,,,
,,,,,00093,2023-11-04_13h03.37.289,vbt_B2_day3,2022.2.4,Win32,60.00960154,,,,,,down,0,1.4384,,-0.050000014,-0.111111111,1,0,0,0,22,22,51,1,samen,images/br_samen.png,images/cb_samen.png,0,,,,,,,,,,,,,,,,,,,,,,
,,,,,00093,2023-11-04_13h03.37.289,vbt_B2_day3,2022.2.4,Win32,60.00960154,,,,,,down,0,5.8848,,-0.050000014,-0.111111111,1,0,0,0,23,23,144,1,eetlust,images/br_eetlust.png,images/cb_eetlust.png,0,,,,,,,,,,,,,,,,,,,,,,
,,,,,00093,2023-11-04_13h03.37.289,vbt_B2_day3,2022.2.4,Win32,60.00960154,,,,,,down,0,0.6174,,-0.050000014,-0.111111111,1,0,0,0,24,24,10,1,leek,images/br_leek.png,images/cb_leek.png,0,,,,,,,,,,,,,,,,,,,,,,
,,,,,00093,2023-11-04_13h03.37.289,vbt_B2_day3,2022.2.4,Win32,60.00960154,,,,,,down,0,6.0672,,-0.050000014,-0.111111111,1,0,0,0,25,25,110,1,zuster,images/br_zuster.png,images/cb_zuster.png,0,,,,,,,,,,,,,,,,,,,,,,
,,,,,00093,2023-11-04_13h03.37.289,vbt_B2_day3,2022.2.4,Win32,60.00960154,,,,,,down,0,1.1174,,-0.050000014,-0.111111111,1,0,0,0,26,26,132,1,grappen,images/br_grappen.png,images/cb_grappen.png,0,,,,,,,,,,,,,,,,,,,,,,
,,,,,00093,2023-11-04_13h03.37.289,vbt_B2_day3,2022.2.4,Win32,60.00960154,,,,,,down,0,3.1837,,-0.050000014,-0.111111111,1,0,0,0,27,27,166,1,strikken,images/br_strikken.png,images/cb_strikken.png,0,,,,,,,,,,,,,,,,,,,,,,
,,,,,00093,2023-11-04_13h03.37.289,vbt_B2_day3,2022.2.4,Win32,60.00960154,,,,,,down,0,18.1998,,-0.050000014,-0.111111111,1,0,0,0,28,28,180,1,openbaar,images/br_openbaar.png,images/cb_openbaar.png,1,openbaar,,,,,,,,,,,,,,,,,,,,,
,,,,,00093,2023-11-04_13h03.37.289,vbt_B2_day3,2022.2.4,Win32,60.00960154,,,,,,down,0,4.7147,,-0.050000014,-0.111111111,1,0,0,0,29,29,134,1,geliefd,images/br_geliefd.png,images/cb_geliefd.png,0,,,,,,,,,,,,,,,,,,,,,,
,,,,,00093,2023-11-04_13h03.37.289,vbt_B2_day3,2022.2.4,Win32,60.00960154,,,,,,down,0,4.2668,,-0.050000014,-0.111111111,1,0,0,0,30,30,88,1,boeien,images/br_boeien.png,images/cb_boeien.png,0,,,,,,,,,,,,,,,,,,,,,,
,,,,,00093,2023-11-04_13h03.37.289,vbt_B2_day3,2022.2.4,Win32,60.00960154,,,,,,down,0,4.2831,,-0.050000014,-0.111111111,1,0,0,0,31,31,105,1,wijlen,images/br_wijlen.png,images/cb_wijlen.png,0,,,,,,,,,,,,,,,,,,,,,,
,,,,,00093,2023-11-04_13h03.37.289,vbt_B2_day3,2022.2.4,Win32,60.00960154,,,,,,down,0,1.26,,-0.050000014,-0.111111111,1,0,0,0,32,32,21,1,mist,images/br_mist.png,images/cb_mist.png,1,mist,,,,,,,,,,,,,,,,,,,,,
,,,,,00093,2023-11-04_13h03.37.289,vbt_B2_day3,2022.2.4,Win32,60.00960154,,,,,,down,0,5.1203,,-0.050000014,-0.111111111,1,0,0,0,33,33,96,1,slagen,images/br_slagen.png,images/cb_slagen.png,0,,,,,,,,,,,,,,,,,,,,,,
,,,,,00093,2023-11-04_13h03.37.289,vbt_B2_day3,2022.2.4,Win32,60.00960154,,,,,,down,0,1.7666,,-0.050000014,-0.111111111,1,0,0,0,34,34,6,1,diep,images/br_diep.png,images/cb_diep.png,0,,,,,,,,,,,,,,,,,,,,,,
,,,,,00093,2023-11-04_13h03.37.289,vbt_B2_day3,2022.2.4,Win32,60.00960154,,,,,,down,0,1.3311,,-0.050000014,-0.111111111,1,0,0,0,35,35,53,1,baron,images/br_baron.png,images/cb_baron.png,0,,,,,,,,,,,,,,,,,,,,,,
,,,,,00093,2023-11-04_13h03.37.289,vbt_B2_day3,2022.2.4,Win32,60.00960154,,,,,,down,0,1.5992,,-0.050000014,-0.111111111,1,0,0,0,36,36,25,1,plek,images/br_plek.png,images/cb_plek.png,0,,,,,,,,,,,,,,,,,,,,,,
,,,,,00093,2023-11-04_13h03.37.289,vbt_B2_day3,2022.2.4,Win32,60.00960154,,,,,,down,0,1.4338,,-0.050000014,-0.111111111,1,0,0,0,37,37,136,1,waarbij,images/br_waarbij.png,images/cb_waarbij.png,0,,,,,,,,,,,,,,,,,,,,,,
,,,,,00093,2023-11-04_13h03.37.289,vbt_B2_day3,2022.2.4,Win32,60.00960154,,,,,,down,0,4.7249,,-0.050000014,-0.111111111,1,0,0,0,38,38,76,1,afval,images/br_afval.png,images/cb_afval.png,0,,,,,,,,,,,,,,,,,,,,,,
,,,,,00093,2023-11-04_13h03.37.289,vbt_B2_day3,2022.2.4,Win32,60.00960154,,,,,,down,0,18.623,,-0.037037037,-0.076851845,1,0,0,0,39,39,162,1,uitdelen,images/br_uitdelen.png,images/cb_uitdelen.png,0,,,,,,,,,,,,,,,,,,,,,,
,,,,,00093,2023-11-04_13h03.37.289,vbt_B2_day3,2022.2.4,Win32,60.00960154,,,,,,down,0,5.0874,,-0.037037037,-0.076851845,1,0,0,0,40,40,104,1,zweven,images/br_zweven.png,images/cb_zweven.png,0,,,,,,,,,,,,,,,,,,,,,,
,,,,,00093,2023-11-04_13h03.37.289,vbt_B2_day3,2022.2.4,Win32,60.00960154,,,,,,down,0,0.885,,-0.037037037,-0.076851845,1,0,0,0,41,41,18,1,blik,images/br_blik.png,images/cb_blik.png,0,,,,,,,,,,,,,,,,,,,,,,
,,,,,00093,2023-11-04_13h03.37.289,vbt_B2_day3,2022.2.4,Win32,60.00960154,,,,,,down,0,12.1992,,-0.037037037,-0.076851845,1,0,0,0,42,42,193,1,weeshuis,images/br_weeshuis.png,images/cb_weeshuis.png,0,,,,,,,,,,,,,,,,,,,,,,
,,,,,00093,2023-11-04_13h03.37.289,vbt_B2_day3,2022.2.4,Win32,60.00960154,,,,,,down,0,5.6913,,-0.037037037,-0.076851845,1,0,0,0,43,43,63,1,flirt,images/br_flirt.png,images/cb_flirt.png,1,flirt,,,,,,,,,,,,,,,,,,,,,
,,,,,00093,2023-11-04_13h03.37.289,vbt_B2_day3,2022.2.4,Win32,60.00960154,,,,,,down,0,2.0592,,-0.037037037,-0.076851845,1,0,0,0,44,44,115,1,kleren,images/br_kleren.png,images/cb_kleren.png,0,,,,,,,,,,,,,,,,,,,,,,
,,,,,00093,2023-11-04_13h03.37.289,vbt_B2_day3,2022.2.4,Win32,60.00960154,,,,,,down,0,6.087,,-0.037037037,-0.076851845,1,0,0,0,45,45,94,1,oceaan,images/br_oceaan.png,images/cb_oceaan.png,0,,,,,,,,,,,,,,,,,,,,,,
,,,,,00093,2023-11-04_13h03.37.289,vbt_B2_day3,2022.2.4,Win32,60.00960154,,,,,,down,0,0.3282,,-0.037037037,-0.076851845,1,0,0,0,46,46,39,1,laag,images/br_laag.png,images/cb_laag.png,0,,,,,,,,,,,,,,,,,,,,,,
,,,,,00093,2023-11-04_13h03.37.289,vbt_B2_day3,2022.2.4,Win32,60.00960154,,,,,,down,0,3.2338,,-0.037037037,-0.076851845,1,0,0,0,47,47,142,1,snuiven,images/br_snuiven.png,images/cb_snuiven.png,1,snuiven,,,,,,,,,,,,,,,,,,,,,
,,,,,00093,2023-11-04_13h03.37.289,vbt_B2_day3,2022.2.4,Win32,60.00960154,,,,,,down,0,1.0508,,-0.037037037,-0.076851845,1,0,0,0,48,48,102,1,legaal,images/br_legaal.png,images/cb_legaal.png,1,legaal,,,,,,,,,,,,,,,,,,,,,
,,,,,00093,2023-11-04_13h03.37.289,vbt_B2_day3,2022.2.4,Win32,60.00960154,,,,,,down,0,3.4801,,-0.037037037,-0.076851845,1,0,0,0,49,49,120,1,klimmen,images/br_klimmen.png,images/cb_klimmen.png,0,,,,,,,,,,,,,,,,,,,,,,
,,,,,00093,2023-11-04_13h03.37.289,vbt_B2_day3,2022.2.4,Win32,60.00960154,,,,,,down,0,7.8816,,-0.037037037,-0.076851845,1,0,0,0,50,50,153,1,vervoer,images/br_vervoer.png,images/cb_vervoer.png,0,,,,,,,,,,,,,,,,,,,,,,
,,,,,00093,2023-11-04_13h03.37.289,vbt_B2_day3,2022.2.4,Win32,60.00960154,,,,,,down,0,0.9572,,-0.037037037,-0.076851845,1,0,0,0,51,51,19,1,geit,images/br_geit.png,images/cb_geit.png,0,,,,,,,,,,,,,,,,,,,,,,
,,,,,00093,2023-11-04_13h03.37.289,vbt_B2_day3,2022.2.4,Win32,60.00960154,,,,,,down,0,3.488,,-0.037037037,-0.076851845,1,0,0,0,52,52,182,1,bijkomen,images/br_bijkomen.png,images/cb_bijkomen.png,1,bijkomen,,,,,,,,,,,,,,,,,,,,,
,,,,,00093,2023-11-04_13h03.37.289,vbt_B2_day3,2022.2.4,Win32,60.00960154,,,,,,down,0,3.1166,,-0.037037037,-0.076851845,1,0,0,0,53,53,47,1,kabel,images/br_kabel.png,images/cb_kabel.png,0,,,,,,,,,,,,,,,,,,,,,,
,,,,,00093,2023-11-04_13h03.37.289,vbt_B2_day3,2022.2.4,Win32,60.00960154,,,,,,down,0,6.4965,,-0.037037037,-0.076851845,1,0,0,0,54,54,167,1,eenhoorn,images/br_eenhoorn.png,images/cb_eenhoorn.png,0,,,,,,,,,,,,,,,,,,,,,,
,,,,,00093,2023-11-04_13h03.37.289,vbt_B2_day3,2022.2.4,Win32,60.00960154,,,,,,down,0,0.8008,,-0.037037037,-0.076851845,1,0,0,0,55,55,2,1,jaar,images/br_jaar.png,images/cb_jaar.png,0,,,,,,,,,,,,,,,,,,,,,,
,,,,,00093,2023-11-04_13h03.37.289,vbt_B2_day3,2022.2.4,Win32,60.00960154,,,,,,down,0,4.6343,,-0.037037037,-0.076851845,1,0,0,0,56,56,141,1,knielen,images/br_knielen.png,images/cb_knielen.png,1,knielen,,,,,,,,,,,,,,,,,,,,,
,,,,,00093,2023-11-04_13h03.37.289,vbt_B2_day3,2022.2.4,Win32,60.00960154,,,,,,down,0,1.9056,,-0.037037037,-0.076851845,1,0,0,0,57,57,163,1,schuilen,images/br_schuilen.png,images/cb_schuilen.png,0,,,,,,,,,,,,,,,,,,,,,,
,,,,,00093,2023-11-04_13h03.37.289,vbt_B2_day3,2022.2.4,Win32,60.00960154,,,,,,down,0,3.3172,,-0.037037037,-0.076851845,1,0,0,0,58,58,70,1,ijdel,images/br_ijdel.png,images/cb_ijdel.png,0,,,,,,,,,,,,,,,,,,,,,,
,,,,,00093,2023-11-04_13h03.37.289,vbt_B2_day3,2022.2.4,Win32,60.00960154,,,,,,down,0,2.5745,,-0.037037037,-0.076851845,1,0,0,0,59,59,176,1,techniek,images/br_techniek.png,images/cb_techniek.png,0,,,,,,,,,,,,,,,,,,,,,,
,,,,,00093,2023-11-04_13h03.37.289,vbt_B2_day3,2022.2.4,Win32,60.00960154,,,,,,down,0,0.8514,,-0.037037037,-0.076851845,1,0,0,0,60,60,114,1,vullen,images/br_vullen.png,images/cb_vullen.png,0,,,,,,,,,,,,,,,,,,,,,,
,,,,,00093,2023-11-04_13h03.37.289,vbt_B2_day3,2022.2.4,Win32,60.00960154,,,,,,down,0,0.4508,,-0.037037037,-0.076851845,1,0,0,0,61,61,42,1,bleek,images/br_bleek.png,images/cb_bleek.png,0,,,,,,,,,,,,,,,,,,,,,,
,,,,,00093,2023-11-04_13h03.37.289,vbt_B2_day3,2022.2.4,Win32,60.00960154,,,,,,down,0,3.491,,-0.037037037,-0.076851845,1,0,0,0,62,62,52,1,wagon,images/br_wagon.png,images/cb_wagon.png,0,,,,,,,,,,,,,,,,,,,,,,
,,,,,00093,2023-11-04_13h03.37.289,vbt_B2_day3,2022.2.4,Win32,60.00960154,,,,,,down,0,2.0502,,-0.037037037,-0.076851845,1,0,0,0,63,63,73,1,volop,images/br_volop.png,images/cb_volop.png,0,,,,,,,,,,,,,,,,,,,,,,
,,,,,00093,2023-11-04_13h03.37.289,vbt_B2_day3,2022.2.4,Win32,60.00960154,,,,,,down,0,3.3573,,-0.037037037,-0.076851845,1,0,0,0,64,64,111,1,ticket,images/br_ticket.png,images/cb_ticket.png,0,,,,,,,,,,,,,,,,,,,,,,
,,,,,00093,2023-11-04_13h03.37.289,vbt_B2_day3,2022.2.4,Win32,60.00960154,,,,,,down,0,6.5333,,-0.037037037,-0.076851845,1,0,0,0,65,65,85,1,heilig,images/br_heilig.png,images/cb_heilig.png,0,,,,,,,,,,,,,,,,,,,,,,
,,,,,00093,2023-11-04_13h03.37.289,vbt_B2_day3,2022.2.4,Win32,60.00960154,,,,,,down,0,10.0229,,-0.037037037,-0.076851845,1,0,0,0,66,66,130,1,keihard,images/br_keihard.png,images/cb_keihard.png,0,,,,,,,,,,,,,,,,,,,,,,
,,,,,00093,2023-11-04_13h03.37.289,vbt_B2_day3,2022.2.4,Win32,60.00960154,,,,,,down,0,0.8687,,-0.037037037,-0.076851845,1,0,0,0,67,67,12,1,kust,images/br_kust.png,images/cb_kust.png,0,,,,,,,,,,,,,,,,,,,,,,
,,,,,00093,2023-11-04_13h03.37.289,vbt_B2_day3,2022.2.4,Win32,60.00960154,,,,,,down,0,1.7928,,-0.037037037,-0.076851845,1,0,0,0,68,68,79,1,nodig,images/br_nodig.png,images/cb_nodig.png,0,,,,,,,,,,,,,,,,,,,,,,
,,,,,00093,2023-11-04_13h03.37.289,vbt_B2_day3,2022.2.4,Win32,60.00960154,,,,,,down,0,0.5962,,-0.037037037,-0.076851845,1,0,0,0,69,69,1,1,zaal,images/br_zaal.png,images/cb_zaal.png,0,,,,,,,,,,,,,,,,,,,,,,
,,,,,00093,2023-11-04_13h03.37.289,vbt_B2_day3,2022.2.4,Win32,60.00960154,,,,,,down,0,4.8003,,-0.037037037,-0.076851845,1,0,0,0,70,70,91,1,gezond,images/br_gezond.png,images/cb_gezond.png,0,,,,,,,,,,,,,,,,,,,,,,
,,,,,00093,2023-11-04_13h03.37.289,vbt_B2_day3,2022.2.4,Win32,60.00960154,,,,,,down,0,9.219,,-0.037037037,-0.076851845,1,0,0,0,71,71,155,1,gerucht,images/br_gerucht.png,images/cb_gerucht.png,0,,,,,,,,,,,,,,,,,,,,,,
,,,,,00093,2023-11-04_13h03.37.289,vbt_B2_day3,2022.2.4,Win32,60.00960154,,,,,,down,0,2.0093,,-0.037037037,-0.076851845,1,0,0,0,72,72,173,1,apparaat,images/br_apparaat.png,images/cb_apparaat.png,0,,,,,,,,,,,,,,,,,,,,,,
,,,,,00093,2023-11-04_13h03.37.289,vbt_B2_day3,2022.2.4,Win32,60.00960154,,,,,,down,0,5.3423,,-0.037037037,-0.076851845,1,0,0,0,73,73,117,1,kennis,images/br_kennis.png,images/cb_kennis.png,0,,,,,,,,,,,,,,,,,,,,,,
,,,,,00093,2023-11-04_13h03.37.289,vbt_B2_day3,2022.2.4,Win32,60.00960154,,,,,,down,0,2.6833,,-0.037037037,-0.076851845,1,0,0,0,74,74,129,1,verhaal,images/br_verhaal.png,images/cb_verhaal.png,0,,,,,,,,,,,,,,,,,,,,,,
,,,,,00093,2023-11-04_13h03.37.289,vbt_B2_day3,2022.2.4,Win32,60.00960154,,,,,,down,0,1.406,,-0.037037037,-0.076851845,1,0,0,0,75,75,26,1,leuk,images/br_leuk.png,images/cb_leuk.png,0,,,,,,,,,,,,,,,,,,,,,,
,,,,,00093,2023-11-04_13h03.37.289,vbt_B2_day3,2022.2.4,Win32,60.00960154,,,,,,down,0,10.2094,,-0.037037037,-0.076851845,1,0,0,0,76,76,116,1,besmet,images/br_besmet.png,images/cb_besmet.png,0,,,,,,,,,,,,,,,,,,,,,,
,,,,,00093,2023-11-04_13h03.37.289,vbt_B2_day3,2022.2.4,Win32,60.00960154,,,,,,down,0,5.6557,,-0.037037037,-0.076851845,1,0,0,0,77,77,83,1,mening,images/br_mening.png,images/cb_mening.png,0,,,,,,,,,,,,,,,,,,,,,,
,,,,,00093,2023-11-04_13h03.37.289,vbt_B2_day3,2022.2.4,Win32,60.00960154,,,,,,down,0,1.7698,,-0.037037037,-0.076851845,1,0,0,0,78,78,125,1,aanzien,images/br_aanzien.png,images/cb_aanzien.png,0,,,,,,,,,,,,,,,,,,,,,,
,,,,,00093,2023-11-04_13h03.37.289,vbt_B2_day3,2022.2.4,Win32,60.00960154,,,,,,down,0,1.0796,,-0.037037037,-0.076851845,1,0,0,0,79,79,138,1,akkoord,images/br_akkoord.png,images/cb_akkoord.png,0,,,,,,,,,,,,,,,,,,,,,,
,,,,,00093,2023-11-04_13h03.37.289,vbt_B2_day3,2022.2.4,Win32,60.00960154,,,,,,down,0,1.4278,,-0.037037037,-0.076851845,1,0,0,0,80,80,139,1,stiekem,images/br_stiekem.png,images/cb_stiekem.png,0,,,,,,,,,,,,,,,,,,,,,,
,,,,,00093,2023-11-04_13h03.37.289,vbt_B2_day3,2022.2.4,Win32,60.00960154,,,,,,down,0,3.937,,-0.037037037,-0.076851845,1,0,0,0,81,81,174,1,stemming,images/br_stemming.png,images/cb_stemming.png,0,,,,,,,,,,,,,,,,,,,,,,
,,,,,00093,2023-11-04_13h03.37.289,vbt_B2_day3,2022.2.4,Win32,60.00960154,,,,,,down,0,1.0174,,-0.037037037,-0.076851845,1,0,0,0,82,82,81,1,dubbel,images/br_dubbel.png,images/cb_dubbel.png,0,,,,,,,,,,,,,,,,,,,,,,
,,,,,00093,2023-11-04_13h03.37.289,vbt_B2_day3,2022.2.4,Win32,60.00960154,,,,,,down,0,3.3552,,-0.037037037,-0.076851845,1,0,0,0,83,83,22,1,stof,images/br_stof.png,images/cb_stof.png,1,stof,,,,,,,,,,,,,,,,,,,,,
,,,,,00093,2023-11-04_13h03.37.289,vbt_B2_day3,2022.2.4,Win32,60.00960154,,,,,,down,0,5.2491,,-0.037037037,-0.076851845,1,0,0,0,84,84,64,1,wegen,images/br_wegen.png,images/cb_wegen.png,0,,,,,,,,,,,,,,,,,,,,,,
,,,,,00093,2023-11-04_13h03.37.289,vbt_B2_day3,2022.2.4,Win32,60.00960154,,,,,,down,0,5.3336,,-0.037037037,-0.076851845,1,0,0,0,85,85,80,1,kanjer,images/br_kanjer.png,images/cb_kanjer.png,0,,,,,,,,,,,,,,,,,,,,,,
,,,,,00093,2023-11-04_13h03.37.289,vbt_B2_day3,2022.2.4,Win32,60.00960154,,,,,,down,0,0.4165,,-0.037037037,-0.076851845,1,0,0,0,86,86,35,1,lust,images/br_lust.png,images/cb_lust.png,0,,,,,,,,,,,,,,,,,,,,,,
,,,,,00093,2023-11-04_13h03.37.289,vbt_B2_day3,2022.2.4,Win32,60.00960154,,,,,,down,0,5.0341,,-0.037037037,-0.076851845,1,0,0,0,87,87,168,1,bisschop,images/br_bisschop.png,images/cb_bisschop.png,0,,,,,,,,,,,,,,,,,,,,,,
,,,,,00093,2023-11-04_13h03.37.289,vbt_B2_day3,2022.2.4,Win32,60.00960154,,,,,,down,0,3.1669,,-0.037037037,-0.076851845,1,0,0,0,88,88,89,1,slapen,images/br_slapen.png,images/cb_slapen.png,0,,,,,,,,,,,,,,,,,,,,,,
,,,,,00093,2023-11-04_13h03.37.289,vbt_B2_day3,2022.2.4,Win32,60.00960154,,,,,,down,0,9.0841,,-0.037037037,-0.076851845,1,0,0,0,89,89,92,1,geheim,images/br_geheim.png,images/cb_geheim.png,0,,,,,,,,,,,,,,,,,,,,,,
,,,,,00093,2023-11-04_13h03.37.289,vbt_B2_day3,2022.2.4,Win32,60.00960154,,,,,,down,0,3.6752,,-0.037037037,-0.076851845,1,0,0,0,90,90,108,1,excuus,images/br_excuus.png,images/cb_excuus.png,0,,,,,,,,,,,,,,,,,,,,,,
,,,,,00093,2023-11-04_13h03.37.289,vbt_B2_day3,2022.2.4,Win32,60.00960154,,,,,,down,0,2.0941,,-0.037037037,-0.076851845,1,0,0,0,91,91,126,1,kasteel,images/br_kasteel.png,images/cb_kasteel.png,0,,,,,,,,,,,,,,,,,,,,,,
,,,,,00093,2023-11-04_13h03.37.289,vbt_B2_day3,2022.2.4,Win32,60.00960154,,,,,,down,0,3.3047,,-0.037037037,-0.076851845,1,0,0,0,92,92,160,1,daarheen,images/br_daarheen.png,images/cb_daarheen.png,0,,,,,,,,,,,,,,,,,,,,,,
,,,,,00093,2023-11-04_13h03.37.289,vbt_B2_day3,2022.2.4,Win32,60.00960154,,,,,,down,0,3.7882,,-0.037037037,-0.076851845,1,0,0,0,93,93,171,1,aarzelen,images/br_aarzelen.png,images/cb_aarzelen.png,0,,,,,,,,,,,,,,,,,,,,,,
,,,,,00093,2023-11-04_13h03.37.289,vbt_B2_day3,2022.2.4,Win32,60.00960154,,,,,,down,0,3.3383,,-0.037037037,-0.076851845,1,0,0,0,94,94,58,1,tekst,images/br_tekst.png,images/cb_tekst.png,0,,,,,,,,,,,,,,,,,,,,,,
,,,,,00093,2023-11-04_13h03.37.289,vbt_B2_day3,2022.2.4,Win32,60.00960154,,,,,,down,0,11.1205,,-0.037037037,-0.076851845,1,0,0,0,95,95,172,1,weigeren,images/br_weigeren.png,images/cb_weigeren.png,0,,,,,,,,,,,,,,,,,,,,,,
,,,,,00093,2023-11-04_13h03.37.289,vbt_B2_day3,2022.2.4,Win32,60.00960154,,,,,,down,0,0.9456,,-0.037037037,-0.076851845,1,0,0,0,96,96,11,1,mode,images/br_mode.png,images/cb_mode.png,0,,,,,,,,,,,,,,,,,,,,,,
,,,,,00093,2023-11-04_13h03.37.289,vbt_B2_day3,2022.2.4,Win32,60.00960154,,,,,,down,0,1.5846,,-0.037037037,-0.076851845,1,0,0,0,97,97,34,1,vorm,images/br_vorm.png,images/cb_vorm.png,0,,,,,,,,,,,,,,,,,,,,,,
,,,,,00093,2023-11-04_13h03.37.289,vbt_B2_day3,2022.2.4,Win32,60.00960154,,,,,,down,0,3.0339,,-0.037037037,-0.076851845,1,0,0,0,98,98,101,1,staren,images/br_staren.png,images/cb_staren.png,1,staren,,,,,,,,,,,,,,,,,,,,,
,,,,,00093,2023-11-04_13h03.37.289,vbt_B2_day3,2022.2.4,Win32,60.00960154,,,,,,down,0,1.2968,,-0.037037037,-0.076851845,1,0,0,0,99,99,109,1,totaal,images/br_totaal.png,images/cb_totaal.png,0,,,,,,,,,,,,,,,,,,,,,,
,,,,,00093,2023-11-04_13h03.37.289,vbt_B2_day3,2022.2.4,Win32,60.00960154,,,,,,down,0,0.462,,0.021296325,-0.037037037,1,0,0,0,100,100,93,1,waarop,images/br_waarop.png,images/cb_waarop.png,0,,,,,,,,,,,,,,,,,,,,,,
,,,,,00093,2023-11-04_13h03.37.289,vbt_B2_day3,2022.2.4,Win32,60.00960154,,,,,,down,0,4.1167,,0.021296325,-0.037037037,1,0,0,0,101,101,189,1,aanraden,images/br_aanraden.png,images/cb_aanraden.png,0,,,,,,,,,,,,,,,,,,,,,,
,,,,,00093,2023-11-04_13h03.37.289,vbt_B2_day3,2022.2.4,Win32,60.00960154,,,,,,down,0,2.1687,,0.021296325,-0.037037037,1,0,0,0,102,102,165,1,feestdag,images/br_feestdag.png,images/cb_feestdag.png,0,,,,,,,,,,,,,,,,,,,,,,
,,,,,00093,2023-11-04_13h03.37.289,vbt_B2_day3,2022.2.4,Win32,60.00960154,,,,,,down,0,3.7168,,0.021296325,-0.037037037,1,0,0,0,103,103,161,1,attentie,images/br_attentie.png,images/cb_attentie.png,0,,,,,,,,,,,,,,,,,,,,,,
,,,,,00093,2023-11-04_13h03.37.289,vbt_B2_day3,2022.2.4,Win32,60.00960154,,,,,,down,0,2.6513,,0.021296325,-0.037037037,1,0,0,0,104,104,95,1,vreten,images/br_vreten.png,images/cb_vreten.png,0,,,,,,,,,,,,,,,,,,,,,,
,,,,,00093,2023-11-04_13h03.37.289,vbt_B2_day3,2022.2.4,Win32,60.00960154,,,,,,down,0,2.2672,,0.021296325,-0.037037037,1,0,0,0,105,105,61,1,groen,images/br_groen.png,images/cb_groen.png,1,groen,,,,,,,,,,,,,,,,,,,,,
,,,,,00093,2023-11-04_13h03.37.289,vbt_B2_day3,2022.2.4,Win32,60.00960154,,,,,,down,0,5.1602,,0.021296325,-0.037037037,1,0,0,0,106,106,23,1,zout,images/br_zout.png,images/cb_zout.png,1,zout,,,,,,,,,,,,,,,,,,,,,
,,,,,00093,2023-11-04_13h03.37.289,vbt_B2_day3,2022.2.4,Win32,60.00960154,,,,,,down,0,2.9258,,0.021296325,-0.037037037,1,0,0,0,107,107,65,1,parel,images/br_parel.png,images/cb_parel.png,0,,,,,,,,,,,,,,,,,,,,,,
,,,,,00093,2023-11-04_13h03.37.289,vbt_B2_day3,2022.2.4,Win32,60.00960154,,,,,,down,0,2.0505,,0.021296325,-0.037037037,1,0,0,0,108,108,148,1,smullen,images/br_smullen.png,images/cb_smullen.png,0,,,,,,,,,,,,,,,,,,,,,,
,,,,,00093,2023-11-04_13h03.37.289,vbt_B2_day3,2022.2.4,Win32,60.00960154,,,,,,down,0,0.9937,,0.021296325,-0.037037037,1,0,0,0,109,109,74,1,graaf,images/br_graaf.png,images/cb_graaf.png,0,,,,,,,,,,,,,,,,,,,,,,
,,,,,00093,2023-11-04_13h03.37.289,vbt_B2_day3,2022.2.4,Win32,60.00960154,,,,,,down,0,3.7169,,0.021296325,-0.037037037,1,0,0,0,110,110,170,1,schatten,images/br_schatten.png,images/cb_schatten.png,0,,,,,,,,,,,,,,,,,,,,,,
,,,,,00093,2023-11-04_13h03.37.289,vbt_B2_day3,2022.2.4,Win32,60.00960154,,,,,,down,0,4.6908,,0.021296325,-0.037037037,1,0,0,0,111,111,15,1,soda,images/br_soda.png,images/cb_soda.png,0,,,,,,,,,,,,,,,,,,,,,,
,,,,,00093,2023-11-04_13h03.37.289,vbt_B2_day3,2022.2.4,Win32,60.00960154,,,,,,down,0,0.8621,,0.021296325,-0.037037037,1,0,0,0,112,112,13,1,kaal,images/br_kaal.png,images/cb_kaal.png,0,,,,,,,,,,,,,,,,,,,,,,
,,,,,00093,2023-11-04_13h03.37.289,vbt_B2_day3,2022.2.4,Win32,60.00960154,,,,,,down,0,2.0432,,0.021296325,-0.037037037,1,0,0,0,113,113,183,1,getuigen,images/br_getuigen.png,images/cb_getuigen.png,1,getuigen,,,,,,,,,,,,,,,,,,,,,
,,,,,00093,2023-11-04_13h03.37.289,vbt_B2_day3,2022.2.4,Win32,60.00960154,,,,,,down,0,3.3868,,0.021296325,-0.037037037,1,0,0,0,114,114,75,1,snoep,images/br_snoep.png,images/cb_snoep.png,0,,,,,,,,,,,,,,,,,,,,,,
,,,,,00093,2023-11-04_13h03.37.289,vbt_B2_day3,2022.2.4,Win32,60.00960154,,,,,,down,0,1.9389,,0.021296325,-0.037037037,1,0,0,0,115,115,195,1,middelen,images/br_middelen.png,images/cb_middelen.png,0,,,,,,,,,,,,,,,,,,,,,,
,,,,,00093,2023-11-04_13h03.37.289,vbt_B2_day3,2022.2.4,Win32,60.00960154,,,,,,down,0,3.7675,,0.021296325,-0.037037037,1,0,0,0,116,116,62,1,knaap,images/br_knaap.png,images/cb_knaap.png,1,knaap,,,,,,,,,,,,,,,,,,,,,
,,,,,00093,2023-11-04_13h03.37.289,vbt_B2_day3,2022.2.4,Win32,60.00960154,,,,,,down,0,1.6182,,0.021296325,-0.037037037,1,0,0,0,117,117,67,1,zwart,images/br_zwart.png,images/cb_zwart.png,0,,,,,,,,,,,,,,,,,,,,,,
,,,,,00093,2023-11-04_13h03.37.289,vbt_B2_day3,2022.2.4,Win32,60.00960154,,,,,,down,0,3.7894,,0.021296325,-0.037037037,1,0,0,0,118,118,103,1,joggen,images/br_joggen.png,images/cb_joggen.png,1,joggen,,,,,,,,,,,,,,,,,,,,,
,,,,,00093,2023-11-04_13h03.37.289,vbt_B2_day3,2022.2.4,Win32,60.00960154,,,,,,down,0,1.874,,0.021296325,-0.037037037,1,0,0,0,119,119,106,1,zingen,images/br_zingen.png,images/cb_zingen.png,0,,,,,,,,,,,,,,,,,,,,,,
,,,,,00093,2023-11-04_13h03.37.289,vbt_B2_day3,2022.2.4,Win32,60.00960154,,,,,,down,0,2.7021,,0.021296325,-0.037037037,1,0,0,0,120,120,40,1,schep,images/br_schep.png,images/cb_schep.png,0,,,,,,,,,,,,,,,,,,,,,,
,,,,,00093,2023-11-04_13h03.37.289,vbt_B2_day3,2022.2.4,Win32,60.00960154,,,,,,down,0,5.6652,,0.021296325,-0.037037037,1,0,0,0,121,121,49,1,laken,images/br_laken.png,images/cb_laken.png,0,,,,,,,,,,,,,,,,,,,,,,
,,,,,00093,2023-11-04_13h03.37.289,vbt_B2_day3,2022.2.4,Win32,60.00960154,,,,,,down,0,2.8337,,0.021296325,-0.037037037,1,0,0,0,122,122,149,1,redding,images/br_redding.png,images/cb_redding.png,0,,,,,,,,,,,,,,,,,,,,,,
,,,,,00093,2023-11-04_13h03.37.289,vbt_B2_day3,2022.2.4,Win32,60.00960154,,,,,,down,0,0.0165,,0.021296325,-0.037037037,1,0,0,0,123,123,48,1,steel,images/br_steel.png,images/cb_steel.png,0,,,,,,,,,,,,,,,,,,,,,,
,,,,,00093,2023-11-04_13h03.37.289,vbt_B2_day3,2022.2.4,Win32,60.00960154,,,,,,down,0,4.8551,,0.021296325,-0.037037037,1,0,0,0,124,124,196,1,nakijken,images/br_nakijken.png,images/cb_nakijken.png,0,,,,,,,,,,,,,,,,,,,,,,
,,,,,00093,2023-11-04_13h03.37.289,vbt_B2_day3,2022.2.4,Win32,60.00960154,,,,,,down,0,6.3829,,0.021296325,-0.037037037,1,0,0,0,125,125,147,1,komisch,images/br_komisch.png,images/cb_komisch.png,0,,,,,,,,,,,,,,,,,,,,,,
,,,,,00093,2023-11-04_13h03.37.289,vbt_B2_day3,2022.2.4,Win32,60.00960154,,,,,,down,0,6.3842,,0.021296325,-0.037037037,1,0,0,0,126,126,133,1,seizoen,images/br_seizoen.png,images/cb_seizoen.png,0,,,,,,,,,,,,,,,,,,,,,,
,,,,,00093,2023-11-04_13h03.37.289,vbt_B2_day3,2022.2.4,Win32,60.00960154,,,,,,down,0,3.19,,0.021296325,-0.037037037,1,0,0,0,127,127,198,1,bedoelen,images/br_bedoelen.png,images/cb_bedoelen.png,0,,,,,,,,,,,,,,,,,,,,,,
,,,,,00093,2023-11-04_13h03.37.289,vbt_B2_day3,2022.2.4,Win32,60.00960154,,,,,,down,0,2.084,,0.021296325,-0.037037037,1,0,0,0,128,128,16,1,ziek,images/br_ziek.png,images/cb_ziek.png,0,,,,,,,,,,,,,,,,,,,,,,
,,,,,00093,2023-11-04_13h03.37.289,vbt_B2_day3,2022.2.4,Win32,60.00960154,,,,,,down,0,5.0277,,0.021296325,-0.037037037,1,0,0,0,129,129,179,1,woestijn,images/br_woestijn.png,images/cb_woestijn.png,0,,,,,,,,,,,,,,,,,,,,,,
,,,,,00093,2023-11-04_13h03.37.289,vbt_B2_day3,2022.2.4,Win32,60.00960154,,,,,,down,0,3.1246,,0.021296325,-0.037037037,1,0,0,0,130,130,184,1,aandelen,images/br_aandelen.png,images/cb_aandelen.png,0,,,,,,,,,,,,,,,,,,,,,,
,,,,,00093,2023-11-04_13h03.37.289,vbt_B2_day3,2022.2.4,Win32,60.00960154,,,,,,down,0,23.6662,,0.021296325,-0.037037037,1,0,0,0,131,131,99,1,koffie,images/br_koffie.png,images/cb_koffie.png,0,,,,,,,,,,,,,,,,,,,,,,
,,,,,00093,2023-11-04_13h03.37.289,vbt_B2_day3,2022.2.4,Win32,60.00960154,,,,,,down,0,18.6099,,0.021296325,-0.037037037,1,0,0,0,132,132,54,1,gebit,images/br_gebit.png,images/cb_gebit.png,0,,,,,,,,,,,,,,,,,,,,,,
,,,,,00093,2023-11-04_13h03.37.289,vbt_B2_day3,2022.2.4,Win32,60.00960154,,,,,,down,0,5.7175,,0.021296325,-0.037037037,1,0,0,0,133,133,192,1,schaamte,images/br_schaamte.png,images/cb_schaamte.png,0,,,,,,,,,,,,,,,,,,,,,,
,,,,,00093,2023-11-04_13h03.37.289,vbt_B2_day3,2022.2.4,Win32,60.00960154,,,,,,down,0,7.5671,,0.021296325,-0.037037037,1,0,0,0,134,134,197,1,spanning,images/br_spanning.png,images/cb_spanning.png,0,,,,,,,,,,,,,,,,,,,,,,
,,,,,00093,2023-11-04_13h03.37.289,vbt_B2_day3,2022.2.4,Win32,60.00960154,,,,,,down,0,4.0579,,0.021296325,-0.037037037,1,0,0,0,135,135,14,1,rijp,images/br_rijp.png,images/cb_rijp.png,0,,,,,,,,,,,,,,,,,,,,,,
,,,,,00093,2023-11-04_13h03.37.289,vbt_B2_day3,2022.2.4,Win32,60.00960154,,,,,,down,0,4.5801,,0.146296325,-0.196296339,1,0,0,0,136,136,145,1,invloed,images/br_invloed.png,images/cb_invloed.png,0,,,,,,,,,,,,,,,,,,,,,,
,,,,,00093,2023-11-04_13h03.37.289,vbt_B2_day3,2022.2.4,Win32,60.00960154,,,,,,down,0,4.851,,0.146296325,-0.196296339,1,0,0,0,137,137,152,1,afnemen,images/br_afnemen.png,images/cb_afnemen.png,0,,,,,,,,,,,,,,,,,,,,,,
,,,,,00093,2023-11-04_13h03.37.289,vbt_B2_day3,2022.2.4,Win32,60.00960154,,,,,,down,0,2.1166,,0.146296325,-0.196296339,1,0,0,0,138,138,86,1,woning,images/br_woning.png,images/cb_woning.png,0,,,,,,,,,,,,,,,,,,,,,,
,,,,,00093,2023-11-04_13h03.37.289,vbt_B2_day3,2022.2.4,Win32,60.00960154,,,,,,down,0,12.8443,,0.146296325,-0.196296339,1,0,0,0,139,139,4,1,moes,images/br_moes.png,images/cb_moes.png,0,,,,,,,,,,,,,,,,,,,,,,
,,,,,00093,2023-11-04_13h03.37.289,vbt_B2_day3,2022.2.4,Win32,60.00960154,,,,,,down,0,2.7805,,0.146296325,-0.196296339,1,0,0,0,140,140,113,1,koppen,images/br_koppen.png,images/cb_koppen.png,0,,,,,,,,,,,,,,,,,,,,,,
,,,,,00093,2023-11-04_13h03.37.289,vbt_B2_day3,2022.2.4,Win32,60.00960154,,,,,,down,0,3.4573,,0.146296325,-0.196296339,1,0,0,0,141,141,159,1,sufferd,images/br_sufferd.png,images/cb_sufferd.png,0,,,,,,,,,,,,,,,,,,,,,,
,,,,,00093,2023-11-04_13h03.37.289,vbt_B2_day3,2022.2.4,Win32,60.00960154,,,,,,down,0,1.7668,,0.146296325,-0.196296339,1,0,0,0,142,142,82,1,muziek,images/br_muziek.png,images/cb_muziek.png,0,,,,,,,,,,,,,,,,,,,,,,
,,,,,00093,2023-11-04_13h03.37.289,vbt_B2_day3,2022.2.4,Win32,60.00960154,,,,,,down,0,2.7343,,0.146296325,-0.196296339,1,0,0,0,143,143,194,1,driemaal,images/br_driemaal.png,images/cb_driemaal.png,0,,,,,,,,,,,,,,,,,,,,,,
,,,,,00093,2023-11-04_13h03.37.289,vbt_B2_day3,2022.2.4,Win32,60.00960154,,,,,,down,0,1.344,,0.146296325,-0.196296339,1,0,0,0,144,144,177,1,maaltijd,images/br_maaltijd.png,images/cb_maaltijd.png,0,,,,,,,,,,,,,,,,,,,,,,
,,,,,00093,2023-11-04_13h03.37.289,vbt_B2_day3,2022.2.4,Win32,60.00960154,,,,,,down,0,4.8017,,0.146296325,-0.196296339,1,0,0,0,145,145,156,1,rechten,images/br_rechten.png,images/cb_rechten.png,0,,,,,,,,,,,,,,,,,,,,,,
,,,,,00093,2023-11-04_13h03.37.289,vbt_B2_day3,2022.2.4,Win32,60.00960154,,,,,,down,0,3.9081,,0.146296325,-0.196296339,1,0,0,0,146,146,20,1,site,images/br_site.png,images/cb_site.png,1,site,,,,,,,,,,,,,,,,,,,,,
,,,,,00093,2023-11-04_13h03.37.289,vbt_B2_day3,2022.2.4,Win32,60.00960154,,,,,,down,0,6.3503,,0.146296325,-0.196296339,1,0,0,0,147,147,137,1,trekker,images/br_trekker.png,images/cb_trekker.png,0,,,,,,,,,,,,,,,,,,,,,,
,,,,,00093,2023-11-04_13h03.37.289,vbt_B2_day3,2022.2.4,Win32,60.00960154,,,,,,down,0,1.5461,,0.146296325,-0.196296339,1,0,0,0,148,148,30,1,uien,images/br_uien.png,images/cb_uien.png,0,,,,,,,,,,,,,,,,,,,,,,
,,,,,00093,2023-11-04_13h03.37.289,vbt_B2_day3,2022.2.4,Win32,60.00960154,,,,,,down,0,3.9304,,0.146296325,-0.196296339,1,0,0,0,149,149,90,1,geluid,images/br_geluid.png,images/cb_geluid.png,0,,,,,,,,,,,,,,,,,,,,,,
,,,,,00093,2023-11-04_13h03.37.289,vbt_B2_day3,2022.2.4,Win32,60.00960154,,,,,,down,0,2.2077,,0.146296325,-0.196296339,1,0,0,0,150,150,78,1,leren,images/br_leren.png,images/cb_leren.png,0,,,,,,,,,,,,,,,,,,,,,,
,,,,,00093,2023-11-04_13h03.37.289,vbt_B2_day3,2022.2.4,Win32,60.00960154,,,,,,down,0,2.7602,,0.146296325,-0.196296339,1,0,0,0,151,151,43,1,klauw,images/br_klauw.png,images/cb_klauw.png,0,,,,,,,,,,,,,,,,,,,,,,
,,,,,00093,2023-11-04_13h03.37.289,vbt_B2_day3,2022.2.4,Win32,60.00960154,,,,,,down,0,10.941,,0.146296325,-0.196296339,1,0,0,0,152,152,181,1,toegeven,images/br_toegeven.png,images/cb_toegeven.png,1,toegeven,,,,,,,,,,,,,,,,,,,,,
,,,,,00093,2023-11-04_13h03.37.289,vbt_B2_day3,2022.2.4,Win32,60.00960154,,,,,,down,0,3.1018,,0.146296325,-0.196296339,1,0,0,0,153,153,135,1,gedicht,images/br_gedicht.png,images/cb_gedicht.png,0,,,,,,,,,,,,,,,,,,,,,,
,,,,,00093,2023-11-04_13h03.37.289,vbt_B2_day3,2022.2.4,Win32,60.00960154,,,,,,down,0,9.0703,,0.146296325,-0.196296339,1,0,0,0,154,154,55,1,praat,images/br_praat.png,images/cb_praat.png,0,,,,,,,,,,,,,,,,,,,,,,
,,,,,00093,2023-11-04_13h03.37.289,vbt_B2_day3,2022.2.4,Win32,60.00960154,,,,,,down,0,3.8225,,0.146296325,-0.196296339,1,0,0,0,155,155,59,1,kring,images/br_kring.png,images/cb_kring.png,0,,,,,,,,,,,,,,,,,,,,,,
,,,,,00093,2023-11-04_13h03.37.289,vbt_B2_day3,2022.2.4,Win32,60.00960154,,,,,,down,0,2.6166,,0.146296325,-0.196296339,1,0,0,0,156,156,146,1,opkomen,images/br_opkomen.png,images/cb_opkomen.png,0,,,,,,,,,,,,,,,,,,,,,,
,,,,,00093,2023-11-04_13h03.37.289,vbt_B2_day3,2022.2.4,Win32,60.00960154,,,,,,down,0,4.1885,,0.146296325,-0.196296339,1,0,0,0,157,157,143,1,hechten,images/br_hechten.png,images/cb_hechten.png,1,hechten,,,,,,,,,,,,,,,,,,,,,
,,,,,00093,2023-11-04_13h03.37.289,vbt_B2_day3,2022.2.4,Win32,60.00960154,,,,,,down,0,7.0169,,0.146296325,-0.196296339,1,0,0,0,158,158,60,1,jasje,images/br_jasje.png,images/cb_jasje.png,1,jasje,,,,,,,,,,,,,,,,,,,,,
,,,,,00093,2023-11-04_13h03.37.289,vbt_B2_day3,2022.2.4,Win32,60.00960154,,,,,,down,0,1.3176,,0.146296325,-0.196296339,1,0,0,0,159,159,84,1,lokken,images/br_lokken.png,images/cb_lokken.png,0,,,,,,,,,,,,,,,,,,,,,,
,,,,,00093,2023-11-04_13h03.37.289,vbt_B2_day3,2022.2.4,Win32,60.00960154,,,,,,down,0,4.2197,,0.146296325,-0.196296339,1,0,0,0,160,160,123,1,hiervan,images/br_hiervan.png,images/cb_hiervan.png,0,,,,,,,,,,,,,,,,,,,,,,
,,,,,00093,2023-11-04_13h03.37.289,vbt_B2_day3,2022.2.4,Win32,60.00960154,,,,,,down,0,1.0042,,0.146296325,-0.196296339,1,0,0,0,161,161,112,1,lukken,images/br_lukken.png,images/cb_lukken.png,0,,,,,,,,,,,,,,,,,,,,,,
,,,,,00093,2023-11-04_13h03.37.289,vbt_B2_day3,2022.2.4,Win32,60.00960154,,,,,,down,0,5.7107,,0.146296325,-0.196296339,1,0,0,0,162,162,158,1,innemen,images/br_innemen.png,images/cb_innemen.png,0,,,,,,,,,,,,,,,,,,,,,,
,,,,,00093,2023-11-04_13h03.37.289,vbt_B2_day3,2022.2.4,Win32,60.00960154,,,,,,down,0,6.8357,,0.146296325,-0.196296339,1,0,0,0,163,163,71,1,bever,images/br_bever.png,images/cb_bever.png,0,,,,,,,,,,,,,,,,,,,,,,
,,,,,00093,2023-11-04_13h03.37.289,vbt_B2_day3,2022.2.4,Win32,60.00960154,,,,,,down,0,2.0065,,0.146296325,-0.196296339,1,0,0,0,164,164,186,1,voorraad,images/br_voorraad.png,images/cb_voorraad.png,0,,,,,,,,,,,,,,,,,,,,,,
,,,,,00093,2023-11-04_13h03.37.289,vbt_B2_day3,2022.2.4,Win32,60.00960154,,,,,,down,0,5.2506,,0.146296325,-0.196296339,1,0,0,0,165,165,199,1,beseffen,images/br_beseffen.png,images/cb_beseffen.png,0,,,,,,,,,,,,,,,,,,,,,,
,,,,,00093,2023-11-04_13h03.37.289,vbt_B2_day3,2022.2.4,Win32,60.00960154,,,,,,down,0,1.0354,,0.146296325,-0.196296339,1,0,0,0,166,166,5,1,blad,images/br_blad.png,images/cb_blad.png,0,,,,,,,,,,,,,,,,,,,,,,
,,,,,00093,2023-11-04_13h03.37.289,vbt_B2_day3,2022.2.4,Win32,60.00960154,,,,,,down,0,0.2015,,0.146296325,-0.196296339,1,0,0,0,167,167,0,1,slak,images/br_slak.png,images/cb_slak.png,0,,,,,,,,,,,,,,,,,,,,,,
,,,,,00093,2023-11-04_13h03.37.289,vbt_B2_day3,2022.2.4,Win32,60.00960154,,,,,,down,0,0.4956,,0.146296325,-0.196296339,1,0,0,0,168,168,3,1,mand,images/br_mand.png,images/cb_mand.png,0,,,,,,,,,,,,,,,,,,,,,,
,,,,,00093,2023-11-04_13h03.37.289,vbt_B2_day3,2022.2.4,Win32,60.00960154,,,,,,down,0,1.6937,,0.146296325,-0.196296339,1,0,0,0,169,169,66,1,lever,images/br_lever.png,images/cb_lever.png,0,,,,,,,,,,,,,,,,,,,,,,
,,,,,00093,2023-11-04_13h03.37.289,vbt_B2_day3,2022.2.4,Win32,60.00960154,,,,,,down,0,0.5428,,0.146296325,-0.196296339,1,0,0,0,170,170,56,1,traag,images/br_traag.png,images/cb_traag.png,0,,,,,,,,,,,,,,,,,,,,,,
,,,,,00093,2023-11-04_13h03.37.289,vbt_B2_day3,2022.2.4,Win32,60.00960154,,,,,,down,0,0.8546,,0.146296325,-0.196296339,1,0,0,0,171,171,33,1,vlek,images/br_vlek.png,images/cb_vlek.png,0,,,,,,,,,,,,,,,,,,,,,,
,,,,,00093,2023-11-04_13h03.37.289,vbt_B2_day3,2022.2.4,Win32,60.00960154,,,,,,down,0,4.5009,,0.146296325,-0.196296339,1,0,0,0,172,172,188,1,strekken,images/br_strekken.png,images/cb_strekken.png,0,,,,,,,,,,,,,,,,,,,,,,
,,,,,00093,2023-11-04_13h03.37.289,vbt_B2_day3,2022.2.4,Win32,60.00960154,,,,,,down,0,0.7987,,0.146296325,-0.196296339,1,0,0,0,173,173,69,1,waken,images/br_waken.png,images/cb_waken.png,0,,,,,,,,,,,,,,,,,,,,,,
,,,,,00093,2023-11-04_13h03.37.289,vbt_B2_day3,2022.2.4,Win32,60.00960154,,,,,,down,0,0.8127,,0.146296325,-0.196296339,1,0,0,0,174,174,8,1,knie,images/br_knie.png,images/cb_knie.png,0,,,,,,,,,,,,,,,,,,,,,,
,,,,,00093,2023-11-04_13h03.37.289,vbt_B2_day3,2022.2.4,Win32,60.00960154,,,,,,down,0,4.5383,,0.146296325,-0.196296339,1,0,0,0,175,175,140,1,blijven,images/br_blijven.png,images/cb_blijven.png,1,blijven,,,,,,,,,,,,,,,,,,,,,
,,,,,00093,2023-11-04_13h03.37.289,vbt_B2_day3,2022.2.4,Win32,60.00960154,,,,,,down,0,0.7558,,0.146296325,-0.196296339,1,0,0,0,176,176,36,1,vuur,images/br_vuur.png,images/cb_vuur.png,0,,,,,,,,,,,,,,,,,,,,,,
,,,,,00093,2023-11-04_13h03.37.289,vbt_B2_day3,2022.2.4,Win32,60.00960154,,,,,,down,0,0.524,,0.146296325,-0.196296339,1,0,0,0,177,177,32,1,palm,images/br_palm.png,images/cb_palm.png,0,,,,,,,,,,,,,,,,,,,,,,
,,,,,00093,2023-11-04_13h03.37.289,vbt_B2_day3,2022.2.4,Win32,60.00960154,,,,,,down,0,1.4282,,0.146296325,-0.196296339,1,0,0,0,178,178,127,1,doodmoe,images/br_doodmoe.png,images/cb_doodmoe.png,0,,,,,,,,,,,,,,,,,,,,,,
,,,,,00093,2023-11-04_13h03.37.289,vbt_B2_day3,2022.2.4,Win32,60.00960154,,,,,,down,0,2.0186,,0.146296325,-0.196296339,1,0,0,0,179,179,27,1,dans,images/br_dans.png,images/cb_dans.png,0,,,,,,,,,,,,,,,,,,,,,,
,,,,,00093,2023-11-04_13h03.37.289,vbt_B2_day3,2022.2.4,Win32,60.00960154,,,,,,down,0,6.1053,,0.146296325,-0.196296339,1,0,0,0,180,180,164,1,anarchie,images/br_anarchie.png,images/cb_anarchie.png,0,,,,,,,,,,,,,,,,,,,,,,
,,,,,00093,2023-11-04_13h03.37.289,vbt_B2_day3,2022.2.4,Win32,60.00960154,,,,,,down,0,0.0131,,0.146296325,-0.196296339,1,0,0,0,181,181,29,1,baas,images/br_baas.png,images/cb_baas.png,0,,,,,,,,,,,,,,,,,,,,,,
,,,,,00093,2023-11-04_13h03.37.289,vbt_B2_day3,2022.2.4,Win32,60.00960154,,,,,,down,0,1.4187,,0.146296325,-0.196296339,1,0,0,0,182,182,9,1,hier,images/br_hier.png,images/cb_hier.png,0,,,,,,,,,,,,,,,,,,,,,,
,,,,,00093,2023-11-04_13h03.37.289,vbt_B2_day3,2022.2.4,Win32,60.00960154,,,,,,down,0,8.8686,,0.146296325,-0.196296339,1,0,0,0,183,183,131,1,opzicht,images/br_opzicht.png,images/cb_opzicht.png,0,,,,,,,,,,,,,,,,,,,,,,
,,,,,00093,2023-11-04_13h03.37.289,vbt_B2_day3,2022.2.4,Win32,60.00960154,,,,,,down,0,1.5285,,0.146296325,-0.196296339,1,0,0,0,184,184,46,1,jagen,images/br_jagen.png,images/cb_jagen.png,0,,,,,,,,,,,,,,,,,,,,,,
,,,,,00093,2023-11-04_13h03.37.289,vbt_B2_day3,2022.2.4,Win32,60.00960154,,,,,,down,0,4.0976,,0.300000085,-0.047222243,1,0,0,0,185,185,44,1,flits,images/br_flits.png,images/cb_flits.png,0,,,,,,,,,,,,,,,,,,,,,,
,,,,,00093,2023-11-04_13h03.37.289,vbt_B2_day3,2022.2.4,Win32,60.00960154,,,,,,down,0,3.0235,,0.300000085,-0.047222243,1,0,0,0,186,186,68,1,schat,images/br_schat.png,images/cb_schat.png,0,,,,,,,,,,,,,,,,,,,,,,
,,,,,00093,2023-11-04_13h03.37.289,vbt_B2_day3,2022.2.4,Win32,60.00960154,,,,,,down,0,2.1397,,0.300000085,-0.047222243,1,0,0,0,187,187,45,1,piste,images/br_piste.png,images/cb_piste.png,0,,,,,,,,,,,,,,,,,,,,,,
,,,,,00093,2023-11-04_13h03.37.289,vbt_B2_day3,2022.2.4,Win32,60.00960154,,,,,,down,0,1.2483,,0.300000085,-0.047222243,1,0,0,0,188,188,107,1,maling,images/br_maling.png,images/cb_maling.png,0,,,,,,,,,,,,,,,,,,,,,,
,,,,,00093,2023-11-04_13h03.37.289,vbt_B2_day3,2022.2.4,Win32,60.00960154,,,,,,down,0,4.0857,,0.300000085,-0.047222243,1,0,0,0,189,189,119,1,liefje,images/br_liefje.png,images/cb_liefje.png,0,,,,,,,,,,,,,,,,,,,,,,
,,,,,00093,2023-11-04_13h03.37.289,vbt_B2_day3,2022.2.4,Win32,60.00960154,,,,,,down,0,7.9107,,0.300000085,-0.047222243,1,0,0,0,190,190,178,1,huisdier,images/br_huisdier.png,images/cb_huisdier.png,0,,,,,,,,,,,,,,,,,,,,,,
,,,,,00093,2023-11-04_13h03.37.289,vbt_B2_day3,2022.2.4,Win32,60.00960154,,,,,,down,0,1.5698,,0.300000085,-0.047222243,1,0,0,0,191,191,77,1,woede,images/br_woede.png,images/cb_woede.png,0,,,,,,,,,,,,,,,,,,,,,,
,,,,,00093,2023-11-04_13h03.37.289,vbt_B2_day3,2022.2.4,Win32,60.00960154,,,,,,down,0,5.9536,,0.300000085,-0.047222243,1,0,0,0,192,192,157,1,uitlaat,images/br_uitlaat.png,images/cb_uitlaat.png,0,,,,,,,,,,,,,,,,,,,,,,
,,,,,00093,2023-11-04_13h03.37.289,vbt_B2_day3,2022.2.4,Win32,60.00960154,,,,,,down,0,14.0726,,0.300000085,-0.047222243,1,0,0,0,193,193,191,1,opheffen,images/br_opheffen.png,images/cb_opheffen.png,0,,,,,,,,,,,,,,,,,,,,,,
,,,,,00093,2023-11-04_13h03.37.289,vbt_B2_day3,2022.2.4,Win32,60.00960154,,,,,,down,0,0.1443,,0.300000085,-0.047222243,1,0,0,0,194,194,38,1,baai,images/br_baai.png,images/cb_baai.png,0,,,,,,,,,,,,,,,,,,,,,,
,,,,,00093,2023-11-04_13h03.37.289,vbt_B2_day3,2022.2.4,Win32,60.00960154,,,,,,down,0,0.9856,,0.300000085,-0.047222243,1,0,0,0,195,195,41,1,maken,images/br_maken.png,images/cb_maken.png,0,,,,,,,,,,,,,,,,,,,,,,
,,,,,00093,2023-11-04_13h03.37.289,vbt_B2_day3,2022.2.4,Win32,60.00960154,,,,,,down,0,6.6609,,0.300000085,-0.047222243,1,0,0,0,196,196,31,1,poes,images/br_poes.png,images/cb_poes.png,0,,,,,,,,,,,,,,,,,,,,,,
,,,,,00093,2023-11-04_13h03.37.289,vbt_B2_day3,2022.2.4,Win32,60.00960154,,,,,,down,0,2.9163,,0.300000085,-0.047222243,1,0,0,0,197,197,118,1,vinger,images/br_vinger.png,images/cb_vinger.png,0,,,,,,,,,,,,,,,,,,,,,,
,,,,,00093,2023-11-04_13h03.37.289,vbt_B2_day3,2022.2.4,Win32,60.00960154,,,,,,down,0,4.187,,0.300000085,-0.047222243,1,0,0,0,198,198,124,1,bloeien,images/br_bloeien.png,images/cb_bloeien.png,0,,,,,,,,,,,,,,,,,,,,,,
,,,,,00093,2023-11-04_13h03.37.289,vbt_B2_day3,2022.2.4,Win32,60.00960154,,,,,,down,0,6.108,,0.300000085,-0.047222243,1,0,0,0,199,199,100,1,geduld,images/br_geduld.png,images/cb_geduld.png,1,geduld,,,,,,,,,,,,,,,,,,,,,
,,,,,00093,2023-11-04_13h03.37.289,vbt_B2_day3,2022.2.4,Win32,60.00960154,,,,,,,,,,,,,,,,,,,,,,,,,0.300000085,-0.047222243,1,0,0,,,,,,,,,,,,,,,,
,,,,,00093,2023-11-04_13h03.37.289,vbt_B2_day3,2022.2.4,Win32,60.00960154,,,,,,,,,,,,,,,,,,,,,,,,,,,,,,0.29814812,0.261111101,1,0,0,,,,,,,,,,,
,,,,,00093,2023-11-04_13h03.37.289,vbt_B2_day3,2022.2.4,Win32,60.00960154,,,,,,,,,,,,,,,,,,,,dwang,images/br_dwang.png,images/cb_dwang.png,,dwang,,,,,,,,,,,0.29814812,0.261111101,1,0,0,dwang,0,0,0,47,1
,,,,,00093,2023-11-04_13h03.37.289,vbt_B2_day3,2022.2.4,Win32,60.00960154,,,,,,,,,,,,,,,,,,,,stikken,images/br_stikken.png,images/cb_stikken.png,,stikken,,,,,,,,,,,0.244444459,0.173148155,1,0,0,stikken,0,1,1,54,1
,,,,,00093,2023-11-04_13h03.37.289,vbt_B2_day3,2022.2.4,Win32,60.00960154,,,,,,,,,,,,,,,,,,,,brappen,images/br_brappen.png,images/cb_brappen.png,,brappen,,,,,,,,,,,0.244444459,0.173148155,1,0,0,brappen,0,2,2,35,1
,,,,,00093,2023-11-04_13h03.37.289,vbt_B2_day3,2022.2.4,Win32,60.00960154,,,,,,,,,,,,,,,,,,,,kaas,images/br_kaas.png,images/cb_kaas.png,,kaas,,,,,,,,,,,0.308333362,0.087037016,1,0,0,kaas,0,3,3,42,1
,,,,,00093,2023-11-04_13h03.37.289,vbt_B2_day3,2022.2.4,Win32,60.00960154,,,,,,,,,,,,,,,,,,,,laken,images/br_laken.png,images/cb_laken.png,,laken,,,,,,,,,,,0.32222225,0.049074067,1,0,0,laken,0,4,4,5,1
,,,,,00093,2023-11-04_13h03.37.289,vbt_B2_day3,2022.2.4,Win32,60.00960154,,,,,,,,,,,,,,,,,,,,gout,images/br_gout.png,images/cb_gout.png,,gout,,,,,,,,,,,0.32222225,0.049074067,1,0,0,gout,0,5,5,20,1
,,,,,00093,2023-11-04_13h03.37.289,vbt_B2_day3,2022.2.4,Win32,60.00960154,,,,,,,,,,,,,,,,,,,,sultan,images/br_sultan.png,images/cb_sultan.png,,sultan,,,,,,,,,,,0.410185213,-0.0074074,1,0,0,sultan,0,6,6,49,1
,,,,,00093,2023-11-04_13h03.37.289,vbt_B2_day3,2022.2.4,Win32,60.00960154,,,,,,,,,,,,,,,,,,,,stoom,images/br_stoom.png,images/cb_stoom.png,,stoom,,,,,,,,,,,0.344444416,-0.064814815,1,0,0,stoom,0,7,7,6,1
,,,,,00093,2023-11-04_13h03.37.289,vbt_B2_day3,2022.2.4,Win32,60.00960154,,,,,,,,,,,,,,,,,,,,opzicht,images/br_opzicht.png,images/cb_opzicht.png,,opzocht,,,,,,,,,,,0.344444416,-0.064814815,1,0,0,opzocht,0,8,8,15,1
,,,,,00093,2023-11-04_13h03.37.289,vbt_B2_day3,2022.2.4,Win32,60.00960154,,,,,,,,,,,,,,,,,,,,samen,images/br_samen.png,images/cb_samen.png,,samen,,,,,,,,,,,0.306481538,-0.130555541,1,0,0,samen,0,9,9,7,1
,,,,,00093,2023-11-04_13h03.37.289,vbt_B2_day3,2022.2.4,Win32,60.00960154,,,,,,,,,,,,,,,,,,,,theeting,images/br_theeting.png,images/cb_theeting.png,,theeting,,,,,,,,,,,0.306481538,-0.130555541,1,0,0,theeting,0,10,10,38,1
,,,,,00093,2023-11-04_13h03.37.289,vbt_B2_day3,2022.2.4,Win32,60.00960154,,,,,,,,,,,,,,,,,,,,zone,images/br_zone.png,images/cb_zone.png,,zone,,,,,,,,,,,0.346296381,-0.118518547,1,0,0,zone,0,11,11,41,1
,,,,,00093,2023-11-04_13h03.37.289,vbt_B2_day3,2022.2.4,Win32,60.00960154,,,,,,,,,,,,,,,,,,,,kest,images/br_kest.png,images/cb_kest.png,,kist,,,,,,,,,,,0.308333362,-0.147222236,1,0,0,kist,0,12,12,21,1
,,,,,00093,2023-11-04_13h03.37.289,vbt_B2_day3,2022.2.4,Win32,60.00960154,,,,,,,,,,,,,,,,,,,,mode,images/br_mode.png,images/cb_mode.png,,mode,,,,,,,,,,,0.35555564,-0.10555557,1,0,0,mode,0,13,13,3,1
,,,,,00093,2023-11-04_13h03.37.289,vbt_B2_day3,2022.2.4,Win32,60.00960154,,,,,,,,,,,,,,,,,,,,steel,images/br_steel.png,images/cb_steel.png,,steel,,,,,,,,,,,0.375,-0.130555541,1,0,0,steel,0,14,14,4,1
,,,,,00093,2023-11-04_13h03.37.289,vbt_B2_day3,2022.2.4,Win32,60.00960154,,,,,,,,,,,,,,,,,,,,croo,images/br_croo.png,images/cb_croo.png,,croo,,,,,,,,,,,0.332407492,-0.150000042,1,0,0,croo,0,15,15,22,1
,,,,,00093,2023-11-04_13h03.37.289,vbt_B2_day3,2022.2.4,Win32,60.00960154,,,,,,,,,,,,,,,,,,,,afbopen,images/br_afbopen.png,images/cb_afbopen.png,,afbopen,,,,,,,,,,,0.336111139,-0.040740755,1,0,0,afbopen,0,16,16,34,1
,,,,,00093,2023-11-04_13h03.37.289,vbt_B2_day3,2022.2.4,Win32,60.00960154,,,,,,,,,,,,,,,,,,,,eens,images/br_eens.png,images/cb_eens.png,,eens,,,,,,,,,,,0.45648151,-0.077777792,1,0,0,eens,0,17,17,40,1
,,,,,00093,2023-11-04_13h03.37.289,vbt_B2_day3,2022.2.4,Win32,60.00960154,,,,,,,,,,,,,,,,,,,,prikken,images/br_prikken.png,images/cb_prikken.png,,prikken,,,,,,,,,,,0.429629714,-0.098148134,1,0,0,prikken,0,18,18,12,1
,,,,,00093,2023-11-04_13h03.37.289,vbt_B2_day3,2022.2.4,Win32,60.00960154,,,,,,,,,,,,,,,,,,,,geluid,images/br_geluid.png,images/cb_geluid.png,,geluid,,,,,,,,,,,0.40370376,-0.122222265,1,0,0,geluid,0,19,19,10,1
,,,,,00093,2023-11-04_13h03.37.289,vbt_B2_day3,2022.2.4,Win32,60.00960154,,,,,,,,,,,,,,,,,,,,makieren,images/br_makieren.png,images/cb_makieren.png,,makieren,,,,,,,,,,,0.444444444,-0.113888917,1,0,0,makieren,0,20,20,36,1
,,,,,00093,2023-11-04_13h03.37.289,vbt_B2_day3,2022.2.4,Win32,60.00960154,,,,,,,,,,,,,,,,,,,,paken,images/br_paken.png,images/cb_paken.png,,paken,,,,,,,,,,,0.444444444,-0.113888917,1,0,0,paken,0,21,21,27,1
,,,,,00093,2023-11-04_13h03.37.289,vbt_B2_day3,2022.2.4,Win32,60.00960154,,,,,,,,,,,,,,,,,,,,beslag,images/br_beslag.png,images/cb_beslag.png,,beslag,,,,,,,,,,,0.40370376,-0.148148148,1,0,0,beslag,0,22,22,51,1
,,,,,00093,2023-11-04_13h03.37.289,vbt_B2_day3,2022.2.4,Win32,60.00960154,,,,,,,,,,,,,,,,,,,,gebod,images/br_gebod.png,images/cb_gebod.png,,gebod,,,,,,,,,,,0.376851824,-0.168518561,1,0,0,gebod,0,23,23,45,1
,,,,,00093,2023-11-04_13h03.37.289,vbt_B2_day3,2022.2.4,Win32,60.00960154,,,,,,,,,,,,,,,,,,,,schodel,images/br_schodel.png,images/cb_schodel.png,,scho.el,,,,,,,,,,,0.442592621,-0.171296296,1,0,0,scho.el,0,24,24,33,1
,,,,,00093,2023-11-04_13h03.37.289,vbt_B2_day3,2022.2.4,Win32,60.00960154,,,,,,,,,,,,,,,,,,,,booien,images/br_booien.png,images/cb_booien.png,,booien,,,,,,,,,,,0.442592621,-0.171296296,1,0,0,booien,0,25,25,31,1
,,,,,00093,2023-11-04_13h03.37.289,vbt_B2_day3,2022.2.4,Win32,60.00960154,,,,,,,,,,,,,,,,,,,,uviek,images/br_uviek.png,images/cb_uviek.png,,uviek,,,,,,,,,,,0.442592621,-0.171296296,1,0,0,uviek,0,26,26,25,1
,,,,,00093,2023-11-04_13h03.37.289,vbt_B2_day3,2022.2.4,Win32,60.00960154,,,,,,,,,,,,,,,,,,,,begrip,images/br_begrip.png,images/cb_begrip.png,,begr..,,,,,,,,,,,0.362962935,-0.193518533,1,0,0,begr..,0,27,27,48,1
,,,,,00093,2023-11-04_13h03.37.289,vbt_B2_day3,2022.2.4,Win32,60.00960154,,,,,,,,,,,,,,,,,,,,verraden,images/br_verraden.png,images/cb_verraden.png,,verraden,,,,,,,,,,,0.40370376,-0.171296296,1,0,0,verraden,0,28,28,58,1
,,,,,00093,2023-11-04_13h03.37.289,vbt_B2_day3,2022.2.4,Win32,60.00960154,,,,,,,,,,,,,,,,,,,,oprotten,images/br_oprotten.png,images/cb_oprotten.png,,oprotten,,,,,,,,,,,0.441666638,-0.137962977,1,0,0,oprotten,0,29,29,17,1
,,,,,00093,2023-11-04_13h03.37.289,vbt_B2_day3,2022.2.4,Win32,60.00960154,,,,,,,,,,,,,,,,,,,,mugeek,images/br_mugeek.png,images/cb_mugeek.png,,mugeek,,,,,,,,,,,0.441666638,-0.137962977,1,0,0,mugeek,0,30,30,29,1
,,,,,00093,2023-11-04_13h03.37.289,vbt_B2_day3,2022.2.4,Win32,60.00960154,,,,,,,,,,,,,,,,,,,,hust,images/br_hust.png,images/cb_hust.png,,hust,,,,,,,,,,,0.387963048,-0.154629672,1,0,0,hust,0,31,31,23,1
,,,,,00093,2023-11-04_13h03.37.289,vbt_B2_day3,2022.2.4,Win32,60.00960154,,,,,,,,,,,,,,,,,,,,invallen,images/br_invallen.png,images/cb_invallen.png,,invullen,,,,,,,,,,,0.416666667,-0.148148148,1,0,0,invullen,0,32,32,57,1
,,,,,00093,2023-11-04_13h03.37.289,vbt_B2_day3,2022.2.4,Win32,60.00960154,,,,,,,,,,,,,,,,,,,,hier,images/br_hier.png,images/cb_hier.png,,hier,,,,,,,,,,,0.383333418,-0.167592578,1,0,0,hier,0,33,33,1,1
,,,,,00093,2023-11-04_13h03.37.289,vbt_B2_day3,2022.2.4,Win32,60.00960154,,,,,,,,,,,,,,,,,,,,leek,images/br_leek.png,images/cb_leek.png,,leek,,,,,,,,,,,0.411111196,-0.125,1,0,0,leek,0,34,34,2,1
,,,,,00093,2023-11-04_13h03.37.289,vbt_B2_day3,2022.2.4,Win32,60.00960154,,,,,,,,,,,,,,,,,,,,verhaal,images/br_verhaal.png,images/cb_verhaal.png,,verhaal,,,,,,,,,,,0.393518519,-0.137962977,1,0,0,verhaal,0,35,35,13,1
,,,,,00093,2023-11-04_13h03.37.289,vbt_B2_day3,2022.2.4,Win32,60.00960154,,,,,,,,,,,,,,,,,,,,kwaas,images/br_kwaas.png,images/cb_kwaas.png,,kwaas,,,,,,,,,,,0.455555527,-0.128703718,1,0,0,kwaas,0,36,36,26,1
,,,,,00093,2023-11-04_13h03.37.289,vbt_B2_day3,2022.2.4,Win32,60.00960154,,,,,,,,,,,,,,,,,,,,bisschop,images/br_bisschop.png,images/cb_bisschop.png,,bisschop,,,,,,,,,,,0.498148176,-0.104629658,1,0,0,bisschop,0,37,37,16,1
,,,,,00093,2023-11-04_13h03.37.289,vbt_B2_day3,2022.2.4,Win32,60.00960154,,,,,,,,,,,,,,,,,,,,keihard,images/br_keihard.png,images/cb_keihard.png,,keihard,,,,,,,,,,,0.490740741,-0.112963005,1,0,0,keihard,0,38,38,14,1
,,,,,00093,2023-11-04_13h03.37.289,vbt_B2_day3,2022.2.4,Win32,60.00960154,,,,,,,,,,,,,,,,,,,,verwoor,images/br_verwoor.png,images/cb_verwoor.png,,verwoor,,,,,,,,,,,0.458333333,-0.154629672,1,0,0,verwoor,0,39,39,32,1
,,,,,00093,2023-11-04_13h03.37.289,vbt_B2_day3,2022.2.4,Win32,60.00960154,,,,,,,,,,,,,,,,,,,,schatten,images/br_schatten.png,images/cb_schatten.png,,schatten,,,,,,,,,,,0.416666667,-0.172222208,1,0,0,schatten,0,40,40,18,1
,,,,,00093,2023-11-04_13h03.37.289,vbt_B2_day3,2022.2.4,Win32,60.00960154,,,,,,,,,,,,,,,,,,,,alsof,images/br_alsof.png,images/cb_alsof.png,,alsof,,,,,,,,,,,0.473148205,-0.145370413,1,0,0,alsof,0,41,41,44,1
,,,,,00093,2023-11-04_13h03.37.289,vbt_B2_day3,2022.2.4,Win32,60.00960154,,,,,,,,,,,,,,,,,,,,opzetten,images/br_opzetten.png,images/cb_opzetten.png,,opzetten,,,,,,,,,,,0.442592621,-0.161111125,1,0,0,opzetten,0,42,42,56,1
,,,,,00093,2023-11-04_13h03.37.289,vbt_B2_day3,2022.2.4,Win32,60.00960154,,,,,,,,,,,,,,,,,,,,slapen,images/br_slapen.png,images/cb_slapen.png,,slapen,,,,,,,,,,,0.48055564,-0.132407436,1,0,0,slapen,0,43,43,9,1
,,,,,00093,2023-11-04_13h03.37.289,vbt_B2_day3,2022.2.4,Win32,60.00960154,,,,,,,,,,,,,,,,,,,,leugeren,images/br_leugeren.png,images/cb_leugeren.png,,leugens,,,,,,,,,,,0.48055564,-0.132407436,1,0,0,leugens,0,44,44,37,1
,,,,,00093,2023-11-04_13h03.37.289,vbt_B2_day3,2022.2.4,Win32,60.00960154,,,,,,,,,,,,,,,,,,,,sluier,images/br_sluier.png,images/cb_sluier.png,,sluier,,,,,,,,,,,0.48055564,-0.132407436,1,0,0,sluier,0,45,45,50,1
,,,,,00093,2023-11-04_13h03.37.289,vbt_B2_day3,2022.2.4,Win32,60.00960154,,,,,,,,,,,,,,,,,,,,glijden,images/br_glijden.png,images/cb_glijden.png,,glijden,,,,,,,,,,,0.461111139,-0.152777778,1,0,0,glijden,0,46,46,53,1
,,,,,00093,2023-11-04_13h03.37.289,vbt_B2_day3,2022.2.4,Win32,60.00960154,,,,,,,,,,,,,,,,,,,,vlager,images/br_vlager.png,images/cb_vlager.png,,vlager,,,,,,,,,,,0.491666723,-0.137962977,1,0,0,vlager,0,47,47,28,1
,,,,,00093,2023-11-04_13h03.37.289,vbt_B2_day3,2022.2.4,Win32,60.00960154,,,,,,,,,,,,,,,,,,,,hint,images/br_hint.png,images/cb_hint.png,,hint,,,,,,,,,,,0.442592621,-0.162037037,1,0,0,hint,0,48,48,43,1
,,,,,00093,2023-11-04_13h03.37.289,vbt_B2_day3,2022.2.4,Win32,60.00960154,,,,,,,,,,,,,,,,,,,,aarzelen,images/br_aarzelen.png,images/cb_aarzelen.png,,aarzelen,,,,,,,,,,,0.438888974,-0.166666667,1,0,0,aarzelen,0,49,49,19,1
,,,,,00093,2023-11-04_13h03.37.289,vbt_B2_day3,2022.2.4,Win32,60.00960154,,,,,,,,,,,,,,,,,,,,onrecht,images/br_onrecht.png,images/cb_onrecht.png,,onrecht,,,,,,,,,,,0.361111111,-0.224074116,1,0,0,onrecht,0,50,50,55,1
,,,,,00093,2023-11-04_13h03.37.289,vbt_B2_day3,2022.2.4,Win32,60.00960154,,,,,,,,,,,,,,,,,,,,stallen,images/br_stallen.png,images/cb_stallen.png,,stallen,,,,,,,,,,,0.383333418,-0.205555598,1,0,0,stallen,0,51,51,52,1
,,,,,00093,2023-11-04_13h03.37.289,vbt_B2_day3,2022.2.4,Win32,60.00960154,,,,,,,,,,,,,,,,,,,,jongelui,images/br_jongelui.png,images/cb_jongelui.png,,jongel..,,,,,,,,,,,0.455555527,-0.143518519,1,0,0,jongel..,0,52,52,59,1
,,,,,00093,2023-11-04_13h03.37.289,vbt_B2_day3,2022.2.4,Win32,60.00960154,,,,,,,,,,,,,,,,,,,,knie,images/br_knie.png,images/cb_knie.png,,knie,,,,,,,,,,,0.487037094,-0.126851894,1,0,0,knie,0,53,53,0,1
,,,,,00093,2023-11-04_13h03.37.289,vbt_B2_day3,2022.2.4,Win32,60.00960154,,,,,,,,,,,,,,,,,,,,bevret,images/br_bevret.png,images/cb_bevret.png,,bevret,,,,,,,,,,,0.487037094,-0.126851894,1,0,0,bevret,0,54,54,30,1
,,,,,00093,2023-11-04_13h03.37.289,vbt_B2_day3,2022.2.4,Win32,60.00960154,,,,,,,,,,,,,,,,,,,,leemaken,images/br_leemaken.png,images/cb_leemaken.png,,leemaken,,,,,,,,,,,0.551851908,-0.102777764,1,0,0,leemaken,0,55,55,39,1
,,,,,00093,2023-11-04_13h03.37.289,vbt_B2_day3,2022.2.4,Win32,60.00960154,,,,,,,,,,,,,,,,,,,,uniek,images/br_uniek.png,images/cb_uniek.png,,uniek,,,,,,,,,,,0.52870376,-0.124074088,1,0,0,uniek,0,56,56,46,1
,,,,,00093,2023-11-04_13h03.37.289,vbt_B2_day3,2022.2.4,Win32,60.00960154,,,,,,,,,,,,,,,,,,,,twaaf,images/br_twaaf.png,images/cb_twaaf.png,,twaaf,,,,,,,,,,,0.483333305,-0.162037037,1,0,0,twaaf,0,57,57,24,1
,,,,,00093,2023-11-04_13h03.37.289,vbt_B2_day3,2022.2.4,Win32,60.00960154,,,,,,,,,,,,,,,,,,,,gezond,images/br_gezond.png,images/cb_gezond.png,,gezond,,,,,,,,,,,0.450000057,-0.187037079,1,0,0,gezond,0,58,58,11,1
,,,,,00093,2023-11-04_13h03.37.289,vbt_B2_day3,2022.2.4,Win32,60.00960154,,,,,,,,,,,,,,,,,,,,boeien,images/br_boeien.png,images/cb_boeien.png,,boeien,,,,,,,,,,,0.414814843,-0.207407422,1,0,0,boeien,0,59,59,8,1
,,,,,00093,2023-11-04_13h03.37.289,vbt_B2_day3,2022.2.4,Win32,60.00960154,,,,,,,,,,,,,,,,,,,,,,,,,,,,,,,,,,,,,,,,,,,,,
