welcome_mouse.x,welcome_mouse.y,welcome_mouse.leftButton,welcome_mouse.midButton,welcome_mouse.rightButton,"ID",date,expName,psychopyVersion,OS,frameRate,trainInstr_mouse.x,trainInstr_mouse.y,trainInstr_mouse.leftButton,trainInstr_mouse.midButton,trainInstr_mouse.rightButton,translation_key.keys,translation_key.corr,translation_key.rt,word_rsp.text,trWrd_mouse.x,trWrd_mouse.y,trWrd_mouse.leftButton,trWrd_mouse.midButton,trWrd_mouse.rightButton,train_loop.thisRepN,train_loop.thisTrialN,train_loop.thisN,train_loop.thisIndex,train_loop.ran,nlWrd,brWrd,cbWrd,test,testResp,mouse.x,mouse.y,mouse.leftButton,mouse.midButton,mouse.rightButton,testInstr_mouse.x,testInstr_mouse.y,testInstr_mouse.leftButton,testInstr_mouse.midButton,testInstr_mouse.rightButton,test_mouse.x,test_mouse.y,test_mouse.leftButton,test_mouse.midButton,test_mouse.rightButton,test_response.text,test_loop.thisRepN,test_loop.thisTrialN,test_loop.thisN,test_loop.thisIndex,test_loop.ran
0.482926829,-0.147560976,1,0,0,00056,2023-10-14_13h52.51.577,vbt_B2_day3,2022.2.4,MacIntel,47.61904762,,,,,,,,,,,,,,,,,,,,,,,,,,,,,,,,,,,,,,,,,,,,,
,,,,,00056,2023-10-14_13h52.51.577,vbt_B2_day3,2022.2.4,MacIntel,47.61904762,0.482926829,-0.147560976,1,0,0,,,,,,,,,,,,,,,,,,,,,,,,,,,,,,,,,,,,,,,,
,,,,,00056,2023-10-14_13h52.51.577,vbt_B2_day3,2022.2.4,MacIntel,47.61904762,,,,,,down,0,9.464,,0.514634146,-0.135365854,1,0,0,0,0,0,86,1,woning,images/br_woning.png,images/cb_woning.png,0,,,,,,,,,,,,,,,,,,,,,,
,,,,,00056,2023-10-14_13h52.51.577,vbt_B2_day3,2022.2.4,MacIntel,47.61904762,,,,,,down,0,3.148,,0.576829268,-0.13902439,1,0,0,0,1,1,3,1,mand,images/br_mand.png,images/cb_mand.png,0,,,,,,,,,,,,,,,,,,,,,,
,,,,,00056,2023-10-14_13h52.51.577,vbt_B2_day3,2022.2.4,MacIntel,47.61904762,,,,,,down,0,12.08,,0.595121951,-0.254878049,1,0,0,0,2,2,133,1,seizoen,images/br_seizoen.png,images/cb_seizoen.png,0,,,,,,,,,,,,,,,,,,,,,,
,,,,,00056,2023-10-14_13h52.51.577,vbt_B2_day3,2022.2.4,MacIntel,47.61904762,,,,,,down,0,11.814,,0.570731707,-0.124390244,1,0,0,0,3,3,177,1,maaltijd,images/br_maaltijd.png,images/cb_maaltijd.png,0,,,,,,,,,,,,,,,,,,,,,,
,,,,,00056,2023-10-14_13h52.51.577,vbt_B2_day3,2022.2.4,MacIntel,47.61904762,,,,,,down,0,32.465,,0.457317073,-0.12195122,1,0,0,0,4,4,49,1,laken,images/br_laken.png,images/cb_laken.png,0,,,,,,,,,,,,,,,,,,,,,,
,,,,,00056,2023-10-14_13h52.51.577,vbt_B2_day3,2022.2.4,MacIntel,47.61904762,,,,,,down,0,3.016,,0.542682927,-0.195121951,1,0,0,0,5,5,117,1,kennis,images/br_kennis.png,images/cb_kennis.png,0,,,,,,,,,,,,,,,,,,,,,,
,,,,,00056,2023-10-14_13h52.51.577,vbt_B2_day3,2022.2.4,MacIntel,47.61904762,,,,,,down,0,30.145,,0.523170732,-0.254878049,1,0,0,0,6,6,190,1,goedkoop,images/br_goedkoop.png,images/cb_goedkoop.png,0,,,,,,,,,,,,,,,,,,,,,,
,,,,,00056,2023-10-14_13h52.51.577,vbt_B2_day3,2022.2.4,MacIntel,47.61904762,,,,,,down,0,22.046,,0.556097561,-0.185365854,1,0,0,0,7,7,31,1,poes,images/br_poes.png,images/cb_poes.png,0,,,,,,,,,,,,,,,,,,,,,,
,,,,,00056,2023-10-14_13h52.51.577,vbt_B2_day3,2022.2.4,MacIntel,47.61904762,,,,,,down,0,9.797,,0.537804878,-0.126829268,1,0,0,0,8,8,124,1,bloeien,images/br_bloeien.png,images/cb_bloeien.png,0,,,,,,,,,,,,,,,,,,,,,,
,,,,,00056,2023-10-14_13h52.51.577,vbt_B2_day3,2022.2.4,MacIntel,47.61904762,,,,,,down,0,5.614,,0.557317073,-0.212195122,1,0,0,0,9,9,167,1,eenhoorn,images/br_eenhoorn.png,images/cb_eenhoorn.png,0,,,,,,,,,,,,,,,,,,,,,,
,,,,,00056,2023-10-14_13h52.51.577,vbt_B2_day3,2022.2.4,MacIntel,47.61904762,,,,,,down,0,1.513,,0.556097561,-0.280487805,1,0,0,0,10,10,148,1,smullen,images/br_smullen.png,images/cb_smullen.png,0,,,,,,,,,,,,,,,,,,,,,,
,,,,,00056,2023-10-14_13h52.51.577,vbt_B2_day3,2022.2.4,MacIntel,47.61904762,,,,,,down,0,1.434,,0.553658537,-0.303658537,1,0,0,0,11,11,107,1,maling,images/br_maling.png,images/cb_maling.png,0,,,,,,,,,,,,,,,,,,,,,,
,,,,,00056,2023-10-14_13h52.51.577,vbt_B2_day3,2022.2.4,MacIntel,47.61904762,,,,,,down,0,2.431,,0.554878049,-0.236585366,1,0,0,0,12,12,83,1,mening,images/br_mening.png,images/cb_mening.png,0,,,,,,,,,,,,,,,,,,,,,,
,,,,,00056,2023-10-14_13h52.51.577,vbt_B2_day3,2022.2.4,MacIntel,47.61904762,,,,,,down,0,2.61,,0.551219512,-0.302439024,1,0,0,0,13,13,56,1,traag,images/br_traag.png,images/cb_traag.png,0,,,,,,,,,,,,,,,,,,,,,,
,,,,,00056,2023-10-14_13h52.51.577,vbt_B2_day3,2022.2.4,MacIntel,47.61904762,,,,,,down,0,5.73,,0.559756098,-0.27804878,1,0,0,0,14,14,121,1,twijfel,images/br_twijfel.png,images/cb_twijfel.png,0,,,,,,,,,,,,,,,,,,,,,,
,,,,,00056,2023-10-14_13h52.51.577,vbt_B2_day3,2022.2.4,MacIntel,47.61904762,,,,,,down,0,1.281,,0.57804878,-0.314634146,1,0,0,0,15,15,73,1,volop,images/br_volop.png,images/cb_volop.png,0,,,,,,,,,,,,,,,,,,,,,,
,,,,,00056,2023-10-14_13h52.51.577,vbt_B2_day3,2022.2.4,MacIntel,47.61904762,,,,,,down,0,2.664,,0.52804878,-0.26097561,1,0,0,0,16,16,87,1,toeval,images/br_toeval.png,images/cb_toeval.png,0,,,,,,,,,,,,,,,,,,,,,,
,,,,,00056,2023-10-14_13h52.51.577,vbt_B2_day3,2022.2.4,MacIntel,47.61904762,,,,,,down,0,4.231,,0.534146341,-0.290243902,1,0,0,0,17,17,41,1,maken,images/br_maken.png,images/cb_maken.png,0,,,,,,,,,,,,,,,,,,,,,,
,,,,,00056,2023-10-14_13h52.51.577,vbt_B2_day3,2022.2.4,MacIntel,47.61904762,,,,,,down,0,1.931,,0.557317073,-0.286585366,1,0,0,0,18,18,11,1,mode,images/br_mode.png,images/cb_mode.png,0,,,,,,,,,,,,,,,,,,,,,,
,,,,,00056,2023-10-14_13h52.51.577,vbt_B2_day3,2022.2.4,MacIntel,47.61904762,,,,,,down,0,2.298,,0.590243902,-0.342682927,1,0,0,0,19,19,50,1,stoom,images/br_stoom.png,images/cb_stoom.png,0,,,,,,,,,,,,,,,,,,,,,,
,,,,,00056,2023-10-14_13h52.51.577,vbt_B2_day3,2022.2.4,MacIntel,47.61904762,,,,,,down,0,1.198,,0.569512195,-0.268292683,1,0,0,0,20,20,144,1,eetlust,images/br_eetlust.png,images/cb_eetlust.png,0,,,,,,,,,,,,,,,,,,,,,,
,,,,,00056,2023-10-14_13h52.51.577,vbt_B2_day3,2022.2.4,MacIntel,47.61904762,,,,,,down,0,0.336,,0.576829268,-0.304878049,1,0,0,0,21,21,5,1,blad,images/br_blad.png,images/cb_blad.png,0,,,,,,,,,,,,,,,,,,,,,,
,,,,,00056,2023-10-14_13h52.51.577,vbt_B2_day3,2022.2.4,MacIntel,47.61904762,,,,,,down,0,4.699,,0.52804878,-0.342682927,1,0,0,0,22,22,134,1,geliefd,images/br_geliefd.png,images/cb_geliefd.png,0,,,,,,,,,,,,,,,,,,,,,,
,,,,,00056,2023-10-14_13h52.51.577,vbt_B2_day3,2022.2.4,MacIntel,47.61904762,,,,,,down,0,3.697,,0.582926829,-0.285365854,1,0,0,0,23,23,169,1,oprotten,images/br_oprotten.png,images/cb_oprotten.png,0,,,,,,,,,,,,,,,,,,,,,,
,,,,,00056,2023-10-14_13h52.51.577,vbt_B2_day3,2022.2.4,MacIntel,47.61904762,,,,,,down,0,23.945,,0.594670407,-0.199859748,1,0,0,0,24,24,20,1,site,images/br_site.png,images/cb_site.png,1,Site,,,,,,,,,,,,,,,,,,,,,
,,,,,00056,2023-10-14_13h52.51.577,vbt_B2_day3,2022.2.4,MacIntel,47.61904762,,,,,,down,0,3.731,,0.640953717,-0.180224404,1,0,0,0,25,25,157,1,uitlaat,images/br_uitlaat.png,images/cb_uitlaat.png,0,,,,,,,,,,,,,,,,,,,,,,
,,,,,00056,2023-10-14_13h52.51.577,vbt_B2_day3,2022.2.4,MacIntel,47.61904762,,,,,,down,0,3.93,,0.622720898,-0.213884993,1,0,0,0,26,26,139,1,stiekem,images/br_stiekem.png,images/cb_stiekem.png,0,,,,,,,,,,,,,,,,,,,,,,
,,,,,00056,2023-10-14_13h52.51.577,vbt_B2_day3,2022.2.4,MacIntel,47.61904762,,,,,,down,0,4.216,,0.654978962,-0.149368864,1,0,0,0,27,27,188,1,strekken,images/br_strekken.png,images/cb_strekken.png,0,,,,,,,,,,,,,,,,,,,,,,
,,,,,00056,2023-10-14_13h52.51.577,vbt_B2_day3,2022.2.4,MacIntel,47.61904762,,,,,,down,0,18.081,,0.729312763,-0.070827489,1,0,0,0,28,28,16,1,ziek,images/br_ziek.png,images/cb_ziek.png,0,,,,,,,,,,,,,,,,,,,,,,
,,,,,00056,2023-10-14_13h52.51.577,vbt_B2_day3,2022.2.4,MacIntel,47.61904762,,,,,,down,0,4.233,,0.680224404,-0.17601683,1,0,0,0,29,29,116,1,besmet,images/br_besmet.png,images/cb_besmet.png,0,,,,,,,,,,,,,,,,,,,,,,
,,,,,00056,2023-10-14_13h52.51.577,vbt_B2_day3,2022.2.4,MacIntel,47.61904762,,,,,,down,0,3.733,,0.683029453,-0.056802244,1,0,0,0,30,30,197,1,spanning,images/br_spanning.png,images/cb_spanning.png,0,,,,,,,,,,,,,,,,,,,,,,
,,,,,00056,2023-10-14_13h52.51.577,vbt_B2_day3,2022.2.4,MacIntel,47.61904762,,,,,,down,0,0.499,,0.664796634,-0.17601683,1,0,0,0,31,31,19,1,geit,images/br_geit.png,images/cb_geit.png,0,,,,,,,,,,,,,,,,,,,,,,
,,,,,00056,2023-10-14_13h52.51.577,vbt_B2_day3,2022.2.4,MacIntel,47.61904762,,,,,,down,0,0.715,,0.633941094,-0.178821879,1,0,0,0,32,32,82,1,muziek,images/br_muziek.png,images/cb_muziek.png,0,,,,,,,,,,,,,,,,,,,,,,
,,,,,00056,2023-10-14_13h52.51.577,vbt_B2_day3,2022.2.4,MacIntel,47.61904762,,,,,,down,0,5.182,,0.612903226,-0.142356241,1,0,0,0,33,33,111,1,ticket,images/br_ticket.png,images/cb_ticket.png,0,,,,,,,,,,,,,,,,,,,,,,
,,,,,00056,2023-10-14_13h52.51.577,vbt_B2_day3,2022.2.4,MacIntel,47.61904762,,,,,,down,0,2.231,,0.622720898,-0.156381487,1,0,0,0,34,34,9,1,hier,images/br_hier.png,images/cb_hier.png,0,,,,,,,,,,,,,,,,,,,,,,
,,,,,00056,2023-10-14_13h52.51.577,vbt_B2_day3,2022.2.4,MacIntel,47.61904762,,,,,,down,0,2.6,,0.702664797,-0.20687237,1,0,0,0,35,35,189,1,aanraden,images/br_aanraden.png,images/cb_aanraden.png,0,,,,,,,,,,,,,,,,,,,,,,
,,,,,00056,2023-10-14_13h52.51.577,vbt_B2_day3,2022.2.4,MacIntel,47.61904762,,,,,,down,0,3.914,,0.659186536,-0.080645161,1,0,0,0,36,36,164,1,anarchie,images/br_anarchie.png,images/cb_anarchie.png,0,,,,,,,,,,,,,,,,,,,,,,
,,,,,00056,2023-10-14_13h52.51.577,vbt_B2_day3,2022.2.4,MacIntel,47.61904762,,,,,,down,0,3.998,,0.698457223,-0.108695652,1,0,0,0,37,37,195,1,middelen,images/br_middelen.png,images/cb_middelen.png,0,,,,,,,,,,,,,,,,,,,,,,
,,,,,00056,2023-10-14_13h52.51.577,vbt_B2_day3,2022.2.4,MacIntel,47.61904762,,,,,,down,0,3.132,,0.611500701,-0.132538569,1,0,0,0,38,38,192,1,schaamte,images/br_schaamte.png,images/cb_schaamte.png,0,,,,,,,,,,,,,,,,,,,,,,
,,,,,00056,2023-10-14_13h52.51.577,vbt_B2_day3,2022.2.4,MacIntel,47.61904762,,,,,,down,0,0.932,,0.711079944,-0.128330996,1,0,0,0,39,39,7,1,geld,images/br_geld.png,images/cb_geld.png,0,,,,,,,,,,,,,,,,,,,,,,
,,,,,00056,2023-10-14_13h52.51.577,vbt_B2_day3,2022.2.4,MacIntel,47.61904762,,,,,,down,0,0.3,,0.671809257,-0.089060309,1,0,0,0,40,40,18,1,blik,images/br_blik.png,images/cb_blik.png,0,,,,,,,,,,,,,,,,,,,,,,
,,,,,00056,2023-10-14_13h52.51.577,vbt_B2_day3,2022.2.4,MacIntel,47.61904762,,,,,,down,0,1.317,,0.652173913,-0.079242637,1,0,0,0,41,41,89,1,slapen,images/br_slapen.png,images/cb_slapen.png,0,,,,,,,,,,,,,,,,,,,,,,
,,,,,00056,2023-10-14_13h52.51.577,vbt_B2_day3,2022.2.4,MacIntel,47.61904762,,,,,,down,0,0.033,,0.716690042,-0.087657784,1,0,0,0,42,42,171,1,aarzelen,images/br_aarzelen.png,images/cb_aarzelen.png,0,,,,,,,,,,,,,,,,,,,,,,
,,,,,00056,2023-10-14_13h52.51.577,vbt_B2_day3,2022.2.4,MacIntel,47.61904762,,,,,,down,0,5.782,,0.649368864,-0.082047686,1,0,0,0,43,43,147,1,komisch,images/br_komisch.png,images/cb_komisch.png,0,,,,,,,,,,,,,,,,,,,,,,
,,,,,00056,2023-10-14_13h52.51.577,vbt_B2_day3,2022.2.4,MacIntel,47.61904762,,,,,,down,0,1.699,,0.688639551,-0.142356241,1,0,0,0,44,44,151,1,aanzoek,images/br_aanzoek.png,images/cb_aanzoek.png,0,,,,,,,,,,,,,,,,,,,,,,
,,,,,00056,2023-10-14_13h52.51.577,vbt_B2_day3,2022.2.4,MacIntel,47.61904762,,,,,,down,0,6.833,,0.669004208,-0.183029453,1,0,0,0,45,45,52,1,wagon,images/br_wagon.png,images/cb_wagon.png,0,,,,,,,,,,,,,,,,,,,,,,
,,,,,00056,2023-10-14_13h52.51.577,vbt_B2_day3,2022.2.4,MacIntel,47.61904762,,,,,,down,0,0.149,,0.67601683,-0.091865358,1,0,0,0,46,46,84,1,lokken,images/br_lokken.png,images/cb_lokken.png,0,,,,,,,,,,,,,,,,,,,,,,
,,,,,00056,2023-10-14_13h52.51.577,vbt_B2_day3,2022.2.4,MacIntel,47.61904762,,,,,,down,0,7.533,,0.736325386,-0.152173913,1,0,0,0,47,47,130,1,keihard,images/br_keihard.png,images/cb_keihard.png,0,,,,,,,,,,,,,,,,,,,,,,
,,,,,00056,2023-10-14_13h52.51.577,vbt_B2_day3,2022.2.4,MacIntel,47.61904762,,,,,,down,0,10.125,,0.555399719,-0.066619916,1,0,0,0,48,48,143,1,hechten,images/br_hechten.png,images/cb_hechten.png,1,Hechten,,,,,,,,,,,,,,,,,,,,,
,,,,,00056,2023-10-14_13h52.51.577,vbt_B2_day3,2022.2.4,MacIntel,47.61904762,,,,,,down,0,1.735,,0.50911641,-0.264375877,1,0,0,0,49,49,27,1,dans,images/br_dans.png,images/cb_dans.png,0,,,,,,,,,,,,,,,,,,,,,,
,,,,,00056,2023-10-14_13h52.51.577,vbt_B2_day3,2022.2.4,MacIntel,47.61904762,,,,,,down,0,0.548,,0.617110799,-0.208274895,1,0,0,0,50,50,78,1,leren,images/br_leren.png,images/cb_leren.png,0,,,,,,,,,,,,,,,,,,,,,,
,,,,,00056,2023-10-14_13h52.51.577,vbt_B2_day3,2022.2.4,MacIntel,47.61904762,,,,,,down,0,2.615,,0.61430575,-0.197054698,1,0,0,0,51,51,186,1,voorraad,images/br_voorraad.png,images/cb_voorraad.png,0,,,,,,,,,,,,,,,,,,,,,,
,,,,,00056,2023-10-14_13h52.51.577,vbt_B2_day3,2022.2.4,MacIntel,47.61904762,,,,,,down,0,4.799,,0.647966339,-0.163394109,1,0,0,0,52,52,103,1,joggen,images/br_joggen.png,images/cb_joggen.png,1,Joggen,,,,,,,,,,,,,,,,,,,,,
,,,,,00056,2023-10-14_13h52.51.577,vbt_B2_day3,2022.2.4,MacIntel,47.61904762,,,,,,down,0,5.666,,0.59887798,-0.132538569,1,0,0,0,53,53,74,1,graaf,images/br_graaf.png,images/cb_graaf.png,0,,,,,,,,,,,,,,,,,,,,,,
,,,,,00056,2023-10-14_13h52.51.577,vbt_B2_day3,2022.2.4,MacIntel,47.61904762,,,,,,down,0,4.55,,0.612903226,-0.190042076,1,0,0,0,54,54,24,1,jurk,images/br_jurk.png,images/cb_jurk.png,0,,,,,,,,,,,,,,,,,,,,,,
,,,,,00056,2023-10-14_13h52.51.577,vbt_B2_day3,2022.2.4,MacIntel,47.61904762,,,,,,down,0,0.698,,0.657784011,-0.164796634,1,0,0,0,55,55,8,1,knie,images/br_knie.png,images/cb_knie.png,0,,,,,,,,,,,,,,,,,,,,,,
,,,,,00056,2023-10-14_13h52.51.577,vbt_B2_day3,2022.2.4,MacIntel,47.61904762,,,,,,down,0,4.298,,0.678821879,-0.178821879,1,0,0,0,56,56,113,1,koppen,images/br_koppen.png,images/cb_koppen.png,0,,,,,,,,,,,,,,,,,,,,,,
,,,,,00056,2023-10-14_13h52.51.577,vbt_B2_day3,2022.2.4,MacIntel,47.61904762,,,,,,down,0,4.866,,0.586255259,-0.048387097,1,0,0,0,57,57,92,1,geheim,images/br_geheim.png,images/cb_geheim.png,0,,,,,,,,,,,,,,,,,,,,,,
,,,,,00056,2023-10-14_13h52.51.577,vbt_B2_day3,2022.2.4,MacIntel,47.61904762,,,,,,down,0,3.433,,0.654978962,-0.174614306,1,0,0,0,58,58,22,1,stof,images/br_stof.png,images/cb_stof.png,1,Stof,,,,,,,,,,,,,,,,,,,,,
,,,,,00056,2023-10-14_13h52.51.577,vbt_B2_day3,2022.2.4,MacIntel,47.61904762,,,,,,down,0,0.565,,0.593267882,-0.216690042,1,0,0,0,59,59,53,1,baron,images/br_baron.png,images/cb_baron.png,0,,,,,,,,,,,,,,,,,,,,,,
,,,,,00056,2023-10-14_13h52.51.577,vbt_B2_day3,2022.2.4,MacIntel,47.61904762,,,,,,down,0,6.098,,0.638148668,-0.181626928,1,0,0,0,60,60,46,1,jagen,images/br_jagen.png,images/cb_jagen.png,0,,,,,,,,,,,,,,,,,,,,,,
,,,,,00056,2023-10-14_13h52.51.577,vbt_B2_day3,2022.2.4,MacIntel,47.61904762,,,,,,down,0,5.1,,0.6914446,-0.091865358,1,0,0,0,61,61,80,1,kanjer,images/br_kanjer.png,images/cb_kanjer.png,0,,,,,,,,,,,,,,,,,,,,,,
,,,,,00056,2023-10-14_13h52.51.577,vbt_B2_day3,2022.2.4,MacIntel,47.61904762,,,,,,down,0,4.448,,0.66058906,-0.154978962,1,0,0,0,62,62,94,1,oceaan,images/br_oceaan.png,images/cb_oceaan.png,0,,,,,,,,,,,,,,,,,,,,,,
,,,,,00056,2023-10-14_13h52.51.577,vbt_B2_day3,2022.2.4,MacIntel,47.61904762,,,,,,down,0,4.066,,0.642356241,-0.208274895,1,0,0,0,63,63,150,1,gegeven,images/br_gegeven.png,images/cb_gegeven.png,0,,,,,,,,,,,,,,,,,,,,,,
,,,,,00056,2023-10-14_13h52.51.577,vbt_B2_day3,2022.2.4,MacIntel,47.61904762,,,,,,down,0,3.185,,0.67601683,-0.174614306,1,0,0,0,64,64,91,1,gezond,images/br_gezond.png,images/cb_gezond.png,0,,,,,,,,,,,,,,,,,,,,,,
,,,,,00056,2023-10-14_13h52.51.577,vbt_B2_day3,2022.2.4,MacIntel,47.61904762,,,,,,down,0,8.331,,0.702664797,-0.248948107,1,0,0,0,65,65,185,1,mijnheer,images/br_mijnheer.png,images/cb_mijnheer.png,0,,,,,,,,,,,,,,,,,,,,,,
,,,,,00056,2023-10-14_13h52.51.577,vbt_B2_day3,2022.2.4,MacIntel,47.61904762,,,,,,down,0,2.866,,0.718092567,-0.119915849,1,0,0,0,66,66,76,1,afval,images/br_afval.png,images/cb_afval.png,0,,,,,,,,,,,,,,,,,,,,,,
,,,,,00056,2023-10-14_13h52.51.577,vbt_B2_day3,2022.2.4,MacIntel,47.61904762,,,,,,down,0,2.034,,0.688639551,-0.136746143,1,0,0,0,67,67,163,1,schuilen,images/br_schuilen.png,images/cb_schuilen.png,0,,,,,,,,,,,,,,,,,,,,,,
,,,,,00056,2023-10-14_13h52.51.577,vbt_B2_day3,2022.2.4,MacIntel,47.61904762,,,,,,down,0,1.096,,0.695652174,-0.142356241,1,0,0,0,68,68,45,1,piste,images/br_piste.png,images/cb_piste.png,0,,,,,,,,,,,,,,,,,,,,,,
,,,,,00056,2023-10-14_13h52.51.577,vbt_B2_day3,2022.2.4,MacIntel,47.61904762,,,,,,down,0,4.881,,0.772791024,-0.125525947,1,0,0,0,69,69,174,1,stemming,images/br_stemming.png,images/cb_stemming.png,0,,,,,,,,,,,,,,,,,,,,,,
,,,,,00056,2023-10-14_13h52.51.577,vbt_B2_day3,2022.2.4,MacIntel,47.61904762,,,,,,down,0,4.6,,0.678821879,-0.169004208,1,0,0,0,70,70,123,1,hiervan,images/br_hiervan.png,images/cb_hiervan.png,0,,,,,,,,,,,,,,,,,,,,,,
,,,,,00056,2023-10-14_13h52.51.577,vbt_B2_day3,2022.2.4,MacIntel,47.61904762,,,,,,down,0,2.182,,0.73772791,-0.184431978,1,0,0,0,71,71,26,1,leuk,images/br_leuk.png,images/cb_leuk.png,0,,,,,,,,,,,,,,,,,,,,,,
,,,,,00056,2023-10-14_13h52.51.577,vbt_B2_day3,2022.2.4,MacIntel,47.61904762,,,,,,down,0,5.248,,0.643758766,0.0371669,1,0,0,0,72,72,137,1,trekker,images/br_trekker.png,images/cb_trekker.png,0,,,,,,,,,,,,,,,,,,,,,,
,,,,,00056,2023-10-14_13h52.51.577,vbt_B2_day3,2022.2.4,MacIntel,47.61904762,,,,,,down,0,3.249,,0.58345021,-0.161991585,1,0,0,0,73,73,21,1,mist,images/br_mist.png,images/cb_mist.png,1,Mist,,,,,,,,,,,,,,,,,,,,,
,,,,,00056,2023-10-14_13h52.51.577,vbt_B2_day3,2022.2.4,MacIntel,47.61904762,,,,,,down,0,3.633,,0.584852735,-0.126928471,1,0,0,0,74,74,127,1,doodmoe,images/br_doodmoe.png,images/cb_doodmoe.png,0,,,,,,,,,,,,,,,,,,,,,,
,,,,,00056,2023-10-14_13h52.51.577,vbt_B2_day3,2022.2.4,MacIntel,47.61904762,,,,,,down,0,5.716,,0.612903226,-0.121318373,1,0,0,0,75,75,98,1,kreeft,images/br_kreeft.png,images/cb_kreeft.png,0,,,,,,,,,,,,,,,,,,,,,,
,,,,,00056,2023-10-14_13h52.51.577,vbt_B2_day3,2022.2.4,MacIntel,47.61904762,,,,,,down,0,2.915,,0.643758766,-0.107293128,1,0,0,0,76,76,166,1,strikken,images/br_strikken.png,images/cb_strikken.png,0,,,,,,,,,,,,,,,,,,,,,,
,,,,,00056,2023-10-14_13h52.51.577,vbt_B2_day3,2022.2.4,MacIntel,47.61904762,,,,,,down,0,23.298,,0.625525947,-0.136746143,1,0,0,0,77,77,196,1,nakijken,images/br_nakijken.png,images/cb_nakijken.png,0,,,,,,,,,,,,,,,,,,,,,,
,,,,,00056,2023-10-14_13h52.51.577,vbt_B2_day3,2022.2.4,MacIntel,47.61904762,,,,,,down,0,8.498,,0.681626928,-0.084852735,1,0,0,0,78,78,176,1,techniek,images/br_techniek.png,images/cb_techniek.png,0,,,,,,,,,,,,,,,,,,,,,,
,,,,,00056,2023-10-14_13h52.51.577,vbt_B2_day3,2022.2.4,MacIntel,47.61904762,,,,,,down,0,2.114,,0.600280505,-0.107293128,1,0,0,0,79,79,35,1,lust,images/br_lust.png,images/cb_lust.png,0,,,,,,,,,,,,,,,,,,,,,,
,,,,,00056,2023-10-14_13h52.51.577,vbt_B2_day3,2022.2.4,MacIntel,47.61904762,,,,,,down,0,0.881,,0.652173913,-0.042776999,1,0,0,0,80,80,66,1,lever,images/br_lever.png,images/cb_lever.png,0,,,,,,,,,,,,,,,,,,,,,,
,,,,,00056,2023-10-14_13h52.51.577,vbt_B2_day3,2022.2.4,MacIntel,47.61904762,,,,,,down,0,0.816,,0.681626928,-0.107293128,1,0,0,0,81,81,126,1,kasteel,images/br_kasteel.png,images/cb_kasteel.png,0,,,,,,,,,,,,,,,,,,,,,,
,,,,,00056,2023-10-14_13h52.51.577,vbt_B2_day3,2022.2.4,MacIntel,47.61904762,,,,,,down,0,3.332,,0.709677419,-0.063814867,1,0,0,0,82,82,158,1,innemen,images/br_innemen.png,images/cb_innemen.png,0,,,,,,,,,,,,,,,,,,,,,,
,,,,,00056,2023-10-14_13h52.51.577,vbt_B2_day3,2022.2.4,MacIntel,47.61904762,,,,,,down,0,9.116,,0.590462833,-0.156381487,1,0,0,0,83,83,183,1,getuigen,images/br_getuigen.png,images/cb_getuigen.png,1,Getuigen,,,,,,,,,,,,,,,,,,,,,
,,,,,00056,2023-10-14_13h52.51.577,vbt_B2_day3,2022.2.4,MacIntel,47.61904762,,,,,,down,0,1.25,,0.601683029,-0.150771388,1,0,0,0,84,84,90,1,geluid,images/br_geluid.png,images/cb_geluid.png,0,,,,,,,,,,,,,,,,,,,,,,
,,,,,00056,2023-10-14_13h52.51.577,vbt_B2_day3,2022.2.4,MacIntel,47.61904762,,,,,,down,0,4.348,,0.626928471,-0.166199158,1,0,0,0,85,85,106,1,zingen,images/br_zingen.png,images/cb_zingen.png,0,,,,,,,,,,,,,,,,,,,,,,
,,,,,00056,2023-10-14_13h52.51.577,vbt_B2_day3,2022.2.4,MacIntel,47.61904762,,,,,,down,0,4.084,,0.52173913,-0.156381487,1,0,0,0,86,86,100,1,geduld,images/br_geduld.png,images/cb_geduld.png,1,Geduld,,,,,,,,,,,,,,,,,,,,,
,,,,,00056,2023-10-14_13h52.51.577,vbt_B2_day3,2022.2.4,MacIntel,47.61904762,,,,,,down,0,2.698,,0.635343619,-0.059607293,1,0,0,0,87,87,114,1,vullen,images/br_vullen.png,images/cb_vullen.png,0,,,,,,,,,,,,,,,,,,,,,,
,,,,,00056,2023-10-14_13h52.51.577,vbt_B2_day3,2022.2.4,MacIntel,47.61904762,,,,,,down,0,3.048,,0.666199158,-0.209677419,1,0,0,0,88,88,95,1,vreten,images/br_vreten.png,images/cb_vreten.png,0,,,,,,,,,,,,,,,,,,,,,,
,,,,,00056,2023-10-14_13h52.51.577,vbt_B2_day3,2022.2.4,MacIntel,47.61904762,,,,,,down,0,1.133,,0.621318373,-0.06802244,1,0,0,0,89,89,110,1,zuster,images/br_zuster.png,images/cb_zuster.png,0,,,,,,,,,,,,,,,,,,,,,,
,,,,,00056,2023-10-14_13h52.51.577,vbt_B2_day3,2022.2.4,MacIntel,47.61904762,,,,,,down,0,5.001,,0.618513324,-0.135343619,1,0,0,0,90,90,81,1,dubbel,images/br_dubbel.png,images/cb_dubbel.png,0,,,,,,,,,,,,,,,,,,,,,,
,,,,,00056,2023-10-14_13h52.51.577,vbt_B2_day3,2022.2.4,MacIntel,47.61904762,,,,,,down,0,1.182,,0.593267882,-0.061009818,1,0,0,0,91,91,51,1,samen,images/br_samen.png,images/cb_samen.png,0,,,,,,,,,,,,,,,,,,,,,,
,,,,,00056,2023-10-14_13h52.51.577,vbt_B2_day3,2022.2.4,MacIntel,47.61904762,,,,,,down,0,2.783,,0.559607293,-0.023141655,1,0,0,0,92,92,36,1,vuur,images/br_vuur.png,images/cb_vuur.png,0,,,,,,,,,,,,,,,,,,,,,,
,,,,,00056,2023-10-14_13h52.51.577,vbt_B2_day3,2022.2.4,MacIntel,47.61904762,,,,,,down,0,0.949,,0.516129032,-0.059607293,1,0,0,0,93,93,12,1,kust,images/br_kust.png,images/cb_kust.png,0,,,,,,,,,,,,,,,,,,,,,,
,,,,,00056,2023-10-14_13h52.51.577,vbt_B2_day3,2022.2.4,MacIntel,47.61904762,,,,,,down,0,2.617,,0.683029453,-0.000701262,1,0,0,0,94,94,146,1,opkomen,images/br_opkomen.png,images/cb_opkomen.png,0,,,,,,,,,,,,,,,,,,,,,,
,,,,,00056,2023-10-14_13h52.51.577,vbt_B2_day3,2022.2.4,MacIntel,47.61904762,,,,,,down,0,1.049,,0.576437588,-0.048387097,1,0,0,0,95,95,1,1,zaal,images/br_zaal.png,images/cb_zaal.png,0,,,,,,,,,,,,,,,,,,,,,,
,,,,,00056,2023-10-14_13h52.51.577,vbt_B2_day3,2022.2.4,MacIntel,47.61904762,,,,,,down,0,4.482,,0.692847125,-0.159186536,1,0,0,0,96,96,184,1,aandelen,images/br_aandelen.png,images/cb_aandelen.png,0,,,,,,,,,,,,,,,,,,,,,,
,,,,,00056,2023-10-14_13h52.51.577,vbt_B2_day3,2022.2.4,MacIntel,47.61904762,,,,,,down,0,4.497,,0.640953717,-0.044179523,1,0,0,0,97,97,14,1,rijp,images/br_rijp.png,images/cb_rijp.png,0,,,,,,,,,,,,,,,,,,,,,,
,,,,,00056,2023-10-14_13h52.51.577,vbt_B2_day3,2022.2.4,MacIntel,47.61904762,,,,,,down,0,2.315,,0.636746143,-0.053997195,1,0,0,0,98,98,120,1,klimmen,images/br_klimmen.png,images/cb_klimmen.png,0,,,,,,,,,,,,,,,,,,,,,,
,,,,,00056,2023-10-14_13h52.51.577,vbt_B2_day3,2022.2.4,MacIntel,47.61904762,,,,,,down,0,4.415,,0.654978962,-0.087657784,1,0,0,0,99,99,156,1,rechten,images/br_rechten.png,images/cb_rechten.png,0,,,,,,,,,,,,,,,,,,,,,,
,,,,,00056,2023-10-14_13h52.51.577,vbt_B2_day3,2022.2.4,MacIntel,47.61904762,,,,,,down,0,2.032,,0.673211781,-0.084852735,1,0,0,0,100,100,6,1,diep,images/br_diep.png,images/cb_diep.png,0,,,,,,,,,,,,,,,,,,,,,,
,,,,,00056,2023-10-14_13h52.51.577,vbt_B2_day3,2022.2.4,MacIntel,47.61904762,,,,,,down,0,5.001,,0.647966339,-0.170406732,1,0,0,0,101,101,141,1,knielen,images/br_knielen.png,images/cb_knielen.png,1,Knielen,,,,,,,,,,,,,,,,,,,,,
,,,,,00056,2023-10-14_13h52.51.577,vbt_B2_day3,2022.2.4,MacIntel,47.61904762,,,,,,down,0,1.967,,0.653576438,-0.16058906,1,0,0,0,102,102,77,1,woede,images/br_woede.png,images/cb_woede.png,0,,,,,,,,,,,,,,,,,,,,,,
,,,,,00056,2023-10-14_13h52.51.577,vbt_B2_day3,2022.2.4,MacIntel,47.61904762,,,,,,down,0,0.333,,0.732117812,-0.075035063,1,0,0,0,103,103,10,1,leek,images/br_leek.png,images/cb_leek.png,0,,,,,,,,,,,,,,,,,,,,,,
,,,,,00056,2023-10-14_13h52.51.577,vbt_B2_day3,2022.2.4,MacIntel,47.61904762,,,,,,down,0,8.131,,0.683029453,-0.138148668,1,0,0,0,104,104,168,1,bisschop,images/br_bisschop.png,images/cb_bisschop.png,0,,,,,,,,,,,,,,,,,,,,,,
,,,,,00056,2023-10-14_13h52.51.577,vbt_B2_day3,2022.2.4,MacIntel,47.61904762,,,,,,down,0,1.165,,0.708274895,-0.131136045,1,0,0,0,105,105,64,1,wegen,images/br_wegen.png,images/cb_wegen.png,0,,,,,,,,,,,,,,,,,,,,,,
,,,,,00056,2023-10-14_13h52.51.577,vbt_B2_day3,2022.2.4,MacIntel,47.61904762,,,,,,down,0,0.316,,0.638148668,-0.180224404,1,0,0,0,106,106,42,1,bleek,images/br_bleek.png,images/cb_bleek.png,0,,,,,,,,,,,,,,,,,,,,,,
,,,,,00056,2023-10-14_13h52.51.577,vbt_B2_day3,2022.2.4,MacIntel,47.61904762,,,,,,down,0,4.298,,0.683029453,-0.197054698,1,0,0,0,107,107,69,1,waken,images/br_waken.png,images/cb_waken.png,0,,,,,,,,,,,,,,,,,,,,,,
,,,,,00056,2023-10-14_13h52.51.577,vbt_B2_day3,2022.2.4,MacIntel,47.61904762,,,,,,down,0,2.032,,0.669004208,-0.205469846,1,0,0,0,108,108,160,1,daarheen,images/br_daarheen.png,images/cb_daarheen.png,0,,,,,,,,,,,,,,,,,,,,,,
,,,,,00056,2023-10-14_13h52.51.577,vbt_B2_day3,2022.2.4,MacIntel,47.61904762,,,,,,down,0,0.648,,0.681626928,-0.166199158,1,0,0,0,109,109,15,1,soda,images/br_soda.png,images/cb_soda.png,0,,,,,,,,,,,,,,,,,,,,,,
,,,,,00056,2023-10-14_13h52.51.577,vbt_B2_day3,2022.2.4,MacIntel,47.61904762,,,,,,down,0,1.265,,0.688639551,-0.188639551,1,0,0,0,110,110,161,1,attentie,images/br_attentie.png,images/cb_attentie.png,0,,,,,,,,,,,,,,,,,,,,,,
,,,,,00056,2023-10-14_13h52.51.577,vbt_B2_day3,2022.2.4,MacIntel,47.61904762,,,,,,down,0,0.434,,0.654978962,-0.100280505,1,0,0,0,111,111,4,1,moes,images/br_moes.png,images/cb_moes.png,0,,,,,,,,,,,,,,,,,,,,,,
,,,,,00056,2023-10-14_13h52.51.577,vbt_B2_day3,2022.2.4,MacIntel,47.61904762,,,,,,down,0,0.231,,0.659186536,-0.174614306,1,0,0,0,112,112,47,1,kabel,images/br_kabel.png,images/cb_kabel.png,0,,,,,,,,,,,,,,,,,,,,,,
,,,,,00056,2023-10-14_13h52.51.577,vbt_B2_day3,2022.2.4,MacIntel,47.61904762,,,,,,down,0,13.532,,0.497896213,-0.159186536,1,0,0,0,113,113,181,1,toegeven,images/br_toegeven.png,images/cb_toegeven.png,1,Toegeven,,,,,,,,,,,,,,,,,,,,,
,,,,,00056,2023-10-14_13h52.51.577,vbt_B2_day3,2022.2.4,MacIntel,47.61904762,,,,,,down,0,2.148,,0.657784011,-0.184431978,1,0,0,0,114,114,125,1,aanzien,images/br_aanzien.png,images/cb_aanzien.png,0,,,,,,,,,,,,,,,,,,,,,,
,,,,,00056,2023-10-14_13h52.51.577,vbt_B2_day3,2022.2.4,MacIntel,47.61904762,,,,,,down,0,1.427,,0.649368864,-0.12973352,1,0,0,0,115,115,32,1,palm,images/br_palm.png,images/cb_palm.png,0,,,,,,,,,,,,,,,,,,,,,,
,,,,,00056,2023-10-14_13h52.51.577,vbt_B2_day3,2022.2.4,MacIntel,47.61904762,,,,,,down,0,1.848,,0.615708275,-0.198457223,1,0,0,0,116,116,43,1,klauw,images/br_klauw.png,images/cb_klauw.png,0,,,,,,,,,,,,,,,,,,,,,,
,,,,,00056,2023-10-14_13h52.51.577,vbt_B2_day3,2022.2.4,MacIntel,47.61904762,,,,,,down,0,1.033,,0.607293128,-0.157784011,1,0,0,0,117,117,34,1,vorm,images/br_vorm.png,images/cb_vorm.png,0,,,,,,,,,,,,,,,,,,,,,,
,,,,,00056,2023-10-14_13h52.51.577,vbt_B2_day3,2022.2.4,MacIntel,47.61904762,,,,,,down,0,4.699,,0.635343619,-0.164796634,1,0,0,0,118,118,63,1,flirt,images/br_flirt.png,images/cb_flirt.png,1,Flits,,,,,,,,,,,,,,,,,,,,,
,,,,,00056,2023-10-14_13h52.51.577,vbt_B2_day3,2022.2.4,MacIntel,47.61904762,,,,,,down,0,2.932,,0.593267882,-0.089060309,1,0,0,0,119,119,109,1,totaal,images/br_totaal.png,images/cb_totaal.png,0,,,,,,,,,,,,,,,,,,,,,,
,,,,,00056,2023-10-14_13h52.51.577,vbt_B2_day3,2022.2.4,MacIntel,47.61904762,,,,,,down,0,3.184,,0.589060309,-0.128330996,1,0,0,0,120,120,33,1,vlek,images/br_vlek.png,images/cb_vlek.png,0,,,,,,,,,,,,,,,,,,,,,,
,,,,,00056,2023-10-14_13h52.51.577,vbt_B2_day3,2022.2.4,MacIntel,47.61904762,,,,,,down,0,2.031,,0.639551192,-0.156381487,1,0,0,0,121,121,58,1,tekst,images/br_tekst.png,images/cb_tekst.png,0,,,,,,,,,,,,,,,,,,,,,,
,,,,,00056,2023-10-14_13h52.51.577,vbt_B2_day3,2022.2.4,MacIntel,47.61904762,,,,,,down,0,8.065,,0.734922861,-0.154978962,1,0,0,0,122,122,108,1,excuus,images/br_excuus.png,images/cb_excuus.png,0,,,,,,,,,,,,,,,,,,,,,,
,,,,,00056,2023-10-14_13h52.51.577,vbt_B2_day3,2022.2.4,MacIntel,47.61904762,,,,,,down,0,8.867,,0.525946704,-0.154978962,1,0,0,0,123,123,182,1,bijkomen,images/br_bijkomen.png,images/cb_bijkomen.png,1,Bijkomen,,,,,,,,,,,,,,,,,,,,,
,,,,,00056,2023-10-14_13h52.51.577,vbt_B2_day3,2022.2.4,MacIntel,47.61904762,,,,,,down,0,8.381,,0.587657784,-0.260168303,1,0,0,0,124,124,165,1,feestdag,images/br_feestdag.png,images/cb_feestdag.png,0,,,,,,,,,,,,,,,,,,,,,,
,,,,,00056,2023-10-14_13h52.51.577,vbt_B2_day3,2022.2.4,MacIntel,47.61904762,,,,,,down,0,5.032,,0.667601683,-0.223702665,1,0,0,0,125,125,132,1,grappen,images/br_grappen.png,images/cb_grappen.png,0,,,,,,,,,,,,,,,,,,,,,,
,,,,,00056,2023-10-14_13h52.51.577,vbt_B2_day3,2022.2.4,MacIntel,47.61904762,,,,,,down,0,1.03,,0.678821879,-0.20687237,1,0,0,0,126,126,72,1,strak,images/br_strak.png,images/cb_strak.png,0,,,,,,,,,,,,,,,,,,,,,,
,,,,,00056,2023-10-14_13h52.51.577,vbt_B2_day3,2022.2.4,MacIntel,47.61904762,,,,,,down,0,2.649,,0.653576438,-0.133941094,1,0,0,0,127,127,59,1,kring,images/br_kring.png,images/cb_kring.png,0,,,,,,,,,,,,,,,,,,,,,,
,,,,,00056,2023-10-14_13h52.51.577,vbt_B2_day3,2022.2.4,MacIntel,47.61904762,,,,,,down,0,1.149,,0.688639551,-0.257363254,1,0,0,0,128,128,68,1,schat,images/br_schat.png,images/cb_schat.png,0,,,,,,,,,,,,,,,,,,,,,,
,,,,,00056,2023-10-14_13h52.51.577,vbt_B2_day3,2022.2.4,MacIntel,47.61904762,,,,,,down,0,5.198,,0.669004208,-0.28401122,1,0,0,0,129,129,153,1,vervoer,images/br_vervoer.png,images/cb_vervoer.png,0,,,,,,,,,,,,,,,,,,,,,,
,,,,,00056,2023-10-14_13h52.51.577,vbt_B2_day3,2022.2.4,MacIntel,47.61904762,,,,,,down,0,4.5,,0.688639551,-0.303646564,1,0,0,0,130,130,75,1,snoep,images/br_snoep.png,images/cb_snoep.png,0,,,,,,,,,,,,,,,,,,,,,,
,,,,,00056,2023-10-14_13h52.51.577,vbt_B2_day3,2022.2.4,MacIntel,47.61904762,,,,,,down,0,4.115,,0.6914446,-0.234922861,1,0,0,0,131,131,65,1,parel,images/br_parel.png,images/cb_parel.png,0,,,,,,,,,,,,,,,,,,,,,,
,,,,,00056,2023-10-14_13h52.51.577,vbt_B2_day3,2022.2.4,MacIntel,47.61904762,,,,,,down,0,12.399,,0.640953717,-0.312061711,1,0,0,0,132,132,179,1,woestijn,images/br_woestijn.png,images/cb_woestijn.png,0,,,,,,,,,,,,,,,,,,,,,,
,,,,,00056,2023-10-14_13h52.51.577,vbt_B2_day3,2022.2.4,MacIntel,47.61904762,,,,,,down,0,5.165,,0.670406732,-0.26858345,1,0,0,0,133,133,162,1,uitdelen,images/br_uitdelen.png,images/cb_uitdelen.png,0,,,,,,,,,,,,,,,,,,,,,,
,,,,,00056,2023-10-14_13h52.51.577,vbt_B2_day3,2022.2.4,MacIntel,47.61904762,,,,,,down,0,1.133,,0.692847125,-0.230715288,1,0,0,0,134,134,70,1,ijdel,images/br_ijdel.png,images/cb_ijdel.png,0,,,,,,,,,,,,,,,,,,,,,,
,,,,,00056,2023-10-14_13h52.51.577,vbt_B2_day3,2022.2.4,MacIntel,47.61904762,,,,,,down,0,3.232,,0.615708275,-0.250350631,1,0,0,0,135,135,79,1,nodig,images/br_nodig.png,images/cb_nodig.png,0,,,,,,,,,,,,,,,,,,,,,,
,,,,,00056,2023-10-14_13h52.51.577,vbt_B2_day3,2022.2.4,MacIntel,47.61904762,,,,,,down,0,2.086,,0.669004208,-0.251753156,1,0,0,0,136,136,44,1,flits,images/br_flits.png,images/cb_flits.png,0,,,,,,,,,,,,,,,,,,,,,,
,,,,,00056,2023-10-14_13h52.51.577,vbt_B2_day3,2022.2.4,MacIntel,47.61904762,,,,,,down,0,9.665,,0.640953717,-0.232117812,1,0,0,0,137,137,193,1,weeshuis,images/br_weeshuis.png,images/cb_weeshuis.png,0,,,,,,,,,,,,,,,,,,,,,,
,,,,,00056,2023-10-14_13h52.51.577,vbt_B2_day3,2022.2.4,MacIntel,47.61904762,,,,,,down,0,0.517,,0.612903226,-0.142356241,1,0,0,0,138,138,39,1,laag,images/br_laag.png,images/cb_laag.png,0,,,,,,,,,,,,,,,,,,,,,,
,,,,,00056,2023-10-14_13h52.51.577,vbt_B2_day3,2022.2.4,MacIntel,47.61904762,,,,,,down,0,1.615,,0.640953717,-0.187237027,1,0,0,0,139,139,37,1,mijn,images/br_mijn.png,images/cb_mijn.png,0,,,,,,,,,,,,,,,,,,,,,,
,,,,,00056,2023-10-14_13h52.51.577,vbt_B2_day3,2022.2.4,MacIntel,47.61904762,,,,,,down,0,5.316,,0.561009818,-0.190042076,1,0,0,0,140,140,61,1,groen,images/br_groen.png,images/cb_groen.png,1,Groen,,,,,,,,,,,,,,,,,,,,,
,,,,,00056,2023-10-14_13h52.51.577,vbt_B2_day3,2022.2.4,MacIntel,47.61904762,,,,,,down,0,2.681,,0.587657784,-0.229312763,1,0,0,0,141,141,105,1,wijlen,images/br_wijlen.png,images/cb_wijlen.png,0,,,,,,,,,,,,,,,,,,,,,,
,,,,,00056,2023-10-14_13h52.51.577,vbt_B2_day3,2022.2.4,MacIntel,47.61904762,,,,,,down,0,2.316,,0.653576438,-0.185834502,1,0,0,0,142,142,104,1,zweven,images/br_zweven.png,images/cb_zweven.png,0,,,,,,,,,,,,,,,,,,,,,,
,,,,,00056,2023-10-14_13h52.51.577,vbt_B2_day3,2022.2.4,MacIntel,47.61904762,,,,,,down,0,4.998,,0.664796634,-0.230715288,1,0,0,0,143,143,118,1,vinger,images/br_vinger.png,images/cb_vinger.png,0,,,,,,,,,,,,,,,,,,,,,,
,,,,,00056,2023-10-14_13h52.51.577,vbt_B2_day3,2022.2.4,MacIntel,47.61904762,,,,,,down,0,1.033,,0.59887798,-0.223702665,1,0,0,0,144,144,97,1,loyaal,images/br_loyaal.png,images/cb_loyaal.png,0,,,,,,,,,,,,,,,,,,,,,,
,,,,,00056,2023-10-14_13h52.51.577,vbt_B2_day3,2022.2.4,MacIntel,47.61904762,,,,,,down,0,5.948,,0.58345021,-0.246143058,1,0,0,0,145,145,152,1,afnemen,images/br_afnemen.png,images/cb_afnemen.png,0,,,,,,,,,,,,,,,,,,,,,,
,,,,,00056,2023-10-14_13h52.51.577,vbt_B2_day3,2022.2.4,MacIntel,47.61904762,,,,,,down,0,2.566,,0.605890603,-0.183029453,1,0,0,0,146,146,101,1,staren,images/br_staren.png,images/cb_staren.png,1,Staren,,,,,,,,,,,,,,,,,,,,,
,,,,,00056,2023-10-14_13h52.51.577,vbt_B2_day3,2022.2.4,MacIntel,47.61904762,,,,,,down,0,1.631,,0.674614306,-0.247545582,1,0,0,0,147,147,88,1,boeien,images/br_boeien.png,images/cb_boeien.png,0,,,,,,,,,,,,,,,,,,,,,,
,,,,,00056,2023-10-14_13h52.51.577,vbt_B2_day3,2022.2.4,MacIntel,47.61904762,,,,,,down,0,1.3,,0.642356241,-0.201262272,1,0,0,0,148,148,112,1,lukken,images/br_lukken.png,images/cb_lukken.png,0,,,,,,,,,,,,,,,,,,,,,,
,,,,,00056,2023-10-14_13h52.51.577,vbt_B2_day3,2022.2.4,MacIntel,47.61904762,,,,,,down,0,4.666,,0.670406732,-0.216690042,1,0,0,0,149,149,136,1,waarbij,images/br_waarbij.png,images/cb_waarbij.png,0,,,,,,,,,,,,,,,,,,,,,,
,,,,,00056,2023-10-14_13h52.51.577,vbt_B2_day3,2022.2.4,MacIntel,47.61904762,,,,,,down,0,1.464,,0.600280505,-0.248948107,1,0,0,0,150,150,30,1,uien,images/br_uien.png,images/cb_uien.png,0,,,,,,,,,,,,,,,,,,,,,,
,,,,,00056,2023-10-14_13h52.51.577,vbt_B2_day3,2022.2.4,MacIntel,47.61904762,,,,,,down,0,1.365,,0.654978962,-0.177419355,1,0,0,0,151,151,71,1,bever,images/br_bever.png,images/cb_bever.png,0,,,,,,,,,,,,,,,,,,,,,,
,,,,,00056,2023-10-14_13h52.51.577,vbt_B2_day3,2022.2.4,MacIntel,47.61904762,,,,,,down,0,3.981,,0.61430575,-0.171809257,1,0,0,0,152,152,145,1,invloed,images/br_invloed.png,images/cb_invloed.png,0,,,,,,,,,,,,,,,,,,,,,,
,,,,,00056,2023-10-14_13h52.51.577,vbt_B2_day3,2022.2.4,MacIntel,47.61904762,,,,,,down,0,0.881,,0.663394109,-0.205469846,1,0,0,0,153,153,28,1,stal,images/br_stal.png,images/cb_stal.png,0,,,,,,,,,,,,,,,,,,,,,,
,,,,,00056,2023-10-14_13h52.51.577,vbt_B2_day3,2022.2.4,MacIntel,47.61904762,,,,,,down,0,0.183,,0.650771388,-0.138148668,1,0,0,0,154,154,17,1,taal,images/br_taal.png,images/cb_taal.png,0,,,,,,,,,,,,,,,,,,,,,,
,,,,,00056,2023-10-14_13h52.51.577,vbt_B2_day3,2022.2.4,MacIntel,47.61904762,,,,,,down,0,27.851,,0.624123422,-0.190042076,1,0,0,0,155,155,187,1,opkijken,images/br_opkijken.png,images/cb_opkijken.png,0,,,,,,,,,,,,,,,,,,,,,,
,,,,,00056,2023-10-14_13h52.51.577,vbt_B2_day3,2022.2.4,MacIntel,47.61904762,,,,,,down,0,0.815,,0.638148668,-0.140953717,1,0,0,0,156,156,0,1,slak,images/br_slak.png,images/cb_slak.png,0,,,,,,,,,,,,,,,,,,,,,,
,,,,,00056,2023-10-14_13h52.51.577,vbt_B2_day3,2022.2.4,MacIntel,47.61904762,,,,,,down,0,5.116,,0.663394109,-0.166199158,1,0,0,0,157,157,154,1,aflopen,images/br_aflopen.png,images/cb_aflopen.png,0,,,,,,,,,,,,,,,,,,,,,,
,,,,,00056,2023-10-14_13h52.51.577,vbt_B2_day3,2022.2.4,MacIntel,47.61904762,,,,,,down,0,3.07,,0.6914446,-0.135343619,1,0,0,0,158,158,155,1,gerucht,images/br_gerucht.png,images/cb_gerucht.png,0,,,,,,,,,,,,,,,,,,,,,,
,,,,,00056,2023-10-14_13h52.51.577,vbt_B2_day3,2022.2.4,MacIntel,47.61904762,,,,,,down,0,7.25,,0.635343619,-0.16058906,1,0,0,0,159,159,142,1,snuiven,images/br_snuiven.png,images/cb_snuiven.png,1,Snuiven,,,,,,,,,,,,,,,,,,,,,
,,,,,00056,2023-10-14_13h52.51.577,vbt_B2_day3,2022.2.4,MacIntel,47.61904762,,,,,,down,0,7.182,,0.590462833,-0.194249649,1,0,0,0,160,160,62,1,knaap,images/br_knaap.png,images/cb_knaap.png,1,Knaap,,,,,,,,,,,,,,,,,,,,,
,,,,,00056,2023-10-14_13h52.51.577,vbt_B2_day3,2022.2.4,MacIntel,47.61904762,,,,,,down,0,2.052,,0.618513324,-0.243338008,1,0,0,0,161,161,57,1,steek,images/br_steek.png,images/cb_steek.png,0,,,,,,,,,,,,,,,,,,,,,,
,,,,,00056,2023-10-14_13h52.51.577,vbt_B2_day3,2022.2.4,MacIntel,47.61904762,,,,,,down,0,7.501,,0.542776999,-0.163394109,1,0,0,0,162,162,102,1,legaal,images/br_legaal.png,images/cb_legaal.png,1,Legaal,,,,,,,,,,,,,,,,,,,,,
,,,,,00056,2023-10-14_13h52.51.577,vbt_B2_day3,2022.2.4,MacIntel,47.61904762,,,,,,down,0,0.635,,0.685834502,-0.170406732,1,0,0,0,163,163,38,1,baai,images/br_baai.png,images/cb_baai.png,0,,,,,,,,,,,,,,,,,,,,,,
,,,,,00056,2023-10-14_13h52.51.577,vbt_B2_day3,2022.2.4,MacIntel,47.61904762,,,,,,down,0,3.031,,0.562412342,-0.178821879,1,0,0,0,164,164,119,1,liefje,images/br_liefje.png,images/cb_liefje.png,0,,,,,,,,,,,,,,,,,,,,,,
,,,,,00056,2023-10-14_13h52.51.577,vbt_B2_day3,2022.2.4,MacIntel,47.61904762,,,,,,down,0,3.648,,0.632538569,-0.188639551,1,0,0,0,165,165,175,1,heengaan,images/br_heengaan.png,images/cb_heengaan.png,0,,,,,,,,,,,,,,,,,,,,,,
,,,,,00056,2023-10-14_13h52.51.577,vbt_B2_day3,2022.2.4,MacIntel,47.61904762,,,,,,down,0,1.349,,0.67601683,-0.192847125,1,0,0,0,166,166,93,1,waarop,images/br_waarop.png,images/cb_waarop.png,0,,,,,,,,,,,,,,,,,,,,,,
,,,,,00056,2023-10-14_13h52.51.577,vbt_B2_day3,2022.2.4,MacIntel,47.61904762,,,,,,down,0,1.132,,0.67601683,-0.192847125,1,0,0,0,167,167,96,1,slagen,images/br_slagen.png,images/cb_slagen.png,0,,,,,,,,,,,,,,,,,,,,,,
,,,,,00056,2023-10-14_13h52.51.577,vbt_B2_day3,2022.2.4,MacIntel,47.61904762,,,,,,down,0,5.482,,0.650771388,-0.20687237,1,0,0,0,168,168,198,1,bedoelen,images/br_bedoelen.png,images/cb_bedoelen.png,0,,,,,,,,,,,,,,,,,,,,,,
,,,,,00056,2023-10-14_13h52.51.577,vbt_B2_day3,2022.2.4,MacIntel,47.61904762,,,,,,down,0,2.648,,0.678821879,-0.251753156,1,0,0,0,169,169,54,1,gebit,images/br_gebit.png,images/cb_gebit.png,0,,,,,,,,,,,,,,,,,,,,,,
,,,,,00056,2023-10-14_13h52.51.577,vbt_B2_day3,2022.2.4,MacIntel,47.61904762,,,,,,down,0,1.264,,0.687237027,-0.180224404,1,0,0,0,170,170,99,1,koffie,images/br_koffie.png,images/cb_koffie.png,0,,,,,,,,,,,,,,,,,,,,,,
,,,,,00056,2023-10-14_13h52.51.577,vbt_B2_day3,2022.2.4,MacIntel,47.61904762,,,,,,down,0,1.736,,0.649368864,-0.195652174,1,0,0,0,171,171,67,1,zwart,images/br_zwart.png,images/cb_zwart.png,0,,,,,,,,,,,,,,,,,,,,,,
,,,,,00056,2023-10-14_13h52.51.577,vbt_B2_day3,2022.2.4,MacIntel,47.61904762,,,,,,down,0,1.432,,0.58345021,-0.180224404,1,0,0,0,172,172,170,1,schatten,images/br_schatten.png,images/cb_schatten.png,0,,,,,,,,,,,,,,,,,,,,,,
,,,,,00056,2023-10-14_13h52.51.577,vbt_B2_day3,2022.2.4,MacIntel,47.61904762,,,,,,down,0,0.816,,0.661991585,-0.199859748,1,0,0,0,173,173,29,1,baas,images/br_baas.png,images/cb_baas.png,0,,,,,,,,,,,,,,,,,,,,,,
,,,,,00056,2023-10-14_13h52.51.577,vbt_B2_day3,2022.2.4,MacIntel,47.61904762,,,,,,down,0,0.231,,0.62973352,-0.185834502,1,0,0,0,174,174,13,1,kaal,images/br_kaal.png,images/cb_kaal.png,0,,,,,,,,,,,,,,,,,,,,,,
,,,,,00056,2023-10-14_13h52.51.577,vbt_B2_day3,2022.2.4,MacIntel,47.61904762,,,,,,down,0,1.182,,0.603085554,-0.1914446,1,0,0,0,175,175,138,1,akkoord,images/br_akkoord.png,images/cb_akkoord.png,0,,,,,,,,,,,,,,,,,,,,,,
,,,,,00056,2023-10-14_13h52.51.577,vbt_B2_day3,2022.2.4,MacIntel,47.61904762,,,,,,down,0,2.115,,0.61430575,-0.216690042,1,0,0,0,176,176,122,1,waarvan,images/br_waarvan.png,images/cb_waarvan.png,0,,,,,,,,,,,,,,,,,,,,,,
,,,,,00056,2023-10-14_13h52.51.577,vbt_B2_day3,2022.2.4,MacIntel,47.61904762,,,,,,down,0,3.881,,0.608695652,-0.264375877,1,0,0,0,177,177,131,1,opzicht,images/br_opzicht.png,images/cb_opzicht.png,0,,,,,,,,,,,,,,,,,,,,,,
,,,,,00056,2023-10-14_13h52.51.577,vbt_B2_day3,2022.2.4,MacIntel,47.61904762,,,,,,down,0,11.067,,0.562412342,-0.223702665,1,0,0,0,178,178,140,1,blijven,images/br_blijven.png,images/cb_blijven.png,1,Blijven,,,,,,,,,,,,,,,,,,,,,
,,,,,00056,2023-10-14_13h52.51.577,vbt_B2_day3,2022.2.4,MacIntel,47.61904762,,,,,,down,0,3.899,,0.617110799,-0.243338008,1,0,0,0,179,179,194,1,driemaal,images/br_driemaal.png,images/cb_driemaal.png,0,,,,,,,,,,,,,,,,,,,,,,
,,,,,00056,2023-10-14_13h52.51.577,vbt_B2_day3,2022.2.4,MacIntel,47.61904762,,,,,,down,0,11.713,,0.532959327,-0.09887798,1,0,0,0,180,180,129,1,verhaal,images/br_verhaal.png,images/cb_verhaal.png,0,,,,,,,,,,,,,,,,,,,,,,
,,,,,00056,2023-10-14_13h52.51.577,vbt_B2_day3,2022.2.4,MacIntel,47.61904762,,,,,,down,0,1.316,,0.670406732,-0.205469846,1,0,0,0,181,181,173,1,apparaat,images/br_apparaat.png,images/cb_apparaat.png,0,,,,,,,,,,,,,,,,,,,,,,
,,,,,00056,2023-10-14_13h52.51.577,vbt_B2_day3,2022.2.4,MacIntel,47.61904762,,,,,,down,0,10.481,,0.603085554,-0.149368864,1,0,0,0,182,182,149,1,redding,images/br_redding.png,images/cb_redding.png,0,,,,,,,,,,,,,,,,,,,,,,
,,,,,00056,2023-10-14_13h52.51.577,vbt_B2_day3,2022.2.4,MacIntel,47.61904762,,,,,,down,0,4.816,,0.525946704,-0.136746143,1,0,0,0,183,183,178,1,huisdier,images/br_huisdier.png,images/cb_huisdier.png,0,,,,,,,,,,,,,,,,,,,,,,
,,,,,00056,2023-10-14_13h52.51.577,vbt_B2_day3,2022.2.4,MacIntel,47.61904762,,,,,,down,0,9.883,,0.546984572,-0.140953717,1,0,0,0,184,184,191,1,opheffen,images/br_opheffen.png,images/cb_opheffen.png,0,,,,,,,,,,,,,,,,,,,,,,
,,,,,00056,2023-10-14_13h52.51.577,vbt_B2_day3,2022.2.4,MacIntel,47.61904762,,,,,,down,0,29.814,,0.663394109,-0.080645161,1,0,0,0,185,185,115,1,kleren,images/br_kleren.png,images/cb_kleren.png,0,,,,,,,,,,,,,,,,,,,,,,
,,,,,00056,2023-10-14_13h52.51.577,vbt_B2_day3,2022.2.4,MacIntel,47.61904762,,,,,,down,0,3.365,,0.638148668,-0.105890603,1,0,0,0,186,186,172,1,weigeren,images/br_weigeren.png,images/cb_weigeren.png,0,,,,,,,,,,,,,,,,,,,,,,
,,,,,00056,2023-10-14_13h52.51.577,vbt_B2_day3,2022.2.4,MacIntel,47.61904762,,,,,,down,0,1.966,,0.695652174,-0.171809257,1,0,0,0,187,187,48,1,steel,images/br_steel.png,images/cb_steel.png,0,,,,,,,,,,,,,,,,,,,,,,
,,,,,00056,2023-10-14_13h52.51.577,vbt_B2_day3,2022.2.4,MacIntel,47.61904762,,,,,,down,0,19.198,,0.569424965,-0.211079944,1,0,0,0,188,188,23,1,zout,images/br_zout.png,images/cb_zout.png,1,Zoet,,,,,,,,,,,,,,,,,,,,,
,,,,,00056,2023-10-14_13h52.51.577,vbt_B2_day3,2022.2.4,MacIntel,47.61904762,,,,,,down,0,4.382,,0.678821879,-0.173211781,1,0,0,0,189,189,199,1,beseffen,images/br_beseffen.png,images/cb_beseffen.png,0,,,,,,,,,,,,,,,,,,,,,,
,,,,,00056,2023-10-14_13h52.51.577,vbt_B2_day3,2022.2.4,MacIntel,47.61904762,,,,,,down,0,8.198,,0.626928471,-0.105890603,1,0,0,0,190,190,55,1,praat,images/br_praat.png,images/cb_praat.png,0,,,,,,,,,,,,,,,,,,,,,,
,,,,,00056,2023-10-14_13h52.51.577,vbt_B2_day3,2022.2.4,MacIntel,47.61904762,,,,,,down,0,6.398,,0.622720898,-0.132538569,1,0,0,0,191,191,135,1,gedicht,images/br_gedicht.png,images/cb_gedicht.png,0,,,,,,,,,,,,,,,,,,,,,,
,,,,,00056,2023-10-14_13h52.51.577,vbt_B2_day3,2022.2.4,MacIntel,47.61904762,,,,,,down,0,0.313,,0.608695652,-0.199859748,1,0,0,0,192,192,25,1,plek,images/br_plek.png,images/cb_plek.png,0,,,,,,,,,,,,,,,,,,,,,,
,,,,,00056,2023-10-14_13h52.51.577,vbt_B2_day3,2022.2.4,MacIntel,47.61904762,,,,,,down,0,8.133,,0.711079944,-0.199859748,1,0,0,0,193,193,60,1,jasje,images/br_jasje.png,images/cb_jasje.png,1,Jasje,,,,,,,,,,,,,,,,,,,,,
,,,,,00056,2023-10-14_13h52.51.577,vbt_B2_day3,2022.2.4,MacIntel,47.61904762,,,,,,down,0,1.348,,0.654978962,-0.128330996,1,0,0,0,194,194,2,1,jaar,images/br_jaar.png,images/cb_jaar.png,0,,,,,,,,,,,,,,,,,,,,,,
,,,,,00056,2023-10-14_13h52.51.577,vbt_B2_day3,2022.2.4,MacIntel,47.61904762,,,,,,down,0,3.115,,0.604488079,-0.087657784,1,0,0,0,195,195,85,1,heilig,images/br_heilig.png,images/cb_heilig.png,0,,,,,,,,,,,,,,,,,,,,,,
,,,,,00056,2023-10-14_13h52.51.577,vbt_B2_day3,2022.2.4,MacIntel,47.61904762,,,,,,down,0,1.499,,0.647966339,-0.152173913,1,0,0,0,196,196,40,1,schep,images/br_schep.png,images/cb_schep.png,0,,,,,,,,,,,,,,,,,,,,,,
,,,,,00056,2023-10-14_13h52.51.577,vbt_B2_day3,2022.2.4,MacIntel,47.61904762,,,,,,down,0,4.031,,0.626928471,-0.154978962,1,0,0,0,197,197,159,1,sufferd,images/br_sufferd.png,images/cb_sufferd.png,0,,,,,,,,,,,,,,,,,,,,,,
,,,,,00056,2023-10-14_13h52.51.577,vbt_B2_day3,2022.2.4,MacIntel,47.61904762,,,,,,down,0,15.445,,0.565217391,0.030154278,1,0,0,0,198,198,128,1,prikken,images/br_prikken.png,images/cb_prikken.png,0,,,,,,,,,,,,,,,,,,,,,,
,,,,,00056,2023-10-14_13h52.51.577,vbt_B2_day3,2022.2.4,MacIntel,47.61904762,,,,,,down,0,36.033,,0.559607293,-0.192847125,1,0,0,0,199,199,180,1,openbaar,images/br_openbaar.png,images/cb_openbaar.png,1,Openbaar,,,,,,,,,,,,,,,,,,,,,
,,,,,00056,2023-10-14_13h52.51.577,vbt_B2_day3,2022.2.4,MacIntel,47.61904762,,,,,,,,,,,,,,,,,,,,,,,,,0.443197756,-0.066619916,1,0,0,,,,,,,,,,,,,,,,
,,,,,00056,2023-10-14_13h52.51.577,vbt_B2_day3,2022.2.4,MacIntel,47.61904762,,,,,,,,,,,,,,,,,,,,,,,,,,,,,,0.559607293,-0.082047686,1,0,0,,,,,,,,,,,
,,,,,00056,2023-10-14_13h52.51.577,vbt_B2_day3,2022.2.4,MacIntel,47.61904762,,,,,,,,,,,,,,,,,,,,verraden,images/br_verraden.png,images/cb_verraden.png,,Verraden,,,,,,,,,,,0.563814867,-0.002103787,1,0,0,Verraden,0,0,0,58,1
,,,,,00056,2023-10-14_13h52.51.577,vbt_B2_day3,2022.2.4,MacIntel,47.61904762,,,,,,,,,,,,,,,,,,,,alsof,images/br_alsof.png,images/cb_alsof.png,,Alsof,,,,,,,,,,,0.619915849,-0.091865358,1,0,0,Alsof,0,1,1,44,1
,,,,,00056,2023-10-14_13h52.51.577,vbt_B2_day3,2022.2.4,MacIntel,47.61904762,,,,,,,,,,,,,,,,,,,,uniek,images/br_uniek.png,images/cb_uniek.png,,Uniek,,,,,,,,,,,0.639551192,-0.05259467,1,0,0,Uniek,0,2,2,46,1
,,,,,00056,2023-10-14_13h52.51.577,vbt_B2_day3,2022.2.4,MacIntel,47.61904762,,,,,,,,,,,,,,,,,,,,jongelui,images/br_jongelui.png,images/cb_jongelui.png,,Jongelei,,,,,,,,,,,0.661991585,-0.041374474,1,0,0,Jongelei,0,3,3,59,1
,,,,,00056,2023-10-14_13h52.51.577,vbt_B2_day3,2022.2.4,MacIntel,47.61904762,,,,,,,,,,,,,,,,,,,,begrip,images/br_begrip.png,images/cb_begrip.png,,Begrip,,,,,,,,,,,0.677419355,-0.087657784,1,0,0,Begrip,0,4,4,48,1
,,,,,00056,2023-10-14_13h52.51.577,vbt_B2_day3,2022.2.4,MacIntel,47.61904762,,,,,,,,,,,,,,,,,,,,dwang,images/br_dwang.png,images/cb_dwang.png,,Dwang,,,,,,,,,,,0.697054698,-0.091865358,1,0,0,Dwang,0,5,5,47,1
,,,,,00056,2023-10-14_13h52.51.577,vbt_B2_day3,2022.2.4,MacIntel,47.61904762,,,,,,,,,,,,,,,,,,,,hier,images/br_hier.png,images/cb_hier.png,,Hier,,,,,,,,,,,0.652173913,-0.066619916,1,0,0,Hier,0,6,6,1,1
,,,,,00056,2023-10-14_13h52.51.577,vbt_B2_day3,2022.2.4,MacIntel,47.61904762,,,,,,,,,,,,,,,,,,,,kaas,images/br_kaas.png,images/cb_kaas.png,,Kaas,,,,,,,,,,,0.656381487,-0.094670407,1,0,0,Kaas,0,7,7,42,1
,,,,,00056,2023-10-14_13h52.51.577,vbt_B2_day3,2022.2.4,MacIntel,47.61904762,,,,,,,,,,,,,,,,,,,,boeien,images/br_boeien.png,images/cb_boeien.png,,Boeien,,,,,,,,,,,0.612903226,-0.044179523,1,0,0,Boeien,0,8,8,8,1
,,,,,00056,2023-10-14_13h52.51.577,vbt_B2_day3,2022.2.4,MacIntel,47.61904762,,,,,,,,,,,,,,,,,,,,paken,images/br_paken.png,images/cb_paken.png,,Paken,,,,,,,,,,,0.66058906,-0.020336606,1,0,0,Paken,0,9,9,27,1
,,,,,00056,2023-10-14_13h52.51.577,vbt_B2_day3,2022.2.4,MacIntel,47.61904762,,,,,,,,,,,,,,,,,,,,invallen,images/br_invallen.png,images/cb_invallen.png,,Invallen,,,,,,,,,,,0.656381487,-0.00631136,1,0,0,Invallen,0,10,10,57,1
,,,,,00056,2023-10-14_13h52.51.577,vbt_B2_day3,2022.2.4,MacIntel,47.61904762,,,,,,,,,,,,,,,,,,,,mugeek,images/br_mugeek.png,images/cb_mugeek.png,,Mugeek,,,,,,,,,,,0.650771388,-0.08345021,1,0,0,Mugeek,0,11,11,29,1
,,,,,00056,2023-10-14_13h52.51.577,vbt_B2_day3,2022.2.4,MacIntel,47.61904762,,,,,,,,,,,,,,,,,,,,samen,images/br_samen.png,images/cb_samen.png,,Samen,,,,,,,,,,,0.647966339,-0.058204769,1,0,0,Samen,0,12,12,7,1
,,,,,00056,2023-10-14_13h52.51.577,vbt_B2_day3,2022.2.4,MacIntel,47.61904762,,,,,,,,,,,,,,,,,,,,bisschop,images/br_bisschop.png,images/cb_bisschop.png,,Bisschop,,,,,,,,,,,0.681626928,-0.100280505,1,0,0,Bisschop,0,13,13,16,1
,,,,,00056,2023-10-14_13h52.51.577,vbt_B2_day3,2022.2.4,MacIntel,47.61904762,,,,,,,,,,,,,,,,,,,,onrecht,images/br_onrecht.png,images/cb_onrecht.png,,Onrecht,,,,,,,,,,,0.674614306,-0.030154278,1,0,0,Onrecht,0,14,14,55,1
,,,,,00056,2023-10-14_13h52.51.577,vbt_B2_day3,2022.2.4,MacIntel,47.61904762,,,,,,,,,,,,,,,,,,,,gebod,images/br_gebod.png,images/cb_gebod.png,,Gebod,,,,,,,,,,,0.698457223,-0.073632539,1,0,0,Gebod,0,15,15,45,1
,,,,,00056,2023-10-14_13h52.51.577,vbt_B2_day3,2022.2.4,MacIntel,47.61904762,,,,,,,,,,,,,,,,,,,,leugeren,images/br_leugeren.png,images/cb_leugeren.png,,Luieren,,,,,,,,,,,0.632538569,-0.16058906,1,0,0,Luieren,0,16,16,37,1
,,,,,00056,2023-10-14_13h52.51.577,vbt_B2_day3,2022.2.4,MacIntel,47.61904762,,,,,,,,,,,,,,,,,,,,stallen,images/br_stallen.png,images/cb_stallen.png,,Stallen,,,,,,,,,,,0.631136045,-0.030154278,1,0,0,Stallen,0,17,17,52,1
,,,,,00056,2023-10-14_13h52.51.577,vbt_B2_day3,2022.2.4,MacIntel,47.61904762,,,,,,,,,,,,,,,,,,,,twaaf,images/br_twaaf.png,images/cb_twaaf.png,,Twaaf,,,,,,,,,,,0.626928471,-0.027349229,1,0,0,Twaaf,0,18,18,24,1
,,,,,00056,2023-10-14_13h52.51.577,vbt_B2_day3,2022.2.4,MacIntel,47.61904762,,,,,,,,,,,,,,,,,,,,beslag,images/br_beslag.png,images/cb_beslag.png,,Beslag,,,,,,,,,,,0.730715288,-0.070827489,1,0,0,Beslag,0,19,19,51,1
,,,,,00056,2023-10-14_13h52.51.577,vbt_B2_day3,2022.2.4,MacIntel,47.61904762,,,,,,,,,,,,,,,,,,,,stoom,images/br_stoom.png,images/cb_stoom.png,,Stoom,,,,,,,,,,,0.712482468,-0.161991585,1,0,0,Stoom,0,20,20,6,1
,,,,,00056,2023-10-14_13h52.51.577,vbt_B2_day3,2022.2.4,MacIntel,47.61904762,,,,,,,,,,,,,,,,,,,,verwoor,images/br_verwoor.png,images/cb_verwoor.png,,Verwoor,,,,,,,,,,,0.695652174,-0.132538569,1,0,0,Verwoor,0,21,21,32,1
,,,,,00056,2023-10-14_13h52.51.577,vbt_B2_day3,2022.2.4,MacIntel,47.61904762,,,,,,,,,,,,,,,,,,,,gezond,images/br_gezond.png,images/cb_gezond.png,,Gezond,,,,,,,,,,,0.617110799,-0.058204769,1,0,0,Gezond,0,22,22,11,1
,,,,,00056,2023-10-14_13h52.51.577,vbt_B2_day3,2022.2.4,MacIntel,47.61904762,,,,,,,,,,,,,,,,,,,,leemaken,images/br_leemaken.png,images/cb_leemaken.png,,Leemaken,,,,,,,,,,,0.639551192,-0.169004208,1,0,0,Leemaken,0,23,23,39,1
,,,,,00056,2023-10-14_13h52.51.577,vbt_B2_day3,2022.2.4,MacIntel,47.61904762,,,,,,,,,,,,,,,,,,,,aarzelen,images/br_aarzelen.png,images/cb_aarzelen.png,,Aarzelen,,,,,,,,,,,0.633941094,-0.169004208,1,0,0,Aarzelen,0,24,24,19,1
,,,,,00056,2023-10-14_13h52.51.577,vbt_B2_day3,2022.2.4,MacIntel,47.61904762,,,,,,,,,,,,,,,,,,,,afbopen,images/br_afbopen.png,images/cb_afbopen.png,,Afbollen,,,,,,,,,,,0.657784011,-0.103085554,1,0,0,Afbollen,0,25,25,34,1
,,,,,00056,2023-10-14_13h52.51.577,vbt_B2_day3,2022.2.4,MacIntel,47.61904762,,,,,,,,,,,,,,,,,,,,opzetten,images/br_opzetten.png,images/cb_opzetten.png,,Opzetten,,,,,,,,,,,0.624123422,-0.17601683,1,0,0,Opzetten,0,26,26,56,1
,,,,,00056,2023-10-14_13h52.51.577,vbt_B2_day3,2022.2.4,MacIntel,47.61904762,,,,,,,,,,,,,,,,,,,,kwaas,images/br_kwaas.png,images/cb_kwaas.png,,Kwaas,,,,,,,,,,,0.636746143,-0.152173913,1,0,0,Kwaas,0,27,27,26,1
,,,,,00056,2023-10-14_13h52.51.577,vbt_B2_day3,2022.2.4,MacIntel,47.61904762,,,,,,,,,,,,,,,,,,,,croo,images/br_croo.png,images/cb_croo.png,,Croo,,,,,,,,,,,0.732117812,-0.185834502,1,0,0,Croo,0,28,28,22,1
,,,,,00056,2023-10-14_13h52.51.577,vbt_B2_day3,2022.2.4,MacIntel,47.61904762,,,,,,,,,,,,,,,,,,,,theeting,images/br_theeting.png,images/cb_theeting.png,,Thee…,,,,,,,,,,,0.667601683,-0.181626928,1,0,0,Thee…,0,29,29,38,1
,,,,,00056,2023-10-14_13h52.51.577,vbt_B2_day3,2022.2.4,MacIntel,47.61904762,,,,,,,,,,,,,,,,,,,,eens,images/br_eens.png,images/cb_eens.png,,Eens,,,,,,,,,,,0.666199158,-0.128330996,1,0,0,Eens,0,30,30,40,1
,,,,,00056,2023-10-14_13h52.51.577,vbt_B2_day3,2022.2.4,MacIntel,47.61904762,,,,,,,,,,,,,,,,,,,,schatten,images/br_schatten.png,images/cb_schatten.png,,Schatten,,,,,,,,,,,0.690042076,-0.173211781,1,0,0,Schatten,0,31,31,18,1
,,,,,00056,2023-10-14_13h52.51.577,vbt_B2_day3,2022.2.4,MacIntel,47.61904762,,,,,,,,,,,,,,,,,,,,booien,images/br_booien.png,images/cb_booien.png,,Booien,,,,,,,,,,,0.652173913,-0.104488079,1,0,0,Booien,0,32,32,31,1
,,,,,00056,2023-10-14_13h52.51.577,vbt_B2_day3,2022.2.4,MacIntel,47.61904762,,,,,,,,,,,,,,,,,,,,glijden,images/br_glijden.png,images/cb_glijden.png,,Gliften,,,,,,,,,,,0.671809257,-0.157784011,1,0,0,Gliften,0,33,33,53,1
,,,,,00056,2023-10-14_13h52.51.577,vbt_B2_day3,2022.2.4,MacIntel,47.61904762,,,,,,,,,,,,,,,,,,,,sultan,images/br_sultan.png,images/cb_sultan.png,,Sultan,,,,,,,,,,,0.610098177,-0.190042076,1,0,0,Sultan,0,34,34,49,1
,,,,,00056,2023-10-14_13h52.51.577,vbt_B2_day3,2022.2.4,MacIntel,47.61904762,,,,,,,,,,,,,,,,,,,,laken,images/br_laken.png,images/cb_laken.png,,Laken,,,,,,,,,,,0.650771388,-0.135343619,1,0,0,Laken,0,35,35,5,1
,,,,,00056,2023-10-14_13h52.51.577,vbt_B2_day3,2022.2.4,MacIntel,47.61904762,,,,,,,,,,,,,,,,,,,,prikken,images/br_prikken.png,images/cb_prikken.png,,Prikken,,,,,,,,,,,0.685834502,-0.204067321,1,0,0,Prikken,0,36,36,12,1
,,,,,00056,2023-10-14_13h52.51.577,vbt_B2_day3,2022.2.4,MacIntel,47.61904762,,,,,,,,,,,,,,,,,,,,kest,images/br_kest.png,images/cb_kest.png,,Kest,,,,,,,,,,,0.671809257,-0.131136045,1,0,0,Kest,0,37,37,21,1
,,,,,00056,2023-10-14_13h52.51.577,vbt_B2_day3,2022.2.4,MacIntel,47.61904762,,,,,,,,,,,,,,,,,,,,oprotten,images/br_oprotten.png,images/cb_oprotten.png,,Oprotten,,,,,,,,,,,0.64516129,-0.211079944,1,0,0,Oprotten,0,38,38,17,1
,,,,,00056,2023-10-14_13h52.51.577,vbt_B2_day3,2022.2.4,MacIntel,47.61904762,,,,,,,,,,,,,,,,,,,,knie,images/br_knie.png,images/cb_knie.png,,Knie,,,,,,,,,,,0.674614306,-0.14516129,1,0,0,Knie,0,39,39,0,1
,,,,,00056,2023-10-14_13h52.51.577,vbt_B2_day3,2022.2.4,MacIntel,47.61904762,,,,,,,,,,,,,,,,,,,,hint,images/br_hint.png,images/cb_hint.png,,Hint,,,,,,,,,,,0.66058906,-0.156381487,1,0,0,Hint,0,40,40,43,1
,,,,,00056,2023-10-14_13h52.51.577,vbt_B2_day3,2022.2.4,MacIntel,47.61904762,,,,,,,,,,,,,,,,,,,,zone,images/br_zone.png,images/cb_zone.png,,Zone,,,,,,,,,,,0.635343619,-0.174614306,1,0,0,Zone,0,41,41,41,1
,,,,,00056,2023-10-14_13h52.51.577,vbt_B2_day3,2022.2.4,MacIntel,47.61904762,,,,,,,,,,,,,,,,,,,,opzicht,images/br_opzicht.png,images/cb_opzicht.png,,Opzicht,,,,,,,,,,,0.701262272,-0.107293128,1,0,0,Opzicht,0,42,42,15,1
,,,,,00056,2023-10-14_13h52.51.577,vbt_B2_day3,2022.2.4,MacIntel,47.61904762,,,,,,,,,,,,,,,,,,,,brappen,images/br_brappen.png,images/cb_brappen.png,,Brappen,,,,,,,,,,,0.659186536,-0.22230014,1,0,0,Brappen,0,43,43,35,1
,,,,,00056,2023-10-14_13h52.51.577,vbt_B2_day3,2022.2.4,MacIntel,47.61904762,,,,,,,,,,,,,,,,,,,,sluier,images/br_sluier.png,images/cb_sluier.png,,Sluier,,,,,,,,,,,0.67601683,-0.170406732,1,0,0,Sluier,0,44,44,50,1
,,,,,00056,2023-10-14_13h52.51.577,vbt_B2_day3,2022.2.4,MacIntel,47.61904762,,,,,,,,,,,,,,,,,,,,steel,images/br_steel.png,images/cb_steel.png,,Steel,,,,,,,,,,,0.697054698,-0.086255259,1,0,0,Steel,0,45,45,4,1
,,,,,00056,2023-10-14_13h52.51.577,vbt_B2_day3,2022.2.4,MacIntel,47.61904762,,,,,,,,,,,,,,,,,,,,verhaal,images/br_verhaal.png,images/cb_verhaal.png,,Verhaal,,,,,,,,,,,0.626928471,-0.143758766,1,0,0,Verhaal,0,46,46,13,1
,,,,,00056,2023-10-14_13h52.51.577,vbt_B2_day3,2022.2.4,MacIntel,47.61904762,,,,,,,,,,,,,,,,,,,,geluid,images/br_geluid.png,images/cb_geluid.png,,Geluid,,,,,,,,,,,0.681626928,-0.136746143,1,0,0,Geluid,0,47,47,10,1
,,,,,00056,2023-10-14_13h52.51.577,vbt_B2_day3,2022.2.4,MacIntel,47.61904762,,,,,,,,,,,,,,,,,,,,mode,images/br_mode.png,images/cb_mode.png,,Mode,,,,,,,,,,,0.708274895,-0.117110799,1,0,0,Mode,0,48,48,3,1
,,,,,00056,2023-10-14_13h52.51.577,vbt_B2_day3,2022.2.4,MacIntel,47.61904762,,,,,,,,,,,,,,,,,,,,uviek,images/br_uviek.png,images/cb_uviek.png,,Uviek,,,,,,,,,,,0.670406732,-0.190042076,1,0,0,Uviek,0,49,49,25,1
,,,,,00056,2023-10-14_13h52.51.577,vbt_B2_day3,2022.2.4,MacIntel,47.61904762,,,,,,,,,,,,,,,,,,,,bevret,images/br_bevret.png,images/cb_bevret.png,,Bevret,,,,,,,,,,,0.64516129,-0.163394109,1,0,0,Bevret,0,50,50,30,1
,,,,,00056,2023-10-14_13h52.51.577,vbt_B2_day3,2022.2.4,MacIntel,47.61904762,,,,,,,,,,,,,,,,,,,,vlager,images/br_vlager.png,images/cb_vlager.png,,Vlager,,,,,,,,,,,0.650771388,-0.16058906,1,0,0,Vlager,0,51,51,28,1
,,,,,00056,2023-10-14_13h52.51.577,vbt_B2_day3,2022.2.4,MacIntel,47.61904762,,,,,,,,,,,,,,,,,,,,schodel,images/br_schodel.png,images/cb_schodel.png,,Schodel,,,,,,,,,,,0.61430575,-0.20687237,1,0,0,Schodel,0,52,52,33,1
,,,,,00056,2023-10-14_13h52.51.577,vbt_B2_day3,2022.2.4,MacIntel,47.61904762,,,,,,,,,,,,,,,,,,,,hust,images/br_hust.png,images/cb_hust.png,,Hust,,,,,,,,,,,0.647966339,-0.192847125,1,0,0,Hust,0,53,53,23,1
,,,,,00056,2023-10-14_13h52.51.577,vbt_B2_day3,2022.2.4,MacIntel,47.61904762,,,,,,,,,,,,,,,,,,,,keihard,images/br_keihard.png,images/cb_keihard.png,,Keihard,,,,,,,,,,,0.663394109,-0.197054698,1,0,0,Keihard,0,54,54,14,1
,,,,,00056,2023-10-14_13h52.51.577,vbt_B2_day3,2022.2.4,MacIntel,47.61904762,,,,,,,,,,,,,,,,,,,,gout,images/br_gout.png,images/cb_gout.png,,Goud,,,,,,,,,,,0.681626928,-0.211079944,1,0,0,Goud,0,55,55,20,1
,,,,,00056,2023-10-14_13h52.51.577,vbt_B2_day3,2022.2.4,MacIntel,47.61904762,,,,,,,,,,,,,,,,,,,,leek,images/br_leek.png,images/cb_leek.png,,Leek,,,,,,,,,,,0.628330996,-0.213884993,1,0,0,Leek,0,56,56,2,1
,,,,,00056,2023-10-14_13h52.51.577,vbt_B2_day3,2022.2.4,MacIntel,47.61904762,,,,,,,,,,,,,,,,,,,,slapen,images/br_slapen.png,images/cb_slapen.png,,Slapen,,,,,,,,,,,0.646563815,-0.230715288,1,0,0,Slapen,0,57,57,9,1
,,,,,00056,2023-10-14_13h52.51.577,vbt_B2_day3,2022.2.4,MacIntel,47.61904762,,,,,,,,,,,,,,,,,,,,makieren,images/br_makieren.png,images/cb_makieren.png,,Makieren,,,,,,,,,,,0.611500701,-0.136746143,1,0,0,Makieren,0,58,58,36,1
,,,,,00056,2023-10-14_13h52.51.577,vbt_B2_day3,2022.2.4,MacIntel,47.61904762,,,,,,,,,,,,,,,,,,,,stikken,images/br_stikken.png,images/cb_stikken.png,,Stikken,,,,,,,,,,,0.492286115,-0.199859748,1,0,0,Stikken,0,59,59,54,1
,,,,,00056,2023-10-14_13h52.51.577,vbt_B2_day3,2022.2.4,MacIntel,47.61904762,,,,,,,,,,,,,,,,,,,,,,,,,,,,,,,,,,,,,,,,,,,,,
