welcome_mouse.x,welcome_mouse.y,welcome_mouse.leftButton,welcome_mouse.midButton,welcome_mouse.rightButton,"ID",date,expName,psychopyVersion,OS,frameRate,trainInstr_mouse.x,trainInstr_mouse.y,trainInstr_mouse.leftButton,trainInstr_mouse.midButton,trainInstr_mouse.rightButton,translation_key.keys,translation_key.corr,translation_key.rt,word_rsp.text,trWrd_mouse.x,trWrd_mouse.y,trWrd_mouse.leftButton,trWrd_mouse.midButton,trWrd_mouse.rightButton,train_loop.thisRepN,train_loop.thisTrialN,train_loop.thisN,train_loop.thisIndex,train_loop.ran,nlWrd,brWrd,cbWrd,test,testResp,mouse.x,mouse.y,mouse.leftButton,mouse.midButton,mouse.rightButton,testInstr_mouse.x,testInstr_mouse.y,testInstr_mouse.leftButton,testInstr_mouse.midButton,testInstr_mouse.rightButton,test_mouse.x,test_mouse.y,test_mouse.leftButton,test_mouse.midButton,test_mouse.rightButton,test_response.text,test_loop.thisRepN,test_loop.thisTrialN,test_loop.thisN,test_loop.thisIndex,test_loop.ran
-0.035185157,-0.251851908,1,0,0,00018,2023-08-13_11h17.22.148,vbt_B2_day3,2022.2.4,Win32,61.06124443,,,,,,,,,,,,,,,,,,,,,,,,,,,,,,,,,,,,,,,,,,,,,
,,,,,00018,2023-08-13_11h17.22.148,vbt_B2_day3,2022.2.4,Win32,61.06124443,-0.035185157,-0.251851908,1,0,0,,,,,,,,,,,,,,,,,,,,,,,,,,,,,,,,,,,,,,,,
,,,,,00018,2023-08-13_11h17.22.148,vbt_B2_day3,2022.2.4,Win32,61.06124443,,,,,,down,0,13.1005,,-0.035185157,-0.251851908,1,0,0,0,0,0,92,1,geheim,images/br_geheim.png,images/cb_geheim.png,0,,,,,,,,,,,,,,,,,,,,,,
,,,,,00018,2023-08-13_11h17.22.148,vbt_B2_day3,2022.2.4,Win32,61.06124443,,,,,,down,0,18.4801,,0.362963019,-0.168518533,1,0,0,0,1,1,90,1,geluid,images/br_geluid.png,images/cb_geluid.png,0,,,,,,,,,,,,,,,,,,,,,,
,,,,,00018,2023-08-13_11h17.22.148,vbt_B2_day3,2022.2.4,Win32,61.06124443,,,,,,down,0,28.8499,,0.372222222,-0.048148176,1,0,0,0,2,2,45,1,piste,images/br_piste.png,images/cb_piste.png,0,,,,,,,,,,,,,,,,,,,,,,
,,,,,00018,2023-08-13_11h17.22.148,vbt_B2_day3,2022.2.4,Win32,61.06124443,,,,,,down,0,4.79,,0.372222222,-0.048148176,1,0,0,0,3,3,173,1,apparaat,images/br_apparaat.png,images/cb_apparaat.png,0,,,,,,,,,,,,,,,,,,,,,,
,,,,,00018,2023-08-13_11h17.22.148,vbt_B2_day3,2022.2.4,Win32,61.06124443,,,,,,down,0,8.9209,,0.372222222,-0.048148176,1,0,0,0,4,4,15,1,soda,images/br_soda.png,images/cb_soda.png,0,,,,,,,,,,,,,,,,,,,,,,
,,,,,00018,2023-08-13_11h17.22.148,vbt_B2_day3,2022.2.4,Win32,61.06124443,,,,,,down,0,11.5603,,0.372222222,-0.048148176,1,0,0,0,5,5,48,1,steel,images/br_steel.png,images/cb_steel.png,0,,,,,,,,,,,,,,,,,,,,,,
,,,,,00018,2023-08-13_11h17.22.148,vbt_B2_day3,2022.2.4,Win32,61.06124443,,,,,,down,0,5.4814,,0.372222222,-0.048148176,1,0,0,0,6,6,112,1,lukken,images/br_lukken.png,images/cb_lukken.png,0,,,,,,,,,,,,,,,,,,,,,,
,,,,,00018,2023-08-13_11h17.22.148,vbt_B2_day3,2022.2.4,Win32,61.06124443,,,,,,down,0,7.3956,,0.372222222,-0.048148176,1,0,0,0,7,7,122,1,waarvan,images/br_waarvan.png,images/cb_waarvan.png,0,,,,,,,,,,,,,,,,,,,,,,
,,,,,00018,2023-08-13_11h17.22.148,vbt_B2_day3,2022.2.4,Win32,61.06124443,,,,,,down,0,10.9764,,0.369444444,-0.055555556,1,0,0,0,8,8,176,1,techniek,images/br_techniek.png,images/cb_techniek.png,0,,,,,,,,,,,,,,,,,,,,,,
,,,,,00018,2023-08-13_11h17.22.148,vbt_B2_day3,2022.2.4,Win32,61.06124443,,,,,,down,0,50.576,,0.369444444,-0.055555556,1,0,0,0,9,9,127,1,doodmoe,images/br_doodmoe.png,images/cb_doodmoe.png,0,,,,,,,,,,,,,,,,,,,,,,
,,,,,00018,2023-08-13_11h17.22.148,vbt_B2_day3,2022.2.4,Win32,61.06124443,,,,,,down,0,25.1907,,0.369444444,-0.055555556,1,0,0,0,10,10,98,1,kreeft,images/br_kreeft.png,images/cb_kreeft.png,0,,,,,,,,,,,,,,,,,,,,,,
,,,,,00018,2023-08-13_11h17.22.148,vbt_B2_day3,2022.2.4,Win32,61.06124443,,,,,,down,0,1.6879,,0.369444444,-0.055555556,1,0,0,0,11,11,117,1,kennis,images/br_kennis.png,images/cb_kennis.png,0,,,,,,,,,,,,,,,,,,,,,,
,,,,,00018,2023-08-13_11h17.22.148,vbt_B2_day3,2022.2.4,Win32,61.06124443,,,,,,down,0,3.8464,,0.369444444,-0.055555556,1,0,0,0,12,12,49,1,laken,images/br_laken.png,images/cb_laken.png,0,,,,,,,,,,,,,,,,,,,,,,
,,,,,00018,2023-08-13_11h17.22.148,vbt_B2_day3,2022.2.4,Win32,61.06124443,,,,,,down,0,3.4996,,0.369444444,-0.055555556,1,0,0,0,13,13,125,1,aanzien,images/br_aanzien.png,images/cb_aanzien.png,0,,,,,,,,,,,,,,,,,,,,,,
,,,,,00018,2023-08-13_11h17.22.148,vbt_B2_day3,2022.2.4,Win32,61.06124443,,,,,,down,0,3.3077,,0.369444444,-0.055555556,1,0,0,0,14,14,86,1,woning,images/br_woning.png,images/cb_woning.png,0,,,,,,,,,,,,,,,,,,,,,,
,,,,,00018,2023-08-13_11h17.22.148,vbt_B2_day3,2022.2.4,Win32,61.06124443,,,,,,down,0,6.833,,0.369444444,-0.055555556,1,0,0,0,15,15,75,1,snoep,images/br_snoep.png,images/cb_snoep.png,0,,,,,,,,,,,,,,,,,,,,,,
,,,,,00018,2023-08-13_11h17.22.148,vbt_B2_day3,2022.2.4,Win32,61.06124443,,,,,,down,0,17.7061,,0.369444444,-0.055555556,1,0,0,0,16,16,52,1,wagon,images/br_wagon.png,images/cb_wagon.png,0,,,,,,,,,,,,,,,,,,,,,,
,,,,,00018,2023-08-13_11h17.22.148,vbt_B2_day3,2022.2.4,Win32,61.06124443,,,,,,down,0,15.9777,,0.369444444,-0.055555556,1,0,0,0,17,17,185,1,mijnheer,images/br_mijnheer.png,images/cb_mijnheer.png,0,,,,,,,,,,,,,,,,,,,,,,
,,,,,00018,2023-08-13_11h17.22.148,vbt_B2_day3,2022.2.4,Win32,61.06124443,,,,,,down,0,29.6023,,0.369444444,-0.055555556,1,0,0,0,18,18,95,1,vreten,images/br_vreten.png,images/cb_vreten.png,0,,,,,,,,,,,,,,,,,,,,,,
,,,,,00018,2023-08-13_11h17.22.148,vbt_B2_day3,2022.2.4,Win32,61.06124443,,,,,,down,0,2.2198,,0.369444444,-0.055555556,1,0,0,0,19,19,7,1,geld,images/br_geld.png,images/cb_geld.png,0,,,,,,,,,,,,,,,,,,,,,,
,,,,,00018,2023-08-13_11h17.22.148,vbt_B2_day3,2022.2.4,Win32,61.06124443,,,,,,down,0,7.8629,,0.369444444,-0.055555556,1,0,0,0,20,20,131,1,opzicht,images/br_opzicht.png,images/cb_opzicht.png,0,,,,,,,,,,,,,,,,,,,,,,
,,,,,00018,2023-08-13_11h17.22.148,vbt_B2_day3,2022.2.4,Win32,61.06124443,,,,,,down,0,3.5492,,0.369444444,-0.055555556,1,0,0,0,21,21,44,1,flits,images/br_flits.png,images/cb_flits.png,0,,,,,,,,,,,,,,,,,,,,,,
,,,,,00018,2023-08-13_11h17.22.148,vbt_B2_day3,2022.2.4,Win32,61.06124443,,,,,,down,0,3.7479,,0.369444444,-0.055555556,1,0,0,0,22,22,151,1,aanzoek,images/br_aanzoek.png,images/cb_aanzoek.png,0,,,,,,,,,,,,,,,,,,,,,,
,,,,,00018,2023-08-13_11h17.22.148,vbt_B2_day3,2022.2.4,Win32,61.06124443,,,,,,down,0,43.2803,,0.369444444,-0.055555556,1,0,0,0,23,23,153,1,vervoer,images/br_vervoer.png,images/cb_vervoer.png,0,,,,,,,,,,,,,,,,,,,,,,
,,,,,00018,2023-08-13_11h17.22.148,vbt_B2_day3,2022.2.4,Win32,61.06124443,,,,,,down,0,7.33,,0.369444444,-0.055555556,1,0,0,0,24,24,196,1,nakijken,images/br_nakijken.png,images/cb_nakijken.png,0,,,,,,,,,,,,,,,,,,,,,,
,,,,,00018,2023-08-13_11h17.22.148,vbt_B2_day3,2022.2.4,Win32,61.06124443,,,,,,down,0,7.9511,,0.369444444,-0.055555556,1,0,0,0,25,25,180,1,openbaar,images/br_openbaar.png,images/cb_openbaar.png,1,openbaar,,,,,,,,,,,,,,,,,,,,,
,,,,,00018,2023-08-13_11h17.22.148,vbt_B2_day3,2022.2.4,Win32,61.06124443,,,,,,down,0,6.8311,,0.369444444,-0.055555556,1,0,0,0,26,26,181,1,toegeven,images/br_toegeven.png,images/cb_toegeven.png,1,toegeven,,,,,,,,,,,,,,,,,,,,,
,,,,,00018,2023-08-13_11h17.22.148,vbt_B2_day3,2022.2.4,Win32,61.06124443,,,,,,down,0,13.2921,,0.369444444,-0.055555556,1,0,0,0,27,27,158,1,innemen,images/br_innemen.png,images/cb_innemen.png,0,,,,,,,,,,,,,,,,,,,,,,
,,,,,00018,2023-08-13_11h17.22.148,vbt_B2_day3,2022.2.4,Win32,61.06124443,,,,,,down,0,3.5015,,0.369444444,-0.055555556,1,0,0,0,28,28,20,1,site,images/br_site.png,images/cb_site.png,1,site,,,,,,,,,,,,,,,,,,,,,
,,,,,00018,2023-08-13_11h17.22.148,vbt_B2_day3,2022.2.4,Win32,61.06124443,,,,,,down,0,3.5993,,0.369444444,-0.055555556,1,0,0,0,29,29,79,1,nodig,images/br_nodig.png,images/cb_nodig.png,0,,,,,,,,,,,,,,,,,,,,,,
,,,,,00018,2023-08-13_11h17.22.148,vbt_B2_day3,2022.2.4,Win32,61.06124443,,,,,,down,0,13.16,,0.369444444,-0.055555556,1,0,0,0,30,30,94,1,oceaan,images/br_oceaan.png,images/cb_oceaan.png,0,,,,,,,,,,,,,,,,,,,,,,
,,,,,00018,2023-08-13_11h17.22.148,vbt_B2_day3,2022.2.4,Win32,61.06124443,,,,,,down,0,23.3358,,0.369444444,-0.055555556,1,0,0,0,31,31,40,1,schep,images/br_schep.png,images/cb_schep.png,0,,,,,,,,,,,,,,,,,,,,,,
,,,,,00018,2023-08-13_11h17.22.148,vbt_B2_day3,2022.2.4,Win32,61.06124443,,,,,,down,0,8.7253,,0.369444444,-0.055555556,1,0,0,0,32,32,174,1,stemming,images/br_stemming.png,images/cb_stemming.png,0,,,,,,,,,,,,,,,,,,,,,,
,,,,,00018,2023-08-13_11h17.22.148,vbt_B2_day3,2022.2.4,Win32,61.06124443,,,,,,down,0,33.6796,,0.369444444,-0.055555556,1,0,0,0,33,33,157,1,uitlaat,images/br_uitlaat.png,images/cb_uitlaat.png,0,,,,,,,,,,,,,,,,,,,,,,
,,,,,00018,2023-08-13_11h17.22.148,vbt_B2_day3,2022.2.4,Win32,61.06124443,,,,,,down,0,0.8543,,0.369444444,-0.055555556,1,0,0,0,34,34,10,1,leek,images/br_leek.png,images/cb_leek.png,0,,,,,,,,,,,,,,,,,,,,,,
,,,,,00018,2023-08-13_11h17.22.148,vbt_B2_day3,2022.2.4,Win32,61.06124443,,,,,,down,0,5.5006,,0.369444444,-0.055555556,1,0,0,0,35,35,197,1,spanning,images/br_spanning.png,images/cb_spanning.png,0,,,,,,,,,,,,,,,,,,,,,,
,,,,,00018,2023-08-13_11h17.22.148,vbt_B2_day3,2022.2.4,Win32,61.06124443,,,,,,down,0,3.024,,0.369444444,-0.055555556,1,0,0,0,36,36,179,1,woestijn,images/br_woestijn.png,images/cb_woestijn.png,0,,,,,,,,,,,,,,,,,,,,,,
,,,,,00018,2023-08-13_11h17.22.148,vbt_B2_day3,2022.2.4,Win32,61.06124443,,,,,,down,0,30.0382,,0.369444444,-0.055555556,1,0,0,0,37,37,130,1,keihard,images/br_keihard.png,images/cb_keihard.png,0,,,,,,,,,,,,,,,,,,,,,,
,,,,,00018,2023-08-13_11h17.22.148,vbt_B2_day3,2022.2.4,Win32,61.06124443,,,,,,down,0,4.8809,,0.369444444,-0.055555556,1,0,0,0,38,38,168,1,bisschop,images/br_bisschop.png,images/cb_bisschop.png,0,,,,,,,,,,,,,,,,,,,,,,
,,,,,00018,2023-08-13_11h17.22.148,vbt_B2_day3,2022.2.4,Win32,61.06124443,,,,,,down,0,33.2804,,0.369444444,-0.055555556,1,0,0,0,39,39,178,1,huisdier,images/br_huisdier.png,images/cb_huisdier.png,0,,,,,,,,,,,,,,,,,,,,,,
,,,,,00018,2023-08-13_11h17.22.148,vbt_B2_day3,2022.2.4,Win32,61.06124443,,,,,,down,0,3.74,,0.369444444,-0.055555556,1,0,0,0,40,40,23,1,zout,images/br_zout.png,images/cb_zout.png,1,zoet,,,,,,,,,,,,,,,,,,,,,
,,,,,00018,2023-08-13_11h17.22.148,vbt_B2_day3,2022.2.4,Win32,61.06124443,,,,,,down,0,8.6285,,0.369444444,-0.055555556,1,0,0,0,41,41,37,1,mijn,images/br_mijn.png,images/cb_mijn.png,0,,,,,,,,,,,,,,,,,,,,,,
,,,,,00018,2023-08-13_11h17.22.148,vbt_B2_day3,2022.2.4,Win32,61.06124443,,,,,,down,0,32.0686,,0.369444444,-0.055555556,1,0,0,0,42,42,115,1,kleren,images/br_kleren.png,images/cb_kleren.png,0,,,,,,,,,,,,,,,,,,,,,,
,,,,,00018,2023-08-13_11h17.22.148,vbt_B2_day3,2022.2.4,Win32,61.06124443,,,,,,down,0,2.9161,,0.369444444,-0.055555556,1,0,0,0,43,43,144,1,eetlust,images/br_eetlust.png,images/cb_eetlust.png,0,,,,,,,,,,,,,,,,,,,,,,
,,,,,00018,2023-08-13_11h17.22.148,vbt_B2_day3,2022.2.4,Win32,61.06124443,,,,,,down,0,2.3707,,0.369444444,-0.055555556,1,0,0,0,44,44,124,1,bloeien,images/br_bloeien.png,images/cb_bloeien.png,0,,,,,,,,,,,,,,,,,,,,,,
,,,,,00018,2023-08-13_11h17.22.148,vbt_B2_day3,2022.2.4,Win32,61.06124443,,,,,,down,0,6.6207,,0.369444444,-0.055555556,1,0,0,0,45,45,192,1,schaamte,images/br_schaamte.png,images/cb_schaamte.png,0,,,,,,,,,,,,,,,,,,,,,,
,,,,,00018,2023-08-13_11h17.22.148,vbt_B2_day3,2022.2.4,Win32,61.06124443,,,,,,down,0,9.6282,,0.369444444,-0.055555556,1,0,0,0,46,46,32,1,palm,images/br_palm.png,images/cb_palm.png,0,,,,,,,,,,,,,,,,,,,,,,
,,,,,00018,2023-08-13_11h17.22.148,vbt_B2_day3,2022.2.4,Win32,61.06124443,,,,,,down,0,4.7664,,0.369444444,-0.055555556,1,0,0,0,47,47,78,1,leren,images/br_leren.png,images/cb_leren.png,0,,,,,,,,,,,,,,,,,,,,,,
,,,,,00018,2023-08-13_11h17.22.148,vbt_B2_day3,2022.2.4,Win32,61.06124443,,,,,,down,0,6.9508,,0.369444444,-0.055555556,1,0,0,0,48,48,105,1,wijlen,images/br_wijlen.png,images/cb_wijlen.png,0,,,,,,,,,,,,,,,,,,,,,,
,,,,,00018,2023-08-13_11h17.22.148,vbt_B2_day3,2022.2.4,Win32,61.06124443,,,,,,down,0,8.4526,,0.369444444,-0.055555556,1,0,0,0,49,49,64,1,wegen,images/br_wegen.png,images/cb_wegen.png,0,,,,,,,,,,,,,,,,,,,,,,
,,,,,00018,2023-08-13_11h17.22.148,vbt_B2_day3,2022.2.4,Win32,61.06124443,,,,,,down,0,5.881,,0.369444444,-0.055555556,1,0,0,0,50,50,50,1,stoom,images/br_stoom.png,images/cb_stoom.png,0,,,,,,,,,,,,,,,,,,,,,,
,,,,,00018,2023-08-13_11h17.22.148,vbt_B2_day3,2022.2.4,Win32,61.06124443,,,,,,down,0,6.2715,,0.369444444,-0.055555556,1,0,0,0,51,51,4,1,moes,images/br_moes.png,images/cb_moes.png,0,,,,,,,,,,,,,,,,,,,,,,
,,,,,00018,2023-08-13_11h17.22.148,vbt_B2_day3,2022.2.4,Win32,61.06124443,,,,,,down,0,7.4156,,0.369444444,-0.055555556,1,0,0,0,52,52,162,1,uitdelen,images/br_uitdelen.png,images/cb_uitdelen.png,0,,,,,,,,,,,,,,,,,,,,,,
,,,,,00018,2023-08-13_11h17.22.148,vbt_B2_day3,2022.2.4,Win32,61.06124443,,,,,,down,0,9.7335,,0.369444444,-0.055555556,1,0,0,0,53,53,193,1,weeshuis,images/br_weeshuis.png,images/cb_weeshuis.png,0,,,,,,,,,,,,,,,,,,,,,,
,,,,,00018,2023-08-13_11h17.22.148,vbt_B2_day3,2022.2.4,Win32,61.06124443,,,,,,down,0,8.4191,,0.369444444,-0.055555556,1,0,0,0,54,54,141,1,knielen,images/br_knielen.png,images/cb_knielen.png,1,knielen,,,,,,,,,,,,,,,,,,,,,
,,,,,00018,2023-08-13_11h17.22.148,vbt_B2_day3,2022.2.4,Win32,61.06124443,,,,,,down,0,2.9832,,0.369444444,-0.055555556,1,0,0,0,55,55,59,1,kring,images/br_kring.png,images/cb_kring.png,0,,,,,,,,,,,,,,,,,,,,,,
,,,,,00018,2023-08-13_11h17.22.148,vbt_B2_day3,2022.2.4,Win32,61.06124443,,,,,,down,0,2.4826,,0.362963019,-0.08148151,1,0,0,0,56,56,166,1,strikken,images/br_strikken.png,images/cb_strikken.png,0,,,,,,,,,,,,,,,,,,,,,,
,,,,,00018,2023-08-13_11h17.22.148,vbt_B2_day3,2022.2.4,Win32,61.06124443,,,,,,down,0,7.8615,,0.392592621,-0.080555556,1,0,0,0,57,57,135,1,gedicht,images/br_gedicht.png,images/cb_gedicht.png,0,,,,,,,,,,,,,,,,,,,,,,
,,,,,00018,2023-08-13_11h17.22.148,vbt_B2_day3,2022.2.4,Win32,61.06124443,,,,,,down,0,41.2252,,0.392592621,-0.080555556,1,0,0,0,58,58,169,1,oprotten,images/br_oprotten.png,images/cb_oprotten.png,0,,,,,,,,,,,,,,,,,,,,,,
,,,,,00018,2023-08-13_11h17.22.148,vbt_B2_day3,2022.2.4,Win32,61.06124443,,,,,,down,0,1.4057,,0.392592621,-0.080555556,1,0,0,0,59,59,2,1,jaar,images/br_jaar.png,images/cb_jaar.png,0,,,,,,,,,,,,,,,,,,,,,,
,,,,,00018,2023-08-13_11h17.22.148,vbt_B2_day3,2022.2.4,Win32,61.06124443,,,,,,down,0,3.7646,,0.392592621,-0.080555556,1,0,0,0,60,60,72,1,strak,images/br_strak.png,images/cb_strak.png,0,,,,,,,,,,,,,,,,,,,,,,
,,,,,00018,2023-08-13_11h17.22.148,vbt_B2_day3,2022.2.4,Win32,61.06124443,,,,,,down,0,8.9537,,0.392592621,-0.080555556,1,0,0,0,61,61,76,1,afval,images/br_afval.png,images/cb_afval.png,0,,,,,,,,,,,,,,,,,,,,,,
,,,,,00018,2023-08-13_11h17.22.148,vbt_B2_day3,2022.2.4,Win32,61.06124443,,,,,,down,0,6.3054,,0.392592621,-0.080555556,1,0,0,0,62,62,69,1,waken,images/br_waken.png,images/cb_waken.png,0,,,,,,,,,,,,,,,,,,,,,,
,,,,,00018,2023-08-13_11h17.22.148,vbt_B2_day3,2022.2.4,Win32,61.06124443,,,,,,down,0,2.0656,,0.395370399,-0.068518533,1,0,0,0,63,63,101,1,staren,images/br_staren.png,images/cb_staren.png,1,staren,,,,,,,,,,,,,,,,,,,,,
,,,,,00018,2023-08-13_11h17.22.148,vbt_B2_day3,2022.2.4,Win32,61.06124443,,,,,,down,0,6.7696,,0.395370399,-0.068518533,1,0,0,0,64,64,19,1,geit,images/br_geit.png,images/cb_geit.png,0,,,,,,,,,,,,,,,,,,,,,,
,,,,,00018,2023-08-13_11h17.22.148,vbt_B2_day3,2022.2.4,Win32,61.06124443,,,,,,down,0,4.1552,,0.395370399,-0.068518533,1,0,0,0,65,65,30,1,uien,images/br_uien.png,images/cb_uien.png,0,,,,,,,,,,,,,,,,,,,,,,
,,,,,00018,2023-08-13_11h17.22.148,vbt_B2_day3,2022.2.4,Win32,61.06124443,,,,,,down,0,0.2542,,0.395370399,-0.068518533,1,0,0,0,66,66,42,1,bleek,images/br_bleek.png,images/cb_bleek.png,0,,,,,,,,,,,,,,,,,,,,,,
,,,,,00018,2023-08-13_11h17.22.148,vbt_B2_day3,2022.2.4,Win32,61.06124443,,,,,,down,0,7.064,,0.395370399,-0.068518533,1,0,0,0,67,67,82,1,muziek,images/br_muziek.png,images/cb_muziek.png,0,,,,,,,,,,,,,,,,,,,,,,
,,,,,00018,2023-08-13_11h17.22.148,vbt_B2_day3,2022.2.4,Win32,61.06124443,,,,,,down,0,5.0515,,0.437037065,-0.064814843,1,0,0,0,68,68,57,1,steek,images/br_steek.png,images/cb_steek.png,0,,,,,,,,,,,,,,,,,,,,,,
,,,,,00018,2023-08-13_11h17.22.148,vbt_B2_day3,2022.2.4,Win32,61.06124443,,,,,,down,0,3.5977,,0.437037065,-0.064814843,1,0,0,0,69,69,34,1,vorm,images/br_vorm.png,images/cb_vorm.png,0,,,,,,,,,,,,,,,,,,,,,,
,,,,,00018,2023-08-13_11h17.22.148,vbt_B2_day3,2022.2.4,Win32,61.06124443,,,,,,down,0,24.3528,,0.457407464,-0.225,1,0,0,0,70,70,77,1,woede,images/br_woede.png,images/cb_woede.png,0,,,,,,,,,,,,,,,,,,,,,,
,,,,,00018,2023-08-13_11h17.22.148,vbt_B2_day3,2022.2.4,Win32,61.06124443,,,,,,down,0,1.5019,,0.457407464,-0.225,1,0,0,0,71,71,189,1,aanraden,images/br_aanraden.png,images/cb_aanraden.png,0,,,,,,,,,,,,,,,,,,,,,,
,,,,,00018,2023-08-13_11h17.22.148,vbt_B2_day3,2022.2.4,Win32,61.06124443,,,,,,down,0,4.6079,,0.457407464,-0.225,1,0,0,0,72,72,126,1,kasteel,images/br_kasteel.png,images/cb_kasteel.png,0,,,,,,,,,,,,,,,,,,,,,,
,,,,,00018,2023-08-13_11h17.22.148,vbt_B2_day3,2022.2.4,Win32,61.06124443,,,,,,down,0,20.9124,,0.458333333,-0.224074131,1,0,0,0,73,73,67,1,zwart,images/br_zwart.png,images/cb_zwart.png,0,,,,,,,,,,,,,,,,,,,,,,
,,,,,00018,2023-08-13_11h17.22.148,vbt_B2_day3,2022.2.4,Win32,61.06124443,,,,,,down,0,1.1329,,0.458333333,-0.224074131,1,0,0,0,74,74,134,1,geliefd,images/br_geliefd.png,images/cb_geliefd.png,0,,,,,,,,,,,,,,,,,,,,,,
,,,,,00018,2023-08-13_11h17.22.148,vbt_B2_day3,2022.2.4,Win32,61.06124443,,,,,,down,0,3.581,,0.458333333,-0.224074131,1,0,0,0,75,75,70,1,ijdel,images/br_ijdel.png,images/cb_ijdel.png,0,,,,,,,,,,,,,,,,,,,,,,
,,,,,00018,2023-08-13_11h17.22.148,vbt_B2_day3,2022.2.4,Win32,61.06124443,,,,,,down,0,2.6007,,0.458333333,-0.224074131,1,0,0,0,76,76,46,1,jagen,images/br_jagen.png,images/cb_jagen.png,0,,,,,,,,,,,,,,,,,,,,,,
,,,,,00018,2023-08-13_11h17.22.148,vbt_B2_day3,2022.2.4,Win32,61.06124443,,,,,,down,0,10.4116,,0.458333333,-0.224074131,1,0,0,0,77,77,136,1,waarbij,images/br_waarbij.png,images/cb_waarbij.png,0,,,,,,,,,,,,,,,,,,,,,,
,,,,,00018,2023-08-13_11h17.22.148,vbt_B2_day3,2022.2.4,Win32,61.06124443,,,,,,down,0,1.7923,,0.458333333,-0.224074131,1,0,0,0,78,78,74,1,graaf,images/br_graaf.png,images/cb_graaf.png,0,,,,,,,,,,,,,,,,,,,,,,
,,,,,00018,2023-08-13_11h17.22.148,vbt_B2_day3,2022.2.4,Win32,61.06124443,,,,,,down,0,14.7416,,0.458333333,-0.224074131,1,0,0,0,79,79,198,1,bedoelen,images/br_bedoelen.png,images/cb_bedoelen.png,0,,,,,,,,,,,,,,,,,,,,,,
,,,,,00018,2023-08-13_11h17.22.148,vbt_B2_day3,2022.2.4,Win32,61.06124443,,,,,,down,0,2.8495,,0.458333333,-0.224074131,1,0,0,0,80,80,99,1,koffie,images/br_koffie.png,images/cb_koffie.png,0,,,,,,,,,,,,,,,,,,,,,,
,,,,,00018,2023-08-13_11h17.22.148,vbt_B2_day3,2022.2.4,Win32,61.06124443,,,,,,down,0,2.8158,,0.458333333,-0.224074131,1,0,0,0,81,81,68,1,schat,images/br_schat.png,images/cb_schat.png,0,,,,,,,,,,,,,,,,,,,,,,
,,,,,00018,2023-08-13_11h17.22.148,vbt_B2_day3,2022.2.4,Win32,61.06124443,,,,,,down,0,5.9487,,0.458333333,-0.224074131,1,0,0,0,82,82,123,1,hiervan,images/br_hiervan.png,images/cb_hiervan.png,0,,,,,,,,,,,,,,,,,,,,,,
,,,,,00018,2023-08-13_11h17.22.148,vbt_B2_day3,2022.2.4,Win32,61.06124443,,,,,,down,0,2.8336,,0.458333333,-0.224074131,1,0,0,0,83,83,3,1,mand,images/br_mand.png,images/cb_mand.png,0,,,,,,,,,,,,,,,,,,,,,,
,,,,,00018,2023-08-13_11h17.22.148,vbt_B2_day3,2022.2.4,Win32,61.06124443,,,,,,down,0,2.7184,,0.458333333,-0.224074131,1,0,0,0,84,84,184,1,aandelen,images/br_aandelen.png,images/cb_aandelen.png,0,,,,,,,,,,,,,,,,,,,,,,
,,,,,00018,2023-08-13_11h17.22.148,vbt_B2_day3,2022.2.4,Win32,61.06124443,,,,,,down,0,9.2001,,0.458333333,-0.224074131,1,0,0,0,85,85,11,1,mode,images/br_mode.png,images/cb_mode.png,0,,,,,,,,,,,,,,,,,,,,,,
,,,,,00018,2023-08-13_11h17.22.148,vbt_B2_day3,2022.2.4,Win32,61.06124443,,,,,,down,0,1.939,,0.458333333,-0.224074131,1,0,0,0,86,86,66,1,lever,images/br_lever.png,images/cb_lever.png,0,,,,,,,,,,,,,,,,,,,,,,
,,,,,00018,2023-08-13_11h17.22.148,vbt_B2_day3,2022.2.4,Win32,61.06124443,,,,,,down,0,3.9349,,0.458333333,-0.224074131,1,0,0,0,87,87,65,1,parel,images/br_parel.png,images/cb_parel.png,0,,,,,,,,,,,,,,,,,,,,,,
,,,,,00018,2023-08-13_11h17.22.148,vbt_B2_day3,2022.2.4,Win32,61.06124443,,,,,,down,0,9.4008,,0.458333333,-0.224074131,1,0,0,0,88,88,80,1,kanjer,images/br_kanjer.png,images/cb_kanjer.png,0,,,,,,,,,,,,,,,,,,,,,,
,,,,,00018,2023-08-13_11h17.22.148,vbt_B2_day3,2022.2.4,Win32,61.06124443,,,,,,down,0,39.7593,,0.33148151,-0.465740797,1,0,0,0,89,89,85,1,heilig,images/br_heilig.png,images/cb_heilig.png,0,,,,,,,,,,,,,,,,,,,,,,
,,,,,00018,2023-08-13_11h17.22.148,vbt_B2_day3,2022.2.4,Win32,61.06124443,,,,,,down,0,5.2568,,0.33148151,-0.465740797,1,0,0,0,90,90,140,1,blijven,images/br_blijven.png,images/cb_blijven.png,1,blijven,,,,,,,,,,,,,,,,,,,,,
,,,,,00018,2023-08-13_11h17.22.148,vbt_B2_day3,2022.2.4,Win32,61.06124443,,,,,,down,0,3.0664,,0.33148151,-0.465740797,1,0,0,0,91,91,87,1,toeval,images/br_toeval.png,images/cb_toeval.png,0,,,,,,,,,,,,,,,,,,,,,,
,,,,,00018,2023-08-13_11h17.22.148,vbt_B2_day3,2022.2.4,Win32,61.06124443,,,,,,down,0,10.9007,,0.33148151,-0.465740797,1,0,0,0,92,92,163,1,schuilen,images/br_schuilen.png,images/cb_schuilen.png,0,,,,,,,,,,,,,,,,,,,,,,
,,,,,00018,2023-08-13_11h17.22.148,vbt_B2_day3,2022.2.4,Win32,61.06124443,,,,,,down,0,68.6974,,0.397222222,-0.499074131,1,0,0,0,93,93,121,1,twijfel,images/br_twijfel.png,images/cb_twijfel.png,0,,,,,,,,,,,,,,,,,,,,,,
,,,,,00018,2023-08-13_11h17.22.148,vbt_B2_day3,2022.2.4,Win32,61.06124443,,,,,,down,0,0.9179,,0.397222222,-0.499074131,1,0,0,0,94,94,25,1,plek,images/br_plek.png,images/cb_plek.png,0,,,,,,,,,,,,,,,,,,,,,,
,,,,,00018,2023-08-13_11h17.22.148,vbt_B2_day3,2022.2.4,Win32,61.06124443,,,,,,down,0,7.9114,,0.397222222,-0.499074131,1,0,0,0,95,95,143,1,hechten,images/br_hechten.png,images/cb_hechten.png,1,hechten,,,,,,,,,,,,,,,,,,,,,
,,,,,00018,2023-08-13_11h17.22.148,vbt_B2_day3,2022.2.4,Win32,61.06124443,,,,,,down,0,1.1193,,0.396296353,-0.495370399,1,0,0,0,96,96,9,1,hier,images/br_hier.png,images/cb_hier.png,0,,,,,,,,,,,,,,,,,,,,,,
,,,,,00018,2023-08-13_11h17.22.148,vbt_B2_day3,2022.2.4,Win32,61.06124443,,,,,,down,0,31.5153,,0.425925954,-0.478703732,1,0,0,0,97,97,108,1,excuus,images/br_excuus.png,images/cb_excuus.png,0,,,,,,,,,,,,,,,,,,,,,,
,,,,,00018,2023-08-13_11h17.22.148,vbt_B2_day3,2022.2.4,Win32,61.06124443,,,,,,down,0,11.7509,,0.425925954,-0.478703732,1,0,0,0,98,98,142,1,snuiven,images/br_snuiven.png,images/cb_snuiven.png,1,snuiven,,,,,,,,,,,,,,,,,,,,,
,,,,,00018,2023-08-13_11h17.22.148,vbt_B2_day3,2022.2.4,Win32,61.06124443,,,,,,down,0,7.4701,,0.425925954,-0.478703732,1,0,0,0,99,99,18,1,blik,images/br_blik.png,images/cb_blik.png,0,,,,,,,,,,,,,,,,,,,,,,
,,,,,00018,2023-08-13_11h17.22.148,vbt_B2_day3,2022.2.4,Win32,61.06124443,,,,,,down,0,6.5499,,0.425925954,-0.478703732,1,0,0,0,100,100,156,1,rechten,images/br_rechten.png,images/cb_rechten.png,0,,,,,,,,,,,,,,,,,,,,,,
,,,,,00018,2023-08-13_11h17.22.148,vbt_B2_day3,2022.2.4,Win32,61.06124443,,,,,,down,0,3.99,,0.43148151,-0.460185242,1,0,0,0,101,101,0,1,slak,images/br_slak.png,images/cb_slak.png,0,,,,,,,,,,,,,,,,,,,,,,
,,,,,00018,2023-08-13_11h17.22.148,vbt_B2_day3,2022.2.4,Win32,61.06124443,,,,,,down,0,12.6426,,0.43148151,-0.460185242,1,0,0,0,102,102,5,1,blad,images/br_blad.png,images/cb_blad.png,0,,,,,,,,,,,,,,,,,,,,,,
,,,,,00018,2023-08-13_11h17.22.148,vbt_B2_day3,2022.2.4,Win32,61.06124443,,,,,,down,0,7.9225,,0.428703732,-0.457407464,1,0,0,0,103,103,63,1,flirt,images/br_flirt.png,images/cb_flirt.png,1,flits,,,,,,,,,,,,,,,,,,,,,
,,,,,00018,2023-08-13_11h17.22.148,vbt_B2_day3,2022.2.4,Win32,61.06124443,,,,,,down,0,15.4736,,0.379629686,-0.4,1,0,0,0,104,104,60,1,jasje,images/br_jasje.png,images/cb_jasje.png,1,jasje,,,,,,,,,,,,,,,,,,,,,
,,,,,00018,2023-08-13_11h17.22.148,vbt_B2_day3,2022.2.4,Win32,61.06124443,,,,,,down,0,3.2611,,0.379629686,-0.4,1,0,0,0,105,105,26,1,leuk,images/br_leuk.png,images/cb_leuk.png,0,,,,,,,,,,,,,,,,,,,,,,
,,,,,00018,2023-08-13_11h17.22.148,vbt_B2_day3,2022.2.4,Win32,61.06124443,,,,,,down,0,4.214,,0.379629686,-0.4,1,0,0,0,106,106,54,1,gebit,images/br_gebit.png,images/cb_gebit.png,0,,,,,,,,,,,,,,,,,,,,,,
,,,,,00018,2023-08-13_11h17.22.148,vbt_B2_day3,2022.2.4,Win32,61.06124443,,,,,,down,0,9.9276,,0.379629686,-0.4,1,0,0,0,107,107,129,1,verhaal,images/br_verhaal.png,images/cb_verhaal.png,0,,,,,,,,,,,,,,,,,,,,,,
,,,,,00018,2023-08-13_11h17.22.148,vbt_B2_day3,2022.2.4,Win32,61.06124443,,,,,,down,0,22.8002,,0.379629686,-0.4,1,0,0,0,108,108,104,1,zweven,images/br_zweven.png,images/cb_zweven.png,0,,,,,,,,,,,,,,,,,,,,,,
,,,,,00018,2023-08-13_11h17.22.148,vbt_B2_day3,2022.2.4,Win32,61.06124443,,,,,,down,0,7.2119,,0.4,-0.390740797,1,0,0,0,109,109,114,1,vullen,images/br_vullen.png,images/cb_vullen.png,0,,,,,,,,,,,,,,,,,,,,,,
,,,,,00018,2023-08-13_11h17.22.148,vbt_B2_day3,2022.2.4,Win32,61.06124443,,,,,,down,0,0.8341,,0.4,-0.390740797,1,0,0,0,110,110,150,1,gegeven,images/br_gegeven.png,images/cb_gegeven.png,0,,,,,,,,,,,,,,,,,,,,,,
,,,,,00018,2023-08-13_11h17.22.148,vbt_B2_day3,2022.2.4,Win32,61.06124443,,,,,,down,0,1.9687,,0.4,-0.390740797,1,0,0,0,111,111,148,1,smullen,images/br_smullen.png,images/cb_smullen.png,0,,,,,,,,,,,,,,,,,,,,,,
,,,,,00018,2023-08-13_11h17.22.148,vbt_B2_day3,2022.2.4,Win32,61.06124443,,,,,,down,0,0.6664,,0.4,-0.390740797,1,0,0,0,112,112,29,1,baas,images/br_baas.png,images/cb_baas.png,0,,,,,,,,,,,,,,,,,,,,,,
,,,,,00018,2023-08-13_11h17.22.148,vbt_B2_day3,2022.2.4,Win32,61.06124443,,,,,,down,0,1.1273,,0.4,-0.390740797,1,0,0,0,113,113,8,1,knie,images/br_knie.png,images/cb_knie.png,0,,,,,,,,,,,,,,,,,,,,,,
,,,,,00018,2023-08-13_11h17.22.148,vbt_B2_day3,2022.2.4,Win32,61.06124443,,,,,,down,0,2.1997,,0.4,-0.390740797,1,0,0,0,114,114,132,1,grappen,images/br_grappen.png,images/cb_grappen.png,0,,,,,,,,,,,,,,,,,,,,,,
,,,,,00018,2023-08-13_11h17.22.148,vbt_B2_day3,2022.2.4,Win32,61.06124443,,,,,,down,0,5.2592,,0.4,-0.390740797,1,0,0,0,115,115,56,1,traag,images/br_traag.png,images/cb_traag.png,0,,,,,,,,,,,,,,,,,,,,,,
,,,,,00018,2023-08-13_11h17.22.148,vbt_B2_day3,2022.2.4,Win32,61.06124443,,,,,,down,0,25.8341,,0.404629686,-0.380555556,1,0,0,0,116,116,73,1,volop,images/br_volop.png,images/cb_volop.png,0,,,,,,,,,,,,,,,,,,,,,,
,,,,,00018,2023-08-13_11h17.22.148,vbt_B2_day3,2022.2.4,Win32,61.06124443,,,,,,down,0,20.1881,,0.401851908,-0.385185242,1,0,0,0,117,117,96,1,slagen,images/br_slagen.png,images/cb_slagen.png,0,,,,,,,,,,,,,,,,,,,,,,
,,,,,00018,2023-08-13_11h17.22.148,vbt_B2_day3,2022.2.4,Win32,61.06124443,,,,,,down,0,2.4731,,0.396296353,-0.308333333,1,0,0,0,118,118,91,1,gezond,images/br_gezond.png,images/cb_gezond.png,0,,,,,,,,,,,,,,,,,,,,,,
,,,,,00018,2023-08-13_11h17.22.148,vbt_B2_day3,2022.2.4,Win32,61.06124443,,,,,,down,0,3.8477,,0.396296353,-0.308333333,1,0,0,0,119,119,154,1,aflopen,images/br_aflopen.png,images/cb_aflopen.png,0,,,,,,,,,,,,,,,,,,,,,,
,,,,,00018,2023-08-13_11h17.22.148,vbt_B2_day3,2022.2.4,Win32,61.06124443,,,,,,down,0,2.3741,,0.396296353,-0.308333333,1,0,0,0,120,120,171,1,aarzelen,images/br_aarzelen.png,images/cb_aarzelen.png,0,,,,,,,,,,,,,,,,,,,,,,
,,,,,00018,2023-08-13_11h17.22.148,vbt_B2_day3,2022.2.4,Win32,61.06124443,,,,,,down,0,3.881,,0.396296353,-0.308333333,1,0,0,0,121,121,195,1,middelen,images/br_middelen.png,images/cb_middelen.png,0,,,,,,,,,,,,,,,,,,,,,,
,,,,,00018,2023-08-13_11h17.22.148,vbt_B2_day3,2022.2.4,Win32,61.06124443,,,,,,down,0,17.889,,0.396296353,-0.308333333,1,0,0,0,122,122,161,1,attentie,images/br_attentie.png,images/cb_attentie.png,0,,,,,,,,,,,,,,,,,,,,,,
,,,,,00018,2023-08-13_11h17.22.148,vbt_B2_day3,2022.2.4,Win32,61.06124443,,,,,,down,0,9.6661,,0.396296353,-0.308333333,1,0,0,0,123,123,111,1,ticket,images/br_ticket.png,images/cb_ticket.png,0,,,,,,,,,,,,,,,,,,,,,,
,,,,,00018,2023-08-13_11h17.22.148,vbt_B2_day3,2022.2.4,Win32,61.06124443,,,,,,down,0,4.4055,,0.401851908,-0.337963019,1,0,0,0,124,124,21,1,mist,images/br_mist.png,images/cb_mist.png,1,mest,,,,,,,,,,,,,,,,,,,,,
,,,,,00018,2023-08-13_11h17.22.148,vbt_B2_day3,2022.2.4,Win32,61.06124443,,,,,,down,0,3.8027,,0.401851908,-0.337963019,1,0,0,0,125,125,113,1,koppen,images/br_koppen.png,images/cb_koppen.png,0,,,,,,,,,,,,,,,,,,,,,,
,,,,,00018,2023-08-13_11h17.22.148,vbt_B2_day3,2022.2.4,Win32,61.06124443,,,,,,down,0,12.0812,,0.401851908,-0.337963019,1,0,0,0,126,126,51,1,samen,images/br_samen.png,images/cb_samen.png,0,,,,,,,,,,,,,,,,,,,,,,
,,,,,00018,2023-08-13_11h17.22.148,vbt_B2_day3,2022.2.4,Win32,61.06124443,,,,,,down,0,0.69,,0.401851908,-0.337963019,1,0,0,0,127,127,55,1,praat,images/br_praat.png,images/cb_praat.png,0,,,,,,,,,,,,,,,,,,,,,,
,,,,,00018,2023-08-13_11h17.22.148,vbt_B2_day3,2022.2.4,Win32,61.06124443,,,,,,down,0,12.8802,,0.401851908,-0.337963019,1,0,0,0,128,128,147,1,komisch,images/br_komisch.png,images/cb_komisch.png,0,,,,,,,,,,,,,,,,,,,,,,
,,,,,00018,2023-08-13_11h17.22.148,vbt_B2_day3,2022.2.4,Win32,61.06124443,,,,,,down,0,3.4931,,0.401851908,-0.337963019,1,0,0,0,129,129,170,1,schatten,images/br_schatten.png,images/cb_schatten.png,0,,,,,,,,,,,,,,,,,,,,,,
,,,,,00018,2023-08-13_11h17.22.148,vbt_B2_day3,2022.2.4,Win32,61.06124443,,,,,,down,0,3.389,,0.401851908,-0.337963019,1,0,0,0,130,130,128,1,prikken,images/br_prikken.png,images/cb_prikken.png,0,,,,,,,,,,,,,,,,,,,,,,
,,,,,00018,2023-08-13_11h17.22.148,vbt_B2_day3,2022.2.4,Win32,61.06124443,,,,,,down,0,7.6719,,0.401851908,-0.337963019,1,0,0,0,131,131,83,1,mening,images/br_mening.png,images/cb_mening.png,0,,,,,,,,,,,,,,,,,,,,,,
,,,,,00018,2023-08-13_11h17.22.148,vbt_B2_day3,2022.2.4,Win32,61.06124443,,,,,,down,0,16.247,,0.401851908,-0.337963019,1,0,0,0,132,132,53,1,baron,images/br_baron.png,images/cb_baron.png,0,,,,,,,,,,,,,,,,,,,,,,
,,,,,00018,2023-08-13_11h17.22.148,vbt_B2_day3,2022.2.4,Win32,61.06124443,,,,,,down,0,18.9785,,0.401851908,-0.337963019,1,0,0,0,133,133,191,1,opheffen,images/br_opheffen.png,images/cb_opheffen.png,0,,,,,,,,,,,,,,,,,,,,,,
,,,,,00018,2023-08-13_11h17.22.148,vbt_B2_day3,2022.2.4,Win32,61.06124443,,,,,,down,0,2.6062,,0.415740797,-0.326851908,1,0,0,0,134,134,31,1,poes,images/br_poes.png,images/cb_poes.png,0,,,,,,,,,,,,,,,,,,,,,,
,,,,,00018,2023-08-13_11h17.22.148,vbt_B2_day3,2022.2.4,Win32,61.06124443,,,,,,down,0,1.7856,,0.415740797,-0.326851908,1,0,0,0,135,135,190,1,goedkoop,images/br_goedkoop.png,images/cb_goedkoop.png,0,,,,,,,,,,,,,,,,,,,,,,
,,,,,00018,2023-08-13_11h17.22.148,vbt_B2_day3,2022.2.4,Win32,61.06124443,,,,,,down,0,11.4018,,0.420370399,-0.327777778,1,0,0,0,136,136,183,1,getuigen,images/br_getuigen.png,images/cb_getuigen.png,1,getuigen,,,,,,,,,,,,,,,,,,,,,
,,,,,00018,2023-08-13_11h17.22.148,vbt_B2_day3,2022.2.4,Win32,61.06124443,,,,,,down,0,4.867,,0.437963019,-0.301851908,1,0,0,0,137,137,43,1,klauw,images/br_klauw.png,images/cb_klauw.png,0,,,,,,,,,,,,,,,,,,,,,,
,,,,,00018,2023-08-13_11h17.22.148,vbt_B2_day3,2022.2.4,Win32,61.06124443,,,,,,down,0,3.9691,,0.437963019,-0.301851908,1,0,0,0,138,138,116,1,besmet,images/br_besmet.png,images/cb_besmet.png,0,,,,,,,,,,,,,,,,,,,,,,
,,,,,00018,2023-08-13_11h17.22.148,vbt_B2_day3,2022.2.4,Win32,61.06124443,,,,,,down,0,1.8276,,0.437963019,-0.301851908,1,0,0,0,139,139,155,1,gerucht,images/br_gerucht.png,images/cb_gerucht.png,0,,,,,,,,,,,,,,,,,,,,,,
,,,,,00018,2023-08-13_11h17.22.148,vbt_B2_day3,2022.2.4,Win32,61.06124443,,,,,,down,0,23.87,,0.437963019,-0.301851908,1,0,0,0,140,140,146,1,opkomen,images/br_opkomen.png,images/cb_opkomen.png,0,,,,,,,,,,,,,,,,,,,,,,
,,,,,00018,2023-08-13_11h17.22.148,vbt_B2_day3,2022.2.4,Win32,61.06124443,,,,,,down,0,0.1504,,0.437963019,-0.301851908,1,0,0,0,141,141,17,1,taal,images/br_taal.png,images/cb_taal.png,0,,,,,,,,,,,,,,,,,,,,,,
,,,,,00018,2023-08-13_11h17.22.148,vbt_B2_day3,2022.2.4,Win32,61.06124443,,,,,,down,0,5.4172,,0.437963019,-0.301851908,1,0,0,0,142,142,62,1,knaap,images/br_knaap.png,images/cb_knaap.png,1,knaap,,,,,,,,,,,,,,,,,,,,,
,,,,,00018,2023-08-13_11h17.22.148,vbt_B2_day3,2022.2.4,Win32,61.06124443,,,,,,down,0,17.8093,,0.430555556,-0.28148151,1,0,0,0,143,143,160,1,daarheen,images/br_daarheen.png,images/cb_daarheen.png,0,,,,,,,,,,,,,,,,,,,,,,
,,,,,00018,2023-08-13_11h17.22.148,vbt_B2_day3,2022.2.4,Win32,61.06124443,,,,,,down,0,4.5195,,0.430555556,-0.28148151,1,0,0,0,144,144,27,1,dans,images/br_dans.png,images/cb_dans.png,0,,,,,,,,,,,,,,,,,,,,,,
,,,,,00018,2023-08-13_11h17.22.148,vbt_B2_day3,2022.2.4,Win32,61.06124443,,,,,,down,0,0.4336,,0.430555556,-0.28148151,1,0,0,0,145,145,84,1,lokken,images/br_lokken.png,images/cb_lokken.png,0,,,,,,,,,,,,,,,,,,,,,,
,,,,,00018,2023-08-13_11h17.22.148,vbt_B2_day3,2022.2.4,Win32,61.06124443,,,,,,down,0,7.5318,,0.430555556,-0.28148151,1,0,0,0,146,146,194,1,driemaal,images/br_driemaal.png,images/cb_driemaal.png,0,,,,,,,,,,,,,,,,,,,,,,
,,,,,00018,2023-08-13_11h17.22.148,vbt_B2_day3,2022.2.4,Win32,61.06124443,,,,,,down,0,18.9171,,0.430555556,-0.28148151,1,0,0,0,147,147,106,1,zingen,images/br_zingen.png,images/cb_zingen.png,0,,,,,,,,,,,,,,,,,,,,,,
,,,,,00018,2023-08-13_11h17.22.148,vbt_B2_day3,2022.2.4,Win32,61.06124443,,,,,,down,0,3.2857,,0.430555556,-0.28148151,1,0,0,0,148,148,22,1,stof,images/br_stof.png,images/cb_stof.png,1,stof,,,,,,,,,,,,,,,,,,,,,
,,,,,00018,2023-08-13_11h17.22.148,vbt_B2_day3,2022.2.4,Win32,61.06124443,,,,,,down,0,5.8011,,0.430555556,-0.28148151,1,0,0,0,149,149,167,1,eenhoorn,images/br_eenhoorn.png,images/cb_eenhoorn.png,0,,,,,,,,,,,,,,,,,,,,,,
,,,,,00018,2023-08-13_11h17.22.148,vbt_B2_day3,2022.2.4,Win32,61.06124443,,,,,,down,0,13.6178,,0.430555556,-0.28148151,1,0,0,0,150,150,159,1,sufferd,images/br_sufferd.png,images/cb_sufferd.png,0,,,,,,,,,,,,,,,,,,,,,,
,,,,,00018,2023-08-13_11h17.22.148,vbt_B2_day3,2022.2.4,Win32,61.06124443,,,,,,down,0,1.8048,,0.430555556,-0.28148151,1,0,0,0,151,151,36,1,vuur,images/br_vuur.png,images/cb_vuur.png,0,,,,,,,,,,,,,,,,,,,,,,
,,,,,00018,2023-08-13_11h17.22.148,vbt_B2_day3,2022.2.4,Win32,61.06124443,,,,,,down,0,2.5729,,0.430555556,-0.28148151,1,0,0,0,152,152,13,1,kaal,images/br_kaal.png,images/cb_kaal.png,0,,,,,,,,,,,,,,,,,,,,,,
,,,,,00018,2023-08-13_11h17.22.148,vbt_B2_day3,2022.2.4,Win32,61.06124443,,,,,,down,0,11.9557,,0.430555556,-0.28148151,1,0,0,0,153,153,119,1,liefje,images/br_liefje.png,images/cb_liefje.png,0,,,,,,,,,,,,,,,,,,,,,,
,,,,,00018,2023-08-13_11h17.22.148,vbt_B2_day3,2022.2.4,Win32,61.06124443,,,,,,down,0,13.579,,0.434259288,-0.249074131,1,0,0,0,154,154,81,1,dubbel,images/br_dubbel.png,images/cb_dubbel.png,0,,,,,,,,,,,,,,,,,,,,,,
,,,,,00018,2023-08-13_11h17.22.148,vbt_B2_day3,2022.2.4,Win32,61.06124443,,,,,,down,0,5.4909,,0.434259288,-0.249074131,1,0,0,0,155,155,175,1,heengaan,images/br_heengaan.png,images/cb_heengaan.png,0,,,,,,,,,,,,,,,,,,,,,,
,,,,,00018,2023-08-13_11h17.22.148,vbt_B2_day3,2022.2.4,Win32,61.06124443,,,,,,down,0,0.441,,0.434259288,-0.249074131,1,0,0,0,156,156,109,1,totaal,images/br_totaal.png,images/cb_totaal.png,0,,,,,,,,,,,,,,,,,,,,,,
,,,,,00018,2023-08-13_11h17.22.148,vbt_B2_day3,2022.2.4,Win32,61.06124443,,,,,,down,0,13.0038,,0.434259288,-0.249074131,1,0,0,0,157,157,41,1,maken,images/br_maken.png,images/cb_maken.png,0,,,,,,,,,,,,,,,,,,,,,,
,,,,,00018,2023-08-13_11h17.22.148,vbt_B2_day3,2022.2.4,Win32,61.06124443,,,,,,down,0,3.8379,,0.432407464,-0.249074131,1,0,0,0,158,158,103,1,joggen,images/br_joggen.png,images/cb_joggen.png,1,joggen,,,,,,,,,,,,,,,,,,,,,
,,,,,00018,2023-08-13_11h17.22.148,vbt_B2_day3,2022.2.4,Win32,61.06124443,,,,,,down,0,7.6644,,0.43148151,-0.25,1,0,0,0,159,159,100,1,geduld,images/br_geduld.png,images/cb_geduld.png,1,geduld,,,,,,,,,,,,,,,,,,,,,
,,,,,00018,2023-08-13_11h17.22.148,vbt_B2_day3,2022.2.4,Win32,61.06124443,,,,,,down,0,17.4412,,0.425925954,-0.237037065,1,0,0,0,160,160,145,1,invloed,images/br_invloed.png,images/cb_invloed.png,0,,,,,,,,,,,,,,,,,,,,,,
,,,,,00018,2023-08-13_11h17.22.148,vbt_B2_day3,2022.2.4,Win32,61.06124443,,,,,,down,0,8.4619,,0.425925954,-0.237037065,1,0,0,0,161,161,187,1,opkijken,images/br_opkijken.png,images/cb_opkijken.png,0,,,,,,,,,,,,,,,,,,,,,,
,,,,,00018,2023-08-13_11h17.22.148,vbt_B2_day3,2022.2.4,Win32,61.06124443,,,,,,down,0,3.7509,,0.425925954,-0.237037065,1,0,0,0,162,162,186,1,voorraad,images/br_voorraad.png,images/cb_voorraad.png,0,,,,,,,,,,,,,,,,,,,,,,
,,,,,00018,2023-08-13_11h17.22.148,vbt_B2_day3,2022.2.4,Win32,61.06124443,,,,,,down,0,7.9645,,0.425925954,-0.237037065,1,0,0,0,163,163,12,1,kust,images/br_kust.png,images/cb_kust.png,0,,,,,,,,,,,,,,,,,,,,,,
,,,,,00018,2023-08-13_11h17.22.148,vbt_B2_day3,2022.2.4,Win32,61.06124443,,,,,,down,0,7.8143,,0.425925954,-0.237037065,1,0,0,0,164,164,102,1,legaal,images/br_legaal.png,images/cb_legaal.png,1,legaal,,,,,,,,,,,,,,,,,,,,,
,,,,,00018,2023-08-13_11h17.22.148,vbt_B2_day3,2022.2.4,Win32,61.06124443,,,,,,down,0,5.201,,0.434259288,-0.222222222,1,0,0,0,165,165,58,1,tekst,images/br_tekst.png,images/cb_tekst.png,0,,,,,,,,,,,,,,,,,,,,,,
,,,,,00018,2023-08-13_11h17.22.148,vbt_B2_day3,2022.2.4,Win32,61.06124443,,,,,,down,0,6.1511,,0.434259288,-0.222222222,1,0,0,0,166,166,133,1,seizoen,images/br_seizoen.png,images/cb_seizoen.png,0,,,,,,,,,,,,,,,,,,,,,,
,,,,,00018,2023-08-13_11h17.22.148,vbt_B2_day3,2022.2.4,Win32,61.06124443,,,,,,down,0,18.1572,,0.434259288,-0.222222222,1,0,0,0,167,167,182,1,bijkomen,images/br_bijkomen.png,images/cb_bijkomen.png,1,,,,,,,,,,,,,,,,,,,,,,
,,,,,00018,2023-08-13_11h17.22.148,vbt_B2_day3,2022.2.4,Win32,61.06124443,,,,,,down,0,6.8801,,0.434259288,-0.222222222,1,0,0,0,168,168,93,1,waarop,images/br_waarop.png,images/cb_waarop.png,0,,,,,,,,,,,,,,,,,,,,,,
,,,,,00018,2023-08-13_11h17.22.148,vbt_B2_day3,2022.2.4,Win32,61.06124443,,,,,,down,0,64.1178,,0.463888889,-0.142592621,1,0,0,0,169,169,110,1,zuster,images/br_zuster.png,images/cb_zuster.png,0,,,,,,,,,,,,,,,,,,,,,,
,,,,,00018,2023-08-13_11h17.22.148,vbt_B2_day3,2022.2.4,Win32,61.06124443,,,,,,down,0,1.3979,,0.463888889,-0.142592621,1,0,0,0,170,170,35,1,lust,images/br_lust.png,images/cb_lust.png,0,,,,,,,,,,,,,,,,,,,,,,
,,,,,00018,2023-08-13_11h17.22.148,vbt_B2_day3,2022.2.4,Win32,61.06124443,,,,,,down,0,3.3396,,0.463888889,-0.142592621,1,0,0,0,171,171,137,1,trekker,images/br_trekker.png,images/cb_trekker.png,0,,,,,,,,,,,,,,,,,,,,,,
,,,,,00018,2023-08-13_11h17.22.148,vbt_B2_day3,2022.2.4,Win32,61.06124443,,,,,,down,0,25.2502,,0.478703732,-0.2,1,0,0,0,172,172,118,1,vinger,images/br_vinger.png,images/cb_vinger.png,0,,,,,,,,,,,,,,,,,,,,,,
,,,,,00018,2023-08-13_11h17.22.148,vbt_B2_day3,2022.2.4,Win32,61.06124443,,,,,,down,0,0.2822,,0.478703732,-0.2,1,0,0,0,173,173,39,1,laag,images/br_laag.png,images/cb_laag.png,0,,,,,,,,,,,,,,,,,,,,,,
,,,,,00018,2023-08-13_11h17.22.148,vbt_B2_day3,2022.2.4,Win32,61.06124443,,,,,,down,0,2.0488,,0.478703732,-0.2,1,0,0,0,174,174,89,1,slapen,images/br_slapen.png,images/cb_slapen.png,0,,,,,,,,,,,,,,,,,,,,,,
,,,,,00018,2023-08-13_11h17.22.148,vbt_B2_day3,2022.2.4,Win32,61.06124443,,,,,,down,0,1.9228,,0.478703732,-0.2,1,0,0,0,175,175,199,1,beseffen,images/br_beseffen.png,images/cb_beseffen.png,0,,,,,,,,,,,,,,,,,,,,,,
,,,,,00018,2023-08-13_11h17.22.148,vbt_B2_day3,2022.2.4,Win32,61.06124443,,,,,,down,0,2.2868,,0.478703732,-0.2,1,0,0,0,176,176,61,1,groen,images/br_groen.png,images/cb_groen.png,1,groen,,,,,,,,,,,,,,,,,,,,,
,,,,,00018,2023-08-13_11h17.22.148,vbt_B2_day3,2022.2.4,Win32,61.06124443,,,,,,down,0,52.7023,,0.486111111,-0.205555556,1,0,0,0,177,177,177,1,maaltijd,images/br_maaltijd.png,images/cb_maaltijd.png,0,,,,,,,,,,,,,,,,,,,,,,
,,,,,00018,2023-08-13_11h17.22.148,vbt_B2_day3,2022.2.4,Win32,61.06124443,,,,,,down,0,0.1691,,0.538888889,-0.251851908,1,0,0,0,178,178,1,1,zaal,images/br_zaal.png,images/cb_zaal.png,0,,,,,,,,,,,,,,,,,,,,,,
,,,,,00018,2023-08-13_11h17.22.148,vbt_B2_day3,2022.2.4,Win32,61.06124443,,,,,,down,0,0.9895,,0.538888889,-0.251851908,1,0,0,0,179,179,14,1,rijp,images/br_rijp.png,images/cb_rijp.png,0,,,,,,,,,,,,,,,,,,,,,,
,,,,,00018,2023-08-13_11h17.22.148,vbt_B2_day3,2022.2.4,Win32,61.06124443,,,,,,down,0,7.2803,,0.538888889,-0.251851908,1,0,0,0,180,180,33,1,vlek,images/br_vlek.png,images/cb_vlek.png,0,,,,,,,,,,,,,,,,,,,,,,
,,,,,00018,2023-08-13_11h17.22.148,vbt_B2_day3,2022.2.4,Win32,61.06124443,,,,,,down,0,6.6162,,0.53703715,-0.249074131,1,0,0,0,181,181,88,1,boeien,images/br_boeien.png,images/cb_boeien.png,0,,,,,,,,,,,,,,,,,,,,,,
,,,,,00018,2023-08-13_11h17.22.148,vbt_B2_day3,2022.2.4,Win32,61.06124443,,,,,,down,0,22.8866,,0.53703715,-0.249074131,1,0,0,0,182,182,24,1,jurk,images/br_jurk.png,images/cb_jurk.png,0,,,,,,,,,,,,,,,,,,,,,,
,,,,,00018,2023-08-13_11h17.22.148,vbt_B2_day3,2022.2.4,Win32,61.06124443,,,,,,down,0,3.2676,,0.53703715,-0.249074131,1,0,0,0,183,183,38,1,baai,images/br_baai.png,images/cb_baai.png,0,,,,,,,,,,,,,,,,,,,,,,
,,,,,00018,2023-08-13_11h17.22.148,vbt_B2_day3,2022.2.4,Win32,61.06124443,,,,,,down,0,2.1417,,0.53703715,-0.249074131,1,0,0,0,184,184,172,1,weigeren,images/br_weigeren.png,images/cb_weigeren.png,0,,,,,,,,,,,,,,,,,,,,,,
,,,,,00018,2023-08-13_11h17.22.148,vbt_B2_day3,2022.2.4,Win32,61.06124443,,,,,,down,0,2.3846,,0.53703715,-0.249074131,1,0,0,0,185,185,149,1,redding,images/br_redding.png,images/cb_redding.png,0,,,,,,,,,,,,,,,,,,,,,,
,,,,,00018,2023-08-13_11h17.22.148,vbt_B2_day3,2022.2.4,Win32,61.06124443,,,,,,down,0,10.6849,,0.53703715,-0.249074131,1,0,0,0,186,186,165,1,feestdag,images/br_feestdag.png,images/cb_feestdag.png,0,,,,,,,,,,,,,,,,,,,,,,
,,,,,00018,2023-08-13_11h17.22.148,vbt_B2_day3,2022.2.4,Win32,61.06124443,,,,,,down,0,1.9227,,0.53703715,-0.249074131,1,0,0,0,187,187,16,1,ziek,images/br_ziek.png,images/cb_ziek.png,0,,,,,,,,,,,,,,,,,,,,,,
,,,,,00018,2023-08-13_11h17.22.148,vbt_B2_day3,2022.2.4,Win32,61.06124443,,,,,,down,0,2.205,,0.53703715,-0.249074131,1,0,0,0,188,188,139,1,stiekem,images/br_stiekem.png,images/cb_stiekem.png,0,,,,,,,,,,,,,,,,,,,,,,
,,,,,00018,2023-08-13_11h17.22.148,vbt_B2_day3,2022.2.4,Win32,61.06124443,,,,,,down,0,0.4964,,0.53703715,-0.249074131,1,0,0,0,189,189,71,1,bever,images/br_bever.png,images/cb_bever.png,0,,,,,,,,,,,,,,,,,,,,,,
,,,,,00018,2023-08-13_11h17.22.148,vbt_B2_day3,2022.2.4,Win32,61.06124443,,,,,,down,0,82.0204,,0.578703817,-0.499074131,1,0,0,0,190,190,152,1,afnemen,images/br_afnemen.png,images/cb_afnemen.png,0,,,,,,,,,,,,,,,,,,,,,,
,,,,,00018,2023-08-13_11h17.22.148,vbt_B2_day3,2022.2.4,Win32,61.06124443,,,,,,down,0,12.5114,,0.522222222,-0.188888889,1,0,0,0,191,191,107,1,maling,images/br_maling.png,images/cb_maling.png,0,,,,,,,,,,,,,,,,,,,,,,
,,,,,00018,2023-08-13_11h17.22.148,vbt_B2_day3,2022.2.4,Win32,61.06124443,,,,,,down,0,1.9499,,0.522222222,-0.188888889,1,0,0,0,192,192,164,1,anarchie,images/br_anarchie.png,images/cb_anarchie.png,0,,,,,,,,,,,,,,,,,,,,,,
,,,,,00018,2023-08-13_11h17.22.148,vbt_B2_day3,2022.2.4,Win32,61.06124443,,,,,,down,0,2.1869,,0.522222222,-0.188888889,1,0,0,0,193,193,138,1,akkoord,images/br_akkoord.png,images/cb_akkoord.png,0,,,,,,,,,,,,,,,,,,,,,,
,,,,,00018,2023-08-13_11h17.22.148,vbt_B2_day3,2022.2.4,Win32,61.06124443,,,,,,down,0,0.2217,,0.522222222,-0.188888889,1,0,0,0,194,194,28,1,stal,images/br_stal.png,images/cb_stal.png,0,,,,,,,,,,,,,,,,,,,,,,
,,,,,00018,2023-08-13_11h17.22.148,vbt_B2_day3,2022.2.4,Win32,61.06124443,,,,,,down,0,0.211,,0.522222222,-0.188888889,1,0,0,0,195,195,97,1,loyaal,images/br_loyaal.png,images/cb_loyaal.png,0,,,,,,,,,,,,,,,,,,,,,,
,,,,,00018,2023-08-13_11h17.22.148,vbt_B2_day3,2022.2.4,Win32,61.06124443,,,,,,down,0,2.7062,,0.522222222,-0.188888889,1,0,0,0,196,196,120,1,klimmen,images/br_klimmen.png,images/cb_klimmen.png,0,,,,,,,,,,,,,,,,,,,,,,
,,,,,00018,2023-08-13_11h17.22.148,vbt_B2_day3,2022.2.4,Win32,61.06124443,,,,,,down,0,6.4701,,0.522222222,-0.188888889,1,0,0,0,197,197,47,1,kabel,images/br_kabel.png,images/cb_kabel.png,0,,,,,,,,,,,,,,,,,,,,,,
,,,,,00018,2023-08-13_11h17.22.148,vbt_B2_day3,2022.2.4,Win32,61.06124443,,,,,,down,0,1.2027,,0.522222222,-0.188888889,1,0,0,0,198,198,188,1,strekken,images/br_strekken.png,images/cb_strekken.png,0,,,,,,,,,,,,,,,,,,,,,,
,,,,,00018,2023-08-13_11h17.22.148,vbt_B2_day3,2022.2.4,Win32,61.06124443,,,,,,down,0,2.2922,,0.522222222,-0.188888889,1,0,0,0,199,199,6,1,diep,images/br_diep.png,images/cb_diep.png,0,,,,,,,,,,,,,,,,,,,,,,
,,,,,00018,2023-08-13_11h17.22.148,vbt_B2_day3,2022.2.4,Win32,61.06124443,,,,,,,,,,,,,,,,,,,,,,,,,0.562963019,-0.04629631,1,0,0,,,,,,,,,,,,,,,,
,,,,,00018,2023-08-13_11h17.22.148,vbt_B2_day3,2022.2.4,Win32,61.06124443,,,,,,,,,,,,,,,,,,,,,,,,,,,,,,0.562963019,-0.04629631,1,0,0,,,,,,,,,,,
,,,,,00018,2023-08-13_11h17.22.148,vbt_B2_day3,2022.2.4,Win32,61.06124443,,,,,,,,,,,,,,,,,,,,stikken,images/br_stikken.png,images/cb_stikken.png,,stikken,,,,,,,,,,,0.567592706,-0.04629631,1,0,0,stikken,0,0,0,54,1
,,,,,00018,2023-08-13_11h17.22.148,vbt_B2_day3,2022.2.4,Win32,61.06124443,,,,,,,,,,,,,,,,,,,,schodel,images/br_schodel.png,images/cb_schodel.png,,schodel,,,,,,,,,,,0.567592706,-0.04629631,1,0,0,schodel,0,1,1,33,1
,,,,,00018,2023-08-13_11h17.22.148,vbt_B2_day3,2022.2.4,Win32,61.06124443,,,,,,,,,,,,,,,,,,,,boeien,images/br_boeien.png,images/cb_boeien.png,,boeien,,,,,,,,,,,0.567592706,-0.04629631,1,0,0,boeien,0,2,2,8,1
,,,,,00018,2023-08-13_11h17.22.148,vbt_B2_day3,2022.2.4,Win32,61.06124443,,,,,,,,,,,,,,,,,,,,makieren,images/br_makieren.png,images/cb_makieren.png,,makieren,,,,,,,,,,,0.567592706,-0.04629631,1,0,0,makieren,0,3,3,36,1
,,,,,00018,2023-08-13_11h17.22.148,vbt_B2_day3,2022.2.4,Win32,61.06124443,,,,,,,,,,,,,,,,,,,,hust,images/br_hust.png,images/cb_hust.png,,huls,,,,,,,,,,,0.567592706,-0.04629631,1,0,0,huls,0,4,4,23,1
,,,,,00018,2023-08-13_11h17.22.148,vbt_B2_day3,2022.2.4,Win32,61.06124443,,,,,,,,,,,,,,,,,,,,steel,images/br_steel.png,images/cb_steel.png,,steel,,,,,,,,,,,0.567592706,-0.04629631,1,0,0,steel,0,5,5,4,1
,,,,,00018,2023-08-13_11h17.22.148,vbt_B2_day3,2022.2.4,Win32,61.06124443,,,,,,,,,,,,,,,,,,,,stallen,images/br_stallen.png,images/cb_stallen.png,,stallen,,,,,,,,,,,0.567592706,-0.04629631,1,0,0,stallen,0,6,6,52,1
,,,,,00018,2023-08-13_11h17.22.148,vbt_B2_day3,2022.2.4,Win32,61.06124443,,,,,,,,,,,,,,,,,,,,paken,images/br_paken.png,images/cb_paken.png,,paken,,,,,,,,,,,0.567592706,-0.04629631,1,0,0,paken,0,7,7,27,1
,,,,,00018,2023-08-13_11h17.22.148,vbt_B2_day3,2022.2.4,Win32,61.06124443,,,,,,,,,,,,,,,,,,,,begrip,images/br_begrip.png,images/cb_begrip.png,,begijn,,,,,,,,,,,0.567592706,-0.04629631,1,0,0,begijn,0,8,8,48,1
,,,,,00018,2023-08-13_11h17.22.148,vbt_B2_day3,2022.2.4,Win32,61.06124443,,,,,,,,,,,,,,,,,,,,slapen,images/br_slapen.png,images/cb_slapen.png,,slapen,,,,,,,,,,,0.567592706,-0.04629631,1,0,0,slapen,0,9,9,9,1
,,,,,00018,2023-08-13_11h17.22.148,vbt_B2_day3,2022.2.4,Win32,61.06124443,,,,,,,,,,,,,,,,,,,,aarzelen,images/br_aarzelen.png,images/cb_aarzelen.png,,aarzelen,,,,,,,,,,,0.567592706,-0.04629631,1,0,0,aarzelen,0,10,10,19,1
,,,,,00018,2023-08-13_11h17.22.148,vbt_B2_day3,2022.2.4,Win32,61.06124443,,,,,,,,,,,,,,,,,,,,alsof,images/br_alsof.png,images/cb_alsof.png,,alsof,,,,,,,,,,,0.567592706,-0.04629631,1,0,0,alsof,0,11,11,44,1
,,,,,00018,2023-08-13_11h17.22.148,vbt_B2_day3,2022.2.4,Win32,61.06124443,,,,,,,,,,,,,,,,,,,,opzetten,images/br_opzetten.png,images/cb_opzetten.png,,opzetten,,,,,,,,,,,0.567592706,-0.04629631,1,0,0,opzetten,0,12,12,56,1
,,,,,00018,2023-08-13_11h17.22.148,vbt_B2_day3,2022.2.4,Win32,61.06124443,,,,,,,,,,,,,,,,,,,,bisschop,images/br_bisschop.png,images/cb_bisschop.png,,bissc...,,,,,,,,,,,0.567592706,-0.04629631,1,0,0,bissc...,0,13,13,16,1
,,,,,00018,2023-08-13_11h17.22.148,vbt_B2_day3,2022.2.4,Win32,61.06124443,,,,,,,,,,,,,,,,,,,,afbopen,images/br_afbopen.png,images/cb_afbopen.png,,.......,,,,,,,,,,,0.567592706,-0.04629631,1,0,0,.......,0,14,14,34,1
,,,,,00018,2023-08-13_11h17.22.148,vbt_B2_day3,2022.2.4,Win32,61.06124443,,,,,,,,,,,,,,,,,,,,verraden,images/br_verraden.png,images/cb_verraden.png,,verra...,,,,,,,,,,,0.567592706,-0.04629631,1,0,0,verra...,0,15,15,58,1
,,,,,00018,2023-08-13_11h17.22.148,vbt_B2_day3,2022.2.4,Win32,61.06124443,,,,,,,,,,,,,,,,,,,,keihard,images/br_keihard.png,images/cb_keihard.png,,keirang,,,,,,,,,,,0.567592706,-0.04629631,1,0,0,keirang,0,16,16,14,1
,,,,,00018,2023-08-13_11h17.22.148,vbt_B2_day3,2022.2.4,Win32,61.06124443,,,,,,,,,,,,,,,,,,,,mode,images/br_mode.png,images/cb_mode.png,,mode,,,,,,,,,,,0.567592706,-0.04629631,1,0,0,mode,0,17,17,3,1
,,,,,00018,2023-08-13_11h17.22.148,vbt_B2_day3,2022.2.4,Win32,61.06124443,,,,,,,,,,,,,,,,,,,,kaas,images/br_kaas.png,images/cb_kaas.png,,kaas,,,,,,,,,,,0.567592706,-0.04629631,1,0,0,kaas,0,18,18,42,1
,,,,,00018,2023-08-13_11h17.22.148,vbt_B2_day3,2022.2.4,Win32,61.06124443,,,,,,,,,,,,,,,,,,,,leek,images/br_leek.png,images/cb_leek.png,,beek,,,,,,,,,,,0.567592706,-0.04629631,1,0,0,beek,0,19,19,2,1
,,,,,00018,2023-08-13_11h17.22.148,vbt_B2_day3,2022.2.4,Win32,61.06124443,,,,,,,,,,,,,,,,,,,,mugeek,images/br_mugeek.png,images/cb_mugeek.png,,mugee.,,,,,,,,,,,0.567592706,-0.04629631,1,0,0,mugee.,0,20,20,29,1
,,,,,00018,2023-08-13_11h17.22.148,vbt_B2_day3,2022.2.4,Win32,61.06124443,,,,,,,,,,,,,,,,,,,,beslag,images/br_beslag.png,images/cb_beslag.png,,beslag,,,,,,,,,,,0.567592706,-0.04629631,1,0,0,beslag,0,21,21,51,1
,,,,,00018,2023-08-13_11h17.22.148,vbt_B2_day3,2022.2.4,Win32,61.06124443,,,,,,,,,,,,,,,,,,,,oprotten,images/br_oprotten.png,images/cb_oprotten.png,,oprotten,,,,,,,,,,,0.567592706,-0.04629631,1,0,0,oprotten,0,22,22,17,1
,,,,,00018,2023-08-13_11h17.22.148,vbt_B2_day3,2022.2.4,Win32,61.06124443,,,,,,,,,,,,,,,,,,,,sultan,images/br_sultan.png,images/cb_sultan.png,,sultan,,,,,,,,,,,0.567592706,-0.04629631,1,0,0,sultan,0,23,23,49,1
,,,,,00018,2023-08-13_11h17.22.148,vbt_B2_day3,2022.2.4,Win32,61.06124443,,,,,,,,,,,,,,,,,,,,samen,images/br_samen.png,images/cb_samen.png,,samen,,,,,,,,,,,0.567592706,-0.04629631,1,0,0,samen,0,24,24,7,1
,,,,,00018,2023-08-13_11h17.22.148,vbt_B2_day3,2022.2.4,Win32,61.06124443,,,,,,,,,,,,,,,,,,,,glijden,images/br_glijden.png,images/cb_glijden.png,,glijden,,,,,,,,,,,0.567592706,-0.04629631,1,0,0,glijden,0,25,25,53,1
,,,,,00018,2023-08-13_11h17.22.148,vbt_B2_day3,2022.2.4,Win32,61.06124443,,,,,,,,,,,,,,,,,,,,vlager,images/br_vlager.png,images/cb_vlager.png,,vlager,,,,,,,,,,,0.567592706,-0.04629631,1,0,0,vlager,0,26,26,28,1
,,,,,00018,2023-08-13_11h17.22.148,vbt_B2_day3,2022.2.4,Win32,61.06124443,,,,,,,,,,,,,,,,,,,,kwaas,images/br_kwaas.png,images/cb_kwaas.png,,kwaas,,,,,,,,,,,0.567592706,-0.04629631,1,0,0,kwaas,0,27,27,26,1
,,,,,00018,2023-08-13_11h17.22.148,vbt_B2_day3,2022.2.4,Win32,61.06124443,,,,,,,,,,,,,,,,,,,,prikken,images/br_prikken.png,images/cb_prikken.png,,prikken,,,,,,,,,,,0.567592706,-0.04629631,1,0,0,prikken,0,28,28,12,1
,,,,,00018,2023-08-13_11h17.22.148,vbt_B2_day3,2022.2.4,Win32,61.06124443,,,,,,,,,,,,,,,,,,,,eens,images/br_eens.png,images/cb_eens.png,,eens,,,,,,,,,,,0.567592706,-0.04629631,1,0,0,eens,0,29,29,40,1
,,,,,00018,2023-08-13_11h17.22.148,vbt_B2_day3,2022.2.4,Win32,61.06124443,,,,,,,,,,,,,,,,,,,,gezond,images/br_gezond.png,images/cb_gezond.png,,gezond,,,,,,,,,,,0.567592706,-0.04629631,1,0,0,gezond,0,30,30,11,1
,,,,,00018,2023-08-13_11h17.22.148,vbt_B2_day3,2022.2.4,Win32,61.06124443,,,,,,,,,,,,,,,,,,,,uniek,images/br_uniek.png,images/cb_uniek.png,,uniek,,,,,,,,,,,0.567592706,-0.04629631,1,0,0,uniek,0,31,31,46,1
,,,,,00018,2023-08-13_11h17.22.148,vbt_B2_day3,2022.2.4,Win32,61.06124443,,,,,,,,,,,,,,,,,,,,gout,images/br_gout.png,images/cb_gout.png,,gozd,,,,,,,,,,,0.567592706,-0.04629631,1,0,0,gozd,0,32,32,20,1
,,,,,00018,2023-08-13_11h17.22.148,vbt_B2_day3,2022.2.4,Win32,61.06124443,,,,,,,,,,,,,,,,,,,,bevret,images/br_bevret.png,images/cb_bevret.png,,bevrit,,,,,,,,,,,0.567592706,-0.04629631,1,0,0,bevrit,0,33,33,30,1
,,,,,00018,2023-08-13_11h17.22.148,vbt_B2_day3,2022.2.4,Win32,61.06124443,,,,,,,,,,,,,,,,,,,,leemaken,images/br_leemaken.png,images/cb_leemaken.png,,leemaken,,,,,,,,,,,0.567592706,-0.04629631,1,0,0,leemaken,0,34,34,39,1
,,,,,00018,2023-08-13_11h17.22.148,vbt_B2_day3,2022.2.4,Win32,61.06124443,,,,,,,,,,,,,,,,,,,,booien,images/br_booien.png,images/cb_booien.png,,booien,,,,,,,,,,,0.567592706,-0.04629631,1,0,0,booien,0,35,35,31,1
,,,,,00018,2023-08-13_11h17.22.148,vbt_B2_day3,2022.2.4,Win32,61.06124443,,,,,,,,,,,,,,,,,,,,dwang,images/br_dwang.png,images/cb_dwang.png,,dwage,,,,,,,,,,,0.567592706,-0.04629631,1,0,0,dwage,0,36,36,47,1
,,,,,00018,2023-08-13_11h17.22.148,vbt_B2_day3,2022.2.4,Win32,61.06124443,,,,,,,,,,,,,,,,,,,,schatten,images/br_schatten.png,images/cb_schatten.png,,schatten,,,,,,,,,,,0.567592706,-0.04629631,1,0,0,schatten,0,37,37,18,1
,,,,,00018,2023-08-13_11h17.22.148,vbt_B2_day3,2022.2.4,Win32,61.06124443,,,,,,,,,,,,,,,,,,,,laken,images/br_laken.png,images/cb_laken.png,,laken,,,,,,,,,,,0.567592706,-0.04629631,1,0,0,laken,0,38,38,5,1
,,,,,00018,2023-08-13_11h17.22.148,vbt_B2_day3,2022.2.4,Win32,61.06124443,,,,,,,,,,,,,,,,,,,,zone,images/br_zone.png,images/cb_zone.png,,zone,,,,,,,,,,,0.567592706,-0.044444444,1,0,0,zone,0,39,39,41,1
,,,,,00018,2023-08-13_11h17.22.148,vbt_B2_day3,2022.2.4,Win32,61.06124443,,,,,,,,,,,,,,,,,,,,verhaal,images/br_verhaal.png,images/cb_verhaal.png,,verhaal,,,,,,,,,,,0.567592706,-0.044444444,1,0,0,verhaal,0,40,40,13,1
,,,,,00018,2023-08-13_11h17.22.148,vbt_B2_day3,2022.2.4,Win32,61.06124443,,,,,,,,,,,,,,,,,,,,geluid,images/br_geluid.png,images/cb_geluid.png,,helmed,,,,,,,,,,,0.567592706,-0.044444444,1,0,0,helmed,0,41,41,10,1
,,,,,00018,2023-08-13_11h17.22.148,vbt_B2_day3,2022.2.4,Win32,61.06124443,,,,,,,,,,,,,,,,,,,,invallen,images/br_invallen.png,images/cb_invallen.png,,invallen,,,,,,,,,,,0.567592706,-0.044444444,1,0,0,invallen,0,42,42,57,1
,,,,,00018,2023-08-13_11h17.22.148,vbt_B2_day3,2022.2.4,Win32,61.06124443,,,,,,,,,,,,,,,,,,,,leugeren,images/br_leugeren.png,images/cb_leugeren.png,,leugeren,,,,,,,,,,,0.567592706,-0.044444444,1,0,0,leugeren,0,43,43,37,1
,,,,,00018,2023-08-13_11h17.22.148,vbt_B2_day3,2022.2.4,Win32,61.06124443,,,,,,,,,,,,,,,,,,,,croo,images/br_croo.png,images/cb_croo.png,,croo,,,,,,,,,,,0.573148261,-0.040740755,1,0,0,croo,0,44,44,22,1
,,,,,00018,2023-08-13_11h17.22.148,vbt_B2_day3,2022.2.4,Win32,61.06124443,,,,,,,,,,,,,,,,,,,,onrecht,images/br_onrecht.png,images/cb_onrecht.png,,onrecht,,,,,,,,,,,0.573148261,-0.040740755,1,0,0,onrecht,0,45,45,55,1
,,,,,00018,2023-08-13_11h17.22.148,vbt_B2_day3,2022.2.4,Win32,61.06124443,,,,,,,,,,,,,,,,,,,,opzicht,images/br_opzicht.png,images/cb_opzicht.png,,opzoet,,,,,,,,,,,0.569444444,-0.045370399,1,0,0,opzoet,0,46,46,15,1
,,,,,00018,2023-08-13_11h17.22.148,vbt_B2_day3,2022.2.4,Win32,61.06124443,,,,,,,,,,,,,,,,,,,,kest,images/br_kest.png,images/cb_kest.png,,kest,,,,,,,,,,,0.569444444,-0.045370399,1,0,0,kest,0,47,47,21,1
,,,,,00018,2023-08-13_11h17.22.148,vbt_B2_day3,2022.2.4,Win32,61.06124443,,,,,,,,,,,,,,,,,,,,brappen,images/br_brappen.png,images/cb_brappen.png,,brappen,,,,,,,,,,,0.569444444,-0.045370399,1,0,0,brappen,0,48,48,35,1
,,,,,00018,2023-08-13_11h17.22.148,vbt_B2_day3,2022.2.4,Win32,61.06124443,,,,,,,,,,,,,,,,,,,,theeting,images/br_theeting.png,images/cb_theeting.png,,sheeting,,,,,,,,,,,0.569444444,-0.045370399,1,0,0,sheeting,0,49,49,38,1
,,,,,00018,2023-08-13_11h17.22.148,vbt_B2_day3,2022.2.4,Win32,61.06124443,,,,,,,,,,,,,,,,,,,,uviek,images/br_uviek.png,images/cb_uviek.png,,uniek,,,,,,,,,,,0.569444444,-0.045370399,1,0,0,uniek,0,50,50,25,1
,,,,,00018,2023-08-13_11h17.22.148,vbt_B2_day3,2022.2.4,Win32,61.06124443,,,,,,,,,,,,,,,,,,,,hint,images/br_hint.png,images/cb_hint.png,,zink,,,,,,,,,,,0.569444444,-0.045370399,1,0,0,zink,0,51,51,43,1
,,,,,00018,2023-08-13_11h17.22.148,vbt_B2_day3,2022.2.4,Win32,61.06124443,,,,,,,,,,,,,,,,,,,,knie,images/br_knie.png,images/cb_knie.png,,knie,,,,,,,,,,,0.569444444,-0.045370399,1,0,0,knie,0,52,52,0,1
,,,,,00018,2023-08-13_11h17.22.148,vbt_B2_day3,2022.2.4,Win32,61.06124443,,,,,,,,,,,,,,,,,,,,stoom,images/br_stoom.png,images/cb_stoom.png,,stoom,,,,,,,,,,,0.569444444,-0.045370399,1,0,0,stoom,0,53,53,6,1
,,,,,00018,2023-08-13_11h17.22.148,vbt_B2_day3,2022.2.4,Win32,61.06124443,,,,,,,,,,,,,,,,,,,,jongelui,images/br_jongelui.png,images/cb_jongelui.png,,jong...,,,,,,,,,,,0.569444444,-0.045370399,1,0,0,jong...,0,54,54,59,1
,,,,,00018,2023-08-13_11h17.22.148,vbt_B2_day3,2022.2.4,Win32,61.06124443,,,,,,,,,,,,,,,,,,,,gebod,images/br_gebod.png,images/cb_gebod.png,,gebod,,,,,,,,,,,0.569444444,-0.045370399,1,0,0,gebod,0,55,55,45,1
,,,,,00018,2023-08-13_11h17.22.148,vbt_B2_day3,2022.2.4,Win32,61.06124443,,,,,,,,,,,,,,,,,,,,verwoor,images/br_verwoor.png,images/cb_verwoor.png,,.irwaar,,,,,,,,,,,0.569444444,-0.045370399,1,0,0,.irwaar,0,56,56,32,1
,,,,,00018,2023-08-13_11h17.22.148,vbt_B2_day3,2022.2.4,Win32,61.06124443,,,,,,,,,,,,,,,,,,,,hier,images/br_hier.png,images/cb_hier.png,,fier,,,,,,,,,,,0.569444444,-0.045370399,1,0,0,fier,0,57,57,1,1
,,,,,00018,2023-08-13_11h17.22.148,vbt_B2_day3,2022.2.4,Win32,61.06124443,,,,,,,,,,,,,,,,,,,,sluier,images/br_sluier.png,images/cb_sluier.png,,sluier,,,,,,,,,,,0.569444444,-0.045370399,1,0,0,sluier,0,58,58,50,1
,,,,,00018,2023-08-13_11h17.22.148,vbt_B2_day3,2022.2.4,Win32,61.06124443,,,,,,,,,,,,,,,,,,,,twaaf,images/br_twaaf.png,images/cb_twaaf.png,,twaaf,,,,,,,,,,,0.569444444,-0.045370399,1,0,0,twaaf,0,59,59,24,1
,,,,,00018,2023-08-13_11h17.22.148,vbt_B2_day3,2022.2.4,Win32,61.06124443,,,,,,,,,,,,,,,,,,,,,,,,,,,,,,,,,,,,,,,,,,,,,
