welcome_mouse.x,welcome_mouse.y,welcome_mouse.leftButton,welcome_mouse.midButton,welcome_mouse.rightButton,"ID",date,expName,psychopyVersion,OS,frameRate,trainInstr_mouse.x,trainInstr_mouse.y,trainInstr_mouse.leftButton,trainInstr_mouse.midButton,trainInstr_mouse.rightButton,translation_key.keys,translation_key.corr,translation_key.rt,testResp,word_rsp.text,trWrd_mouse.x,trWrd_mouse.y,trWrd_mouse.leftButton,trWrd_mouse.midButton,trWrd_mouse.rightButton,train_loop.thisRepN,train_loop.thisTrialN,train_loop.thisN,train_loop.thisIndex,train_loop.ran,nlWrd,brWrd,cbWrd,test,mouse.x,mouse.y,mouse.leftButton,mouse.midButton,mouse.rightButton,testInstr_mouse.x,testInstr_mouse.y,testInstr_mouse.leftButton,testInstr_mouse.midButton,testInstr_mouse.rightButton,test_mouse.x,test_mouse.y,test_mouse.leftButton,test_mouse.midButton,test_mouse.rightButton,test_response.text,test_loop.thisRepN,test_loop.thisTrialN,test_loop.thisN,test_loop.thisIndex,test_loop.ran
-0.032407407,-0.130555541,1,0,0,00055,2023-10-13_19h44.35.969,vbt_B2_day3,2022.2.4,Win32,59.64096141,,,,,,,,,,,,,,,,,,,,,,,,,,,,,,,,,,,,,,,,,,,,,
,,,,,00055,2023-10-13_19h44.35.969,vbt_B2_day3,2022.2.4,Win32,59.64096141,0.690740797,-0.277777778,1,0,0,,,,,,,,,,,,,,,,,,,,,,,,,,,,,,,,,,,,,,,,
,,,,,00055,2023-10-13_19h44.35.969,vbt_B2_day3,2022.2.4,Win32,59.64096141,,,,,,down,0,3.1524,staren,,0.483333305,-0.253703718,1,0,0,0,0,0,101,1,staren,images/br_staren.png,images/cb_staren.png,1,,,,,,,,,,,,,,,,,,,,,
,,,,,00055,2023-10-13_19h44.35.969,vbt_B2_day3,2022.2.4,Win32,59.64096141,,,,,,down,0,8.9297,,,0.455555527,-0.275000042,1,0,0,0,1,1,130,1,keihard,images/br_keihard.png,images/cb_keihard.png,0,,,,,,,,,,,,,,,,,,,,,
,,,,,00055,2023-10-13_19h44.35.969,vbt_B2_day3,2022.2.4,Win32,59.64096141,,,,,,down,0,1.849,,,0.455555527,-0.275000042,1,0,0,0,2,2,92,1,geheim,images/br_geheim.png,images/cb_geheim.png,0,,,,,,,,,,,,,,,,,,,,,
,,,,,00055,2023-10-13_19h44.35.969,vbt_B2_day3,2022.2.4,Win32,59.64096141,,,,,,down,0,17.443,,,0.455555527,-0.275000042,1,0,0,0,3,3,199,1,beseffen,images/br_beseffen.png,images/cb_beseffen.png,0,,,,,,,,,,,,,,,,,,,,,
,,,,,00055,2023-10-13_19h44.35.969,vbt_B2_day3,2022.2.4,Win32,59.64096141,,,,,,down,0,0.9882,,,0.455555527,-0.275000042,1,0,0,0,4,4,10,1,leek,images/br_leek.png,images/cb_leek.png,0,,,,,,,,,,,,,,,,,,,,,
,,,,,00055,2023-10-13_19h44.35.969,vbt_B2_day3,2022.2.4,Win32,59.64096141,,,,,,down,0,14.763,,,0.455555527,-0.280555584,0,0,1,0,5,5,120,1,klimmen,images/br_klimmen.png,images/cb_klimmen.png,0,,,,,,,,,,,,,,,,,,,,,
,,,,,00055,2023-10-13_19h44.35.969,vbt_B2_day3,2022.2.4,Win32,59.64096141,,,,,,down,0,11.9472,toegeven,,0.323148233,-0.133333347,1,0,0,0,6,6,181,1,toegeven,images/br_toegeven.png,images/cb_toegeven.png,1,,,,,,,,,,,,,,,,,,,,,
,,,,,00055,2023-10-13_19h44.35.969,vbt_B2_day3,2022.2.4,Win32,59.64096141,,,,,,down,0,4.5678,,,0.030555584,-0.010185206,0,1,0,0,7,7,107,1,maling,images/br_maling.png,images/cb_maling.png,0,,,,,,,,,,,,,,,,,,,,,
,,,,,00055,2023-10-13_19h44.35.969,vbt_B2_day3,2022.2.4,Win32,59.64096141,,,,,,down,0,33.9726,,,0.32685188,-0.260185171,1,0,0,0,8,8,49,1,laken,images/br_laken.png,images/cb_laken.png,0,,,,,,,,,,,,,,,,,,,,,
,,,,,00055,2023-10-13_19h44.35.969,vbt_B2_day3,2022.2.4,Win32,59.64096141,,,,,,down,0,4.1493,getuigen,,0.450000057,-0.218518504,1,0,0,0,9,9,183,1,getuigen,images/br_getuigen.png,images/cb_getuigen.png,1,,,,,,,,,,,,,,,,,,,,,
,,,,,00055,2023-10-13_19h44.35.969,vbt_B2_day3,2022.2.4,Win32,59.64096141,,,,,,down,0,2.9893,,,0.457407492,-0.216666681,1,0,0,0,10,10,16,1,ziek,images/br_ziek.png,images/cb_ziek.png,0,,,,,,,,,,,,,,,,,,,,,
,,,,,00055,2023-10-13_19h44.35.969,vbt_B2_day3,2022.2.4,Win32,59.64096141,,,,,,down,0,1.1533,,,0.5,-0.234259288,1,0,0,0,11,11,78,1,leren,images/br_leren.png,images/cb_leren.png,0,,,,,,,,,,,,,,,,,,,,,
,,,,,00055,2023-10-13_19h44.35.969,vbt_B2_day3,2022.2.4,Win32,59.64096141,,,,,,down,0,1.5001,knielen,,0.5,-0.234259288,1,0,0,0,12,12,141,1,knielen,images/br_knielen.png,images/cb_knielen.png,1,,,,,,,,,,,,,,,,,,,,,
,,,,,00055,2023-10-13_19h44.35.969,vbt_B2_day3,2022.2.4,Win32,59.64096141,,,,,,down,0,3.2687,,,0.5,-0.234259288,1,0,0,0,13,13,54,1,gebit,images/br_gebit.png,images/cb_gebit.png,0,,,,,,,,,,,,,,,,,,,,,
,,,,,00055,2023-10-13_19h44.35.969,vbt_B2_day3,2022.2.4,Win32,59.64096141,,,,,,down,0,2.0195,,,0.547222279,-0.250925912,1,0,0,0,14,14,157,1,uitlaat,images/br_uitlaat.png,images/cb_uitlaat.png,0,,,,,,,,,,,,,,,,,,,,,
,,,,,00055,2023-10-13_19h44.35.969,vbt_B2_day3,2022.2.4,Win32,59.64096141,,,,,,down,0,6.0994,,,0.541666667,-0.25462963,1,0,0,0,15,15,196,1,nakijken,images/br_nakijken.png,images/cb_nakijken.png,0,,,,,,,,,,,,,,,,,,,,,
,,,,,00055,2023-10-13_19h44.35.969,vbt_B2_day3,2022.2.4,Win32,59.64096141,,,,,,down,0,4.6405,,,0.545370455,-0.253703718,1,0,0,0,16,16,171,1,aarzelen,images/br_aarzelen.png,images/cb_aarzelen.png,0,,,,,,,,,,,,,,,,,,,,,
,,,,,00055,2023-10-13_19h44.35.969,vbt_B2_day3,2022.2.4,Win32,59.64096141,,,,,,down,0,61.0997,,,0.525925954,-0.235185199,1,0,0,0,17,17,127,1,doodmoe,images/br_doodmoe.png,images/cb_doodmoe.png,0,,,,,,,,,,,,,,,,,,,,,
,,,,,00055,2023-10-13_19h44.35.969,vbt_B2_day3,2022.2.4,Win32,59.64096141,,,,,,down,0,15.8287,hechten,,0.305555556,-0.342592593,1,0,0,0,18,18,143,1,hechten,images/br_hechten.png,images/cb_hechten.png,1,,,,,,,,,,,,,,,,,,,,,
,,,,,00055,2023-10-13_19h44.35.969,vbt_B2_day3,2022.2.4,Win32,59.64096141,,,,,,down,0,3.7351,,,0.250925912,-0.202777792,1,0,0,0,19,19,69,1,waken,images/br_waken.png,images/cb_waken.png,0,,,,,,,,,,,,,,,,,,,,,
,,,,,00055,2023-10-13_19h44.35.969,vbt_B2_day3,2022.2.4,Win32,59.64096141,,,,,,down,0,2.0819,,,0.237037023,-0.190740727,1,0,0,0,20,20,31,1,poes,images/br_poes.png,images/cb_poes.png,0,,,,,,,,,,,,,,,,,,,,,
,,,,,00055,2023-10-13_19h44.35.969,vbt_B2_day3,2022.2.4,Win32,59.64096141,,,,,,down,0,3.1817,,,0.237037023,-0.190740727,1,0,0,0,21,21,74,1,graaf,images/br_graaf.png,images/cb_graaf.png,0,,,,,,,,,,,,,,,,,,,,,
,,,,,00055,2023-10-13_19h44.35.969,vbt_B2_day3,2022.2.4,Win32,59.64096141,,,,,,down,0,1.1588,,,0.243518547,-0.194444444,1,0,0,0,22,22,17,1,taal,images/br_taal.png,images/cb_taal.png,0,,,,,,,,,,,,,,,,,,,,,
,,,,,00055,2023-10-13_19h44.35.969,vbt_B2_day3,2022.2.4,Win32,59.64096141,,,,,,down,0,2.6022,,,0.227777764,-0.20185188,1,0,0,0,23,23,191,1,opheffen,images/br_opheffen.png,images/cb_opheffen.png,0,,,,,,,,,,,,,,,,,,,,,
,,,,,00055,2023-10-13_19h44.35.969,vbt_B2_day3,2022.2.4,Win32,59.64096141,,,,,,down,0,0.9951,,,0.033333319,-0.01203703,1,0,0,0,24,24,125,1,aanzien,images/br_aanzien.png,images/cb_aanzien.png,0,,,,,,,,,,,,,,,,,,,,,
,,,,,00055,2023-10-13_19h44.35.969,vbt_B2_day3,2022.2.4,Win32,59.64096141,,,,,,down,0,1.3724,stof,,0.011111153,-0.14907406,1,0,0,0,25,25,22,1,stof,images/br_stof.png,images/cb_stof.png,1,,,,,,,,,,,,,,,,,,,,,
,,,,,00055,2023-10-13_19h44.35.969,vbt_B2_day3,2022.2.4,Win32,59.64096141,,,,,,down,0,3.77,,,0.289814843,-0.141666695,1,0,0,0,26,26,193,1,weeshuis,images/br_weeshuis.png,images/cb_weeshuis.png,0,,,,,,,,,,,,,,,,,,,,,
,,,,,00055,2023-10-13_19h44.35.969,vbt_B2_day3,2022.2.4,Win32,59.64096141,,,,,,down,0,1.0504,,,0.335185157,-0.086111104,1,0,0,0,27,27,75,1,snoep,images/br_snoep.png,images/cb_snoep.png,0,,,,,,,,,,,,,,,,,,,,,
,,,,,00055,2023-10-13_19h44.35.969,vbt_B2_day3,2022.2.4,Win32,59.64096141,,,,,,down,0,2.1685,,,-0.158333319,-0.124074088,1,0,0,0,28,28,115,1,kleren,images/br_kleren.png,images/cb_kleren.png,0,,,,,,,,,,,,,,,,,,,,,
,,,,,00055,2023-10-13_19h44.35.969,vbt_B2_day3,2022.2.4,Win32,59.64096141,,,,,,down,0,0.1831,,,0.280555584,-0.164814843,1,0,0,0,29,29,66,1,lever,images/br_lever.png,images/cb_lever.png,0,,,,,,,,,,,,,,,,,,,,,
,,,,,00055,2023-10-13_19h44.35.969,vbt_B2_day3,2022.2.4,Win32,59.64096141,,,,,,down,0,1.9988,,,0.281481496,-0.162037037,1,0,0,0,30,30,135,1,gedicht,images/br_gedicht.png,images/cb_gedicht.png,0,,,,,,,,,,,,,,,,,,,,,
,,,,,00055,2023-10-13_19h44.35.969,vbt_B2_day3,2022.2.4,Win32,59.64096141,,,,,,down,0,2.5536,,,0.011111153,-0.025000007,1,0,0,0,31,31,14,1,rijp,images/br_rijp.png,images/cb_rijp.png,0,,,,,,,,,,,,,,,,,,,,,
,,,,,00055,2023-10-13_19h44.35.969,vbt_B2_day3,2022.2.4,Win32,59.64096141,,,,,,down,0,7.3475,,,0.038888931,-0.041666667,1,0,0,0,32,32,53,1,baron,images/br_baron.png,images/cb_baron.png,0,,,,,,,,,,,,,,,,,,,,,
,,,,,00055,2023-10-13_19h44.35.969,vbt_B2_day3,2022.2.4,Win32,59.64096141,,,,,,down,0,1.5044,legaal,,0.062037079,-0.157407407,1,0,0,0,33,33,102,1,legaal,images/br_legaal.png,images/cb_legaal.png,1,,,,,,,,,,,,,,,,,,,,,
,,,,,00055,2023-10-13_19h44.35.969,vbt_B2_day3,2022.2.4,Win32,59.64096141,,,,,,down,0,0.7247,,,0.074074074,-0.157407407,1,0,0,0,34,34,189,1,aanraden,images/br_aanraden.png,images/cb_aanraden.png,0,,,,,,,,,,,,,,,,,,,,,
,,,,,00055,2023-10-13_19h44.35.969,vbt_B2_day3,2022.2.4,Win32,59.64096141,,,,,,down,0,3.1605,,,0.098148134,-0.121296282,1,0,0,0,35,35,91,1,gezond,images/br_gezond.png,images/cb_gezond.png,0,,,,,,,,,,,,,,,,,,,,,
,,,,,00055,2023-10-13_19h44.35.969,vbt_B2_day3,2022.2.4,Win32,59.64096141,,,,,,down,0,3.2069,,,0.104629658,-0.137037065,1,0,0,0,36,36,153,1,vervoer,images/br_vervoer.png,images/cb_vervoer.png,0,,,,,,,,,,,,,,,,,,,,,
,,,,,00055,2023-10-13_19h44.35.969,vbt_B2_day3,2022.2.4,Win32,59.64096141,,,,,,down,0,7.8003,,,0.102777764,-0.135185171,1,0,0,0,37,37,192,1,schaamte,images/br_schaamte.png,images/cb_schaamte.png,0,,,,,,,,,,,,,,,,,,,,,
,,,,,00055,2023-10-13_19h44.35.969,vbt_B2_day3,2022.2.4,Win32,59.64096141,,,,,,down,0,1.1564,knaap,,0.224074116,-0.155555584,1,0,0,0,38,38,62,1,knaap,images/br_knaap.png,images/cb_knaap.png,1,,,,,,,,,,,,,,,,,,,,,
,,,,,00055,2023-10-13_19h44.35.969,vbt_B2_day3,2022.2.4,Win32,59.64096141,,,,,,down,0,25.9274,,,0.069444444,0.143518519,1,0,0,0,39,39,6,1,diep,images/br_diep.png,images/cb_diep.png,0,,,,,,,,,,,,,,,,,,,,,
,,,,,00055,2023-10-13_19h44.35.969,vbt_B2_day3,2022.2.4,Win32,59.64096141,,,,,,down,0,5.2972,,,0.383333418,-0.087037051,1,0,0,0,40,40,43,1,klauw,images/br_klauw.png,images/cb_klauw.png,0,,,,,,,,,,,,,,,,,,,,,
,,,,,00055,2023-10-13_19h44.35.969,vbt_B2_day3,2022.2.4,Win32,59.64096141,,,,,,down,0,0.1291,,,0.121296282,-0.026851866,1,0,0,0,41,41,8,1,knie,images/br_knie.png,images/cb_knie.png,0,,,,,,,,,,,,,,,,,,,,,
,,,,,00055,2023-10-13_19h44.35.969,vbt_B2_day3,2022.2.4,Win32,59.64096141,,,,,,down,0,0.4851,,,-0.056481467,-0.024074095,1,0,0,0,42,42,36,1,vuur,images/br_vuur.png,images/cb_vuur.png,0,,,,,,,,,,,,,,,,,,,,,
,,,,,00055,2023-10-13_19h44.35.969,vbt_B2_day3,2022.2.4,Win32,59.64096141,,,,,,down,0,1.7501,joggen,,-0.056481467,-0.020370377,1,0,0,0,43,43,103,1,joggen,images/br_joggen.png,images/cb_joggen.png,1,,,,,,,,,,,,,,,,,,,,,
,,,,,00055,2023-10-13_19h44.35.969,vbt_B2_day3,2022.2.4,Win32,59.64096141,,,,,,down,0,1.8955,,,-0.056481467,-0.020370377,1,0,0,0,44,44,68,1,schat,images/br_schat.png,images/cb_schat.png,0,,,,,,,,,,,,,,,,,,,,,
,,,,,00055,2023-10-13_19h44.35.969,vbt_B2_day3,2022.2.4,Win32,59.64096141,,,,,,down,0,2.3818,,,0.536111196,-0.275000042,1,0,0,0,45,45,96,1,slagen,images/br_slagen.png,images/cb_slagen.png,0,,,,,,,,,,,,,,,,,,,,,
,,,,,00055,2023-10-13_19h44.35.969,vbt_B2_day3,2022.2.4,Win32,59.64096141,,,,,,down,0,10.3877,,,0.169444473,-0.053703697,1,0,0,0,46,46,123,1,hiervan,images/br_hiervan.png,images/cb_hiervan.png,0,,,,,,,,,,,,,,,,,,,,,
,,,,,00055,2023-10-13_19h44.35.969,vbt_B2_day3,2022.2.4,Win32,59.64096141,,,,,,down,0,0.783,,,0.169444473,-0.053703697,1,0,0,0,47,47,40,1,schep,images/br_schep.png,images/cb_schep.png,0,,,,,,,,,,,,,,,,,,,,,
,,,,,00055,2023-10-13_19h44.35.969,vbt_B2_day3,2022.2.4,Win32,59.64096141,,,,,,down,0,1.7552,,,0.095370399,0.11296297,1,0,0,0,48,48,188,1,strekken,images/br_strekken.png,images/cb_strekken.png,0,,,,,,,,,,,,,,,,,,,,,
,,,,,00055,2023-10-13_19h44.35.969,vbt_B2_day3,2022.2.4,Win32,59.64096141,,,,,,down,0,0.7018,,,0.140740783,0.033333319,1,0,0,0,49,49,186,1,voorraad,images/br_voorraad.png,images/cb_voorraad.png,0,,,,,,,,,,,,,,,,,,,,,
,,,,,00055,2023-10-13_19h44.35.969,vbt_B2_day3,2022.2.4,Win32,59.64096141,,,,,,down,0,0.451,,,0.25,-0.01203703,1,0,0,0,50,50,97,1,loyaal,images/br_loyaal.png,images/cb_loyaal.png,0,,,,,,,,,,,,,,,,,,,,,
,,,,,00055,2023-10-13_19h44.35.969,vbt_B2_day3,2022.2.4,Win32,59.64096141,,,,,,down,0,0.4513,,,0.262962977,-0.048148155,1,0,0,0,51,51,151,1,aanzoek,images/br_aanzoek.png,images/cb_aanzoek.png,0,,,,,,,,,,,,,,,,,,,,,
,,,,,00055,2023-10-13_19h44.35.969,vbt_B2_day3,2022.2.4,Win32,59.64096141,,,,,,down,0,4.1713,,,0.250925912,-0.212037051,1,0,0,0,52,52,34,1,vorm,images/br_vorm.png,images/cb_vorm.png,0,,,,,,,,,,,,,,,,,,,,,
,,,,,00055,2023-10-13_19h44.35.969,vbt_B2_day3,2022.2.4,Win32,59.64096141,,,,,,down,0,0.54,,,0.170370384,-0.306481467,1,0,0,0,53,53,18,1,blik,images/br_blik.png,images/cb_blik.png,0,,,,,,,,,,,,,,,,,,,,,
,,,,,00055,2023-10-13_19h44.35.969,vbt_B2_day3,2022.2.4,Win32,59.64096141,,,,,,down,0,0.9371,,,0.378703788,-0.142592607,1,0,0,0,54,54,29,1,baas,images/br_baas.png,images/cb_baas.png,0,,,,,,,,,,,,,,,,,,,,,
,,,,,00055,2023-10-13_19h44.35.969,vbt_B2_day3,2022.2.4,Win32,59.64096141,,,,,,down,0,4.9312,,,0.525925954,-0.218518504,1,0,0,0,55,55,187,1,opkijken,images/br_opkijken.png,images/cb_opkijken.png,0,,,,,,,,,,,,,,,,,,,,,
,,,,,00055,2023-10-13_19h44.35.969,vbt_B2_day3,2022.2.4,Win32,59.64096141,,,,,,down,0,79.787,,,0.088888875,-0.107407393,1,0,0,0,56,56,81,1,dubbel,images/br_dubbel.png,images/cb_dubbel.png,0,,,,,,,,,,,,,,,,,,,,,
,,,,,00055,2023-10-13_19h44.35.969,vbt_B2_day3,2022.2.4,Win32,59.64096141,,,,,,down,0,6.3804,,,0.205555598,-0.135185171,1,0,0,0,57,57,154,1,aflopen,images/br_aflopen.png,images/cb_aflopen.png,0,,,,,,,,,,,,,,,,,,,,,
,,,,,00055,2023-10-13_19h44.35.969,vbt_B2_day3,2022.2.4,Win32,59.64096141,,,,,,down,0,37.3189,,,0.235185199,-0.076851845,0,0,1,0,58,58,1,1,zaal,images/br_zaal.png,images/cb_zaal.png,0,,,,,,,,,,,,,,,,,,,,,
,,,,,00055,2023-10-13_19h44.35.969,vbt_B2_day3,2022.2.4,Win32,59.64096141,,,,,,down,0,0.2694,,,0.285185213,-0.028703725,1,0,0,0,59,59,9,1,hier,images/br_hier.png,images/cb_hier.png,0,,,,,,,,,,,,,,,,,,,,,
,,,,,00055,2023-10-13_19h44.35.969,vbt_B2_day3,2022.2.4,Win32,59.64096141,,,,,,down,0,2.7899,,,0.330555527,0.032407407,1,0,0,0,60,60,128,1,prikken,images/br_prikken.png,images/cb_prikken.png,0,,,,,,,,,,,,,,,,,,,,,
,,,,,00055,2023-10-13_19h44.35.969,vbt_B2_day3,2022.2.4,Win32,59.64096141,,,,,,down,0,64.6898,,,0.074999986,-0.031481496,1,0,0,0,61,61,110,1,zuster,images/br_zuster.png,images/cb_zuster.png,0,,,,,,,,,,,,,,,,,,,,,
,,,,,00055,2023-10-13_19h44.35.969,vbt_B2_day3,2022.2.4,Win32,59.64096141,,,,,,down,0,0.3346,,,0.067592621,-0.012962977,1,0,0,0,62,62,114,1,vullen,images/br_vullen.png,images/cb_vullen.png,0,,,,,,,,,,,,,,,,,,,,,
,,,,,00055,2023-10-13_19h44.35.969,vbt_B2_day3,2022.2.4,Win32,59.64096141,,,,,,down,0,2.5607,,,-0.05277775,-0.055555556,1,0,0,0,63,63,169,1,oprotten,images/br_oprotten.png,images/cb_oprotten.png,0,,,,,,,,,,,,,,,,,,,,,
,,,,,00055,2023-10-13_19h44.35.969,vbt_B2_day3,2022.2.4,Win32,59.64096141,,,,,,down,0,0.6593,,,0.083333333,-0.075000021,1,0,0,0,64,64,90,1,geluid,images/br_geluid.png,images/cb_geluid.png,0,,,,,,,,,,,,,,,,,,,,,
,,,,,00055,2023-10-13_19h44.35.969,vbt_B2_day3,2022.2.4,Win32,59.64096141,,,,,,down,0,5.1351,,,0.229629658,0,1,0,0,0,65,65,136,1,waarbij,images/br_waarbij.png,images/cb_waarbij.png,0,,,,,,,,,,,,,,,,,,,,,
,,,,,00055,2023-10-13_19h44.35.969,vbt_B2_day3,2022.2.4,Win32,59.64096141,,,,,,down,0,1.1525,,,0.126851894,-0.067592586,1,0,0,0,66,66,65,1,parel,images/br_parel.png,images/cb_parel.png,0,,,,,,,,,,,,,,,,,,,,,
,,,,,00055,2023-10-13_19h44.35.969,vbt_B2_day3,2022.2.4,Win32,59.64096141,,,,,,down,0,1.7606,,,0.217592593,-0.055555556,1,0,0,0,67,67,87,1,toeval,images/br_toeval.png,images/cb_toeval.png,0,,,,,,,,,,,,,,,,,,,,,
,,,,,00055,2023-10-13_19h44.35.969,vbt_B2_day3,2022.2.4,Win32,59.64096141,,,,,,down,0,2.1024,,,0.109259288,-0.021296289,1,0,0,0,68,68,99,1,koffie,images/br_koffie.png,images/cb_koffie.png,0,,,,,,,,,,,,,,,,,,,,,
,,,,,00055,2023-10-13_19h44.35.969,vbt_B2_day3,2022.2.4,Win32,59.64096141,,,,,,down,0,1.6193,,,0.068518533,-0.072222215,1,0,0,0,69,69,64,1,wegen,images/br_wegen.png,images/cb_wegen.png,0,,,,,,,,,,,,,,,,,,,,,
,,,,,00055,2023-10-13_19h44.35.969,vbt_B2_day3,2022.2.4,Win32,59.64096141,,,,,,down,0,66.5571,,,0.031481496,-0.101851852,1,0,0,0,70,70,37,1,mijn,images/br_mijn.png,images/cb_mijn.png,0,,,,,,,,,,,,,,,,,,,,,
,,,,,00055,2023-10-13_19h44.35.969,vbt_B2_day3,2022.2.4,Win32,59.64096141,,,,,,down,0,2.4413,,,0.12962963,-0.048148155,1,0,0,0,71,71,55,1,praat,images/br_praat.png,images/cb_praat.png,0,,,,,,,,,,,,,,,,,,,,,
,,,,,00055,2023-10-13_19h44.35.969,vbt_B2_day3,2022.2.4,Win32,59.64096141,,,,,,down,0,4.4617,blijven,,0.045370384,0.035185178,1,0,0,0,72,72,140,1,blijven,images/br_blijven.png,images/cb_blijven.png,1,,,,,,,,,,,,,,,,,,,,,
,,,,,00055,2023-10-13_19h44.35.969,vbt_B2_day3,2022.2.4,Win32,59.64096141,,,,,,down,0,4.0509,,,0.235185199,0.083333333,1,0,0,0,73,73,155,1,gerucht,images/br_gerucht.png,images/cb_gerucht.png,0,,,,,,,,,,,,,,,,,,,,,
,,,,,00055,2023-10-13_19h44.35.969,vbt_B2_day3,2022.2.4,Win32,59.64096141,,,,,,down,0,5.0649,,,0.073148162,-0.050000014,1,0,0,0,74,74,76,1,afval,images/br_afval.png,images/cb_afval.png,0,,,,,,,,,,,,,,,,,,,,,
,,,,,00055,2023-10-13_19h44.35.969,vbt_B2_day3,2022.2.4,Win32,59.64096141,,,,,,down,0,5.4035,,,0.077777792,-0.000925947,1,0,0,0,75,75,105,1,wijlen,images/br_wijlen.png,images/cb_wijlen.png,0,,,,,,,,,,,,,,,,,,,,,
,,,,,00055,2023-10-13_19h44.35.969,vbt_B2_day3,2022.2.4,Win32,59.64096141,,,,,,down,0,3.3531,,,0.117592635,-0.114814829,1,0,0,0,76,76,166,1,strikken,images/br_strikken.png,images/cb_strikken.png,0,,,,,,,,,,,,,,,,,,,,,
,,,,,00055,2023-10-13_19h44.35.969,vbt_B2_day3,2022.2.4,Win32,59.64096141,,,,,,down,0,3.8713,,,0.198148162,-0.231481481,1,0,0,0,77,77,111,1,ticket,images/br_ticket.png,images/cb_ticket.png,0,,,,,,,,,,,,,,,,,,,,,
,,,,,00055,2023-10-13_19h44.35.969,vbt_B2_day3,2022.2.4,Win32,59.64096141,,,,,,down,0,1.9832,,,-0.00462963,-0.029629637,1,0,0,0,78,78,145,1,invloed,images/br_invloed.png,images/cb_invloed.png,0,,,,,,,,,,,,,,,,,,,,,
,,,,,00055,2023-10-13_19h44.35.969,vbt_B2_day3,2022.2.4,Win32,59.64096141,,,,,,down,0,0.3365,,,0.02870369,-0.054629644,1,0,0,0,79,79,72,1,strak,images/br_strak.png,images/cb_strak.png,0,,,,,,,,,,,,,,,,,,,,,
,,,,,00055,2023-10-13_19h44.35.969,vbt_B2_day3,2022.2.4,Win32,59.64096141,,,,,,down,0,0.6834,,,0.074999986,-0.111111111,1,0,0,0,80,80,48,1,steel,images/br_steel.png,images/cb_steel.png,0,,,,,,,,,,,,,,,,,,,,,
,,,,,00055,2023-10-13_19h44.35.969,vbt_B2_day3,2022.2.4,Win32,59.64096141,,,,,,down,0,3.3755,,,-0.02407406,-0.046296296,1,0,0,0,81,81,86,1,woning,images/br_woning.png,images/cb_woning.png,0,,,,,,,,,,,,,,,,,,,,,
,,,,,00055,2023-10-13_19h44.35.969,vbt_B2_day3,2022.2.4,Win32,59.64096141,,,,,,down,0,7.8805,,,0.159259302,-0.087962963,1,0,0,0,82,82,126,1,kasteel,images/br_kasteel.png,images/cb_kasteel.png,0,,,,,,,,,,,,,,,,,,,,,
,,,,,00055,2023-10-13_19h44.35.969,vbt_B2_day3,2022.2.4,Win32,59.64096141,,,,,,down,0,155.5572,,,0.22129631,-0.010185206,1,0,0,0,83,83,185,1,mijnheer,images/br_mijnheer.png,images/cb_mijnheer.png,0,,,,,,,,,,,,,,,,,,,,,
,,,,,00055,2023-10-13_19h44.35.969,vbt_B2_day3,2022.2.4,Win32,59.64096141,,,,,,down,0,3.3449,,,0.678703732,-0.246296282,1,0,0,0,84,84,26,1,leuk,images/br_leuk.png,images/cb_leuk.png,0,,,,,,,,,,,,,,,,,,,,,
,,,,,00055,2023-10-13_19h44.35.969,vbt_B2_day3,2022.2.4,Win32,59.64096141,,,,,,down,0,30.0433,,,0.607407464,-0.219444487,1,0,0,0,85,85,70,1,ijdel,images/br_ijdel.png,images/cb_ijdel.png,0,,,,,,,,,,,,,,,,,,,,,
,,,,,00055,2023-10-13_19h44.35.969,vbt_B2_day3,2022.2.4,Win32,59.64096141,,,,,,down,0,2.7001,geduld,,0.607407464,-0.219444487,1,0,0,0,86,86,100,1,geduld,images/br_geduld.png,images/cb_geduld.png,1,,,,,,,,,,,,,,,,,,,,,
,,,,,00055,2023-10-13_19h44.35.969,vbt_B2_day3,2022.2.4,Win32,59.64096141,,,,,,down,0,162.579,,,0.595370399,-0.162962949,1,0,0,0,87,87,122,1,waarvan,images/br_waarvan.png,images/cb_waarvan.png,0,,,,,,,,,,,,,,,,,,,,,
,,,,,00055,2023-10-13_19h44.35.969,vbt_B2_day3,2022.2.4,Win32,59.64096141,,,,,,down,0,1.5786,,,0.536111196,-0.287962949,1,0,0,0,88,88,150,1,gegeven,images/br_gegeven.png,images/cb_gegeven.png,0,,,,,,,,,,,,,,,,,,,,,
,,,,,00055,2023-10-13_19h44.35.969,vbt_B2_day3,2022.2.4,Win32,59.64096141,,,,,,down,0,2.2061,,,0.53333339,-0.285185213,1,0,0,0,89,89,38,1,baai,images/br_baai.png,images/cb_baai.png,0,,,,,,,,,,,,,,,,,,,,,
,,,,,00055,2023-10-13_19h44.35.969,vbt_B2_day3,2022.2.4,Win32,59.64096141,,,,,,down,0,24.0545,,,0.352777834,-0.189814815,1,0,0,0,90,90,170,1,schatten,images/br_schatten.png,images/cb_schatten.png,0,,,,,,,,,,,,,,,,,,,,,
,,,,,00055,2023-10-13_19h44.35.969,vbt_B2_day3,2022.2.4,Win32,59.64096141,,,,,,down,0,2.2165,,,0.366666723,-0.187037079,1,0,0,0,91,91,84,1,lokken,images/br_lokken.png,images/cb_lokken.png,0,,,,,,,,,,,,,,,,,,,,,
,,,,,00055,2023-10-13_19h44.35.969,vbt_B2_day3,2022.2.4,Win32,59.64096141,,,,,,down,0,1.7656,,,0.173148191,-0.091666681,1,0,0,0,92,92,56,1,traag,images/br_traag.png,images/cb_traag.png,0,,,,,,,,,,,,,,,,,,,,,
,,,,,00055,2023-10-13_19h44.35.969,vbt_B2_day3,2022.2.4,Win32,59.64096141,,,,,,down,0,8.0697,,,0.247222265,-0.10092594,1,0,0,0,93,93,178,1,huisdier,images/br_huisdier.png,images/cb_huisdier.png,0,,,,,,,,,,,,,,,,,,,,,
,,,,,00055,2023-10-13_19h44.35.969,vbt_B2_day3,2022.2.4,Win32,59.64096141,,,,,,down,0,9.151,flirt,,0.255555541,-0.104629658,1,0,0,0,94,94,63,1,flirt,images/br_flirt.png,images/cb_flirt.png,1,,,,,,,,,,,,,,,,,,,,,
,,,,,00055,2023-10-13_19h44.35.969,vbt_B2_day3,2022.2.4,Win32,59.64096141,,,,,,down,0,22.5102,,,0.233333376,-0.097222222,1,0,0,0,95,95,108,1,excuus,images/br_excuus.png,images/cb_excuus.png,0,,,,,,,,,,,,,,,,,,,,,
,,,,,00055,2023-10-13_19h44.35.969,vbt_B2_day3,2022.2.4,Win32,59.64096141,,,,,,down,0,27.5108,,,0.285185213,-0.038888896,1,0,0,0,96,96,172,1,weigeren,images/br_weigeren.png,images/cb_weigeren.png,0,,,,,,,,,,,,,,,,,,,,,
,,,,,00055,2023-10-13_19h44.35.969,vbt_B2_day3,2022.2.4,Win32,59.64096141,,,,,,down,0,5.3317,,,0.118518547,-0.055555556,1,0,0,0,97,97,47,1,kabel,images/br_kabel.png,images/cb_kabel.png,0,,,,,,,,,,,,,,,,,,,,,
,,,,,00055,2023-10-13_19h44.35.969,vbt_B2_day3,2022.2.4,Win32,59.64096141,,,,,,down,0,3.8098,,,0.046296296,-0.025000007,1,0,0,0,98,98,94,1,oceaan,images/br_oceaan.png,images/cb_oceaan.png,0,,,,,,,,,,,,,,,,,,,,,
,,,,,00055,2023-10-13_19h44.35.969,vbt_B2_day3,2022.2.4,Win32,59.64096141,,,,,,down,0,3.096,,,0.127777806,-0.067592586,1,0,0,0,99,99,57,1,steek,images/br_steek.png,images/cb_steek.png,0,,,,,,,,,,,,,,,,,,,,,
,,,,,00055,2023-10-13_19h44.35.969,vbt_B2_day3,2022.2.4,Win32,59.64096141,,,,,,down,0,7.0665,,,0.123148176,-0.064814815,1,0,0,0,100,100,177,1,maaltijd,images/br_maaltijd.png,images/cb_maaltijd.png,0,,,,,,,,,,,,,,,,,,,,,
,,,,,00055,2023-10-13_19h44.35.969,vbt_B2_day3,2022.2.4,Win32,59.64096141,,,,,,down,0,1.731,,,0.158333319,-0.116666653,1,0,0,0,101,101,19,1,geit,images/br_geit.png,images/cb_geit.png,0,,,,,,,,,,,,,,,,,,,,,
,,,,,00055,2023-10-13_19h44.35.969,vbt_B2_day3,2022.2.4,Win32,59.64096141,,,,,,down,0,55.7681,,,0.154629672,-0.113888917,1,0,0,0,102,102,93,1,waarop,images/br_waarop.png,images/cb_waarop.png,0,,,,,,,,,,,,,,,,,,,,,
,,,,,00055,2023-10-13_19h44.35.969,vbt_B2_day3,2022.2.4,Win32,59.64096141,,,,,,down,0,2.1228,,,0.145370413,-0.132407436,1,0,0,0,103,103,104,1,zweven,images/br_zweven.png,images/cb_zweven.png,0,,,,,,,,,,,,,,,,,,,,,
,,,,,00055,2023-10-13_19h44.35.969,vbt_B2_day3,2022.2.4,Win32,59.64096141,,,,,,down,0,0.9706,,,0.159259302,-0.136111153,1,0,0,0,104,104,195,1,middelen,images/br_middelen.png,images/cb_middelen.png,0,,,,,,,,,,,,,,,,,,,,,
,,,,,00055,2023-10-13_19h44.35.969,vbt_B2_day3,2022.2.4,Win32,59.64096141,,,,,,down,0,0.7753,,,0.158333319,-0.143518519,1,0,0,0,105,105,33,1,vlek,images/br_vlek.png,images/cb_vlek.png,0,,,,,,,,,,,,,,,,,,,,,
,,,,,00055,2023-10-13_19h44.35.969,vbt_B2_day3,2022.2.4,Win32,59.64096141,,,,,,down,0,3.6911,,,0.123148176,-0.136111153,1,0,0,0,106,106,133,1,seizoen,images/br_seizoen.png,images/cb_seizoen.png,0,,,,,,,,,,,,,,,,,,,,,
,,,,,00055,2023-10-13_19h44.35.969,vbt_B2_day3,2022.2.4,Win32,59.64096141,,,,,,down,0,17.0266,,,0.169444473,-0.165740755,1,0,0,0,107,107,184,1,aandelen,images/br_aandelen.png,images/cb_aandelen.png,0,,,,,,,,,,,,,,,,,,,,,
,,,,,00055,2023-10-13_19h44.35.969,vbt_B2_day3,2022.2.4,Win32,59.64096141,,,,,,down,0,6.1455,,,0.169444473,-0.165740755,1,0,0,0,108,108,197,1,spanning,images/br_spanning.png,images/cb_spanning.png,0,,,,,,,,,,,,,,,,,,,,,
,,,,,00055,2023-10-13_19h44.35.969,vbt_B2_day3,2022.2.4,Win32,59.64096141,,,,,,down,0,6.0441,,,-0.012962977,-0.013888889,1,0,0,0,109,109,77,1,woede,images/br_woede.png,images/cb_woede.png,0,,,,,,,,,,,,,,,,,,,,,
,,,,,00055,2023-10-13_19h44.35.969,vbt_B2_day3,2022.2.4,Win32,59.64096141,,,,,,down,0,4.7151,,,0.10092594,0.018518519,1,0,0,0,110,110,144,1,eetlust,images/br_eetlust.png,images/cb_eetlust.png,0,,,,,,,,,,,,,,,,,,,,,
,,,,,00055,2023-10-13_19h44.35.969,vbt_B2_day3,2022.2.4,Win32,59.64096141,,,,,,down,0,5.7797,openbaar,,0.445370427,-0.226851852,1,0,0,0,111,111,180,1,openbaar,images/br_openbaar.png,images/cb_openbaar.png,1,,,,,,,,,,,,,,,,,,,,,
,,,,,00055,2023-10-13_19h44.35.969,vbt_B2_day3,2022.2.4,Win32,59.64096141,,,,,,down,0,2.1676,,,0.431481538,-0.215740769,1,0,0,0,112,112,79,1,nodig,images/br_nodig.png,images/cb_nodig.png,0,,,,,,,,,,,,,,,,,,,,,
,,,,,00055,2023-10-13_19h44.35.969,vbt_B2_day3,2022.2.4,Win32,59.64096141,,,,,,down,0,2.3839,,,0.42314812,-0.213888875,1,0,0,0,113,113,32,1,palm,images/br_palm.png,images/cb_palm.png,0,,,,,,,,,,,,,,,,,,,,,
,,,,,00055,2023-10-13_19h44.35.969,vbt_B2_day3,2022.2.4,Win32,59.64096141,,,,,,down,0,0.6238,,,0.103703746,-0.023148148,1,0,0,0,114,114,45,1,piste,images/br_piste.png,images/cb_piste.png,0,,,,,,,,,,,,,,,,,,,,,
,,,,,00055,2023-10-13_19h44.35.969,vbt_B2_day3,2022.2.4,Win32,59.64096141,,,,,,down,0,1.9161,,,0.10092594,-0.019444466,1,0,0,0,115,115,148,1,smullen,images/br_smullen.png,images/cb_smullen.png,0,,,,,,,,,,,,,,,,,,,,,
,,,,,00055,2023-10-13_19h44.35.969,vbt_B2_day3,2022.2.4,Win32,59.64096141,,,,,,down,0,9.8598,,,0.125,-0.00462963,1,0,0,0,116,116,71,1,bever,images/br_bever.png,images/cb_bever.png,0,,,,,,,,,,,,,,,,,,,,,
,,,,,00055,2023-10-13_19h44.35.969,vbt_B2_day3,2022.2.4,Win32,59.64096141,,,,,,down,0,1.4856,,,0.231481481,-0.031481496,1,0,0,0,117,117,190,1,goedkoop,images/br_goedkoop.png,images/cb_goedkoop.png,0,,,,,,,,,,,,,,,,,,,,,
,,,,,00055,2023-10-13_19h44.35.969,vbt_B2_day3,2022.2.4,Win32,59.64096141,,,,,,down,0,3.0323,,,0.02870369,-0.002777771,1,0,0,0,118,118,160,1,daarheen,images/br_daarheen.png,images/cb_daarheen.png,0,,,,,,,,,,,,,,,,,,,,,
,,,,,00055,2023-10-13_19h44.35.969,vbt_B2_day3,2022.2.4,Win32,59.64096141,,,,,,down,0,15.0774,,,0.323148233,-0.005555577,1,0,0,0,119,119,146,1,opkomen,images/br_opkomen.png,images/cb_opkomen.png,0,,,,,,,,,,,,,,,,,,,,,
,,,,,00055,2023-10-13_19h44.35.969,vbt_B2_day3,2022.2.4,Win32,59.64096141,,,,,,down,0,5.1694,,,0.059259273,-0.01666666,1,0,0,0,120,120,85,1,heilig,images/br_heilig.png,images/cb_heilig.png,0,,,,,,,,,,,,,,,,,,,,,
,,,,,00055,2023-10-13_19h44.35.969,vbt_B2_day3,2022.2.4,Win32,59.64096141,,,,,,down,0,6.081,,,0.175925926,-0.031481496,1,0,0,0,121,121,168,1,bisschop,images/br_bisschop.png,images/cb_bisschop.png,0,,,,,,,,,,,,,,,,,,,,,
,,,,,00055,2023-10-13_19h44.35.969,vbt_B2_day3,2022.2.4,Win32,59.64096141,,,,,,down,0,3.3713,,,0.297222279,-0.076851845,1,0,0,0,122,122,2,1,jaar,images/br_jaar.png,images/cb_jaar.png,0,,,,,,,,,,,,,,,,,,,,,
,,,,,00055,2023-10-13_19h44.35.969,vbt_B2_day3,2022.2.4,Win32,59.64096141,,,,,,down,0,1.8364,mist,,0.293518561,-0.073148162,1,0,0,0,123,123,21,1,mist,images/br_mist.png,images/cb_mist.png,1,,,,,,,,,,,,,,,,,,,,,
,,,,,00055,2023-10-13_19h44.35.969,vbt_B2_day3,2022.2.4,Win32,59.64096141,,,,,,down,0,5.734,,,0.300925926,-0.043518526,1,0,0,0,124,124,179,1,woestijn,images/br_woestijn.png,images/cb_woestijn.png,0,,,,,,,,,,,,,,,,,,,,,
,,,,,00055,2023-10-13_19h44.35.969,vbt_B2_day3,2022.2.4,Win32,59.64096141,,,,,,down,0,4.7725,,,0.728703675,-0.069444444,1,0,0,0,125,125,50,1,stoom,images/br_stoom.png,images/cb_stoom.png,0,,,,,,,,,,,,,,,,,,,,,
,,,,,00055,2023-10-13_19h44.35.969,vbt_B2_day3,2022.2.4,Win32,59.64096141,,,,,,down,0,5.6156,,,0.343518575,-0.020370377,1,0,0,0,126,126,116,1,besmet,images/br_besmet.png,images/cb_besmet.png,0,,,,,,,,,,,,,,,,,,,,,
,,,,,00055,2023-10-13_19h44.35.969,vbt_B2_day3,2022.2.4,Win32,59.64096141,,,,,,down,0,1.8296,,,0.346296381,-0.017592607,1,0,0,0,127,127,194,1,driemaal,images/br_driemaal.png,images/cb_driemaal.png,0,,,,,,,,,,,,,,,,,,,,,
,,,,,00055,2023-10-13_19h44.35.969,vbt_B2_day3,2022.2.4,Win32,59.64096141,,,,,,down,0,0.6663,,,0.346296381,-0.017592607,1,0,0,0,128,128,106,1,zingen,images/br_zingen.png,images/cb_zingen.png,0,,,,,,,,,,,,,,,,,,,,,
,,,,,00055,2023-10-13_19h44.35.969,vbt_B2_day3,2022.2.4,Win32,59.64096141,,,,,,down,0,4.6849,,,0.195370356,0.233333323,1,0,0,0,129,129,161,1,attentie,images/br_attentie.png,images/cb_attentie.png,0,,,,,,,,,,,,,,,,,,,,,
,,,,,00055,2023-10-13_19h44.35.969,vbt_B2_day3,2022.2.4,Win32,59.64096141,,,,,,down,0,6.7685,,,0.441666638,-0.102777764,1,0,0,0,130,130,162,1,uitdelen,images/br_uitdelen.png,images/cb_uitdelen.png,0,,,,,,,,,,,,,,,,,,,,,
,,,,,00055,2023-10-13_19h44.35.969,vbt_B2_day3,2022.2.4,Win32,59.64096141,,,,,,down,0,6.2858,,,0.362962935,-0.090740734,1,0,0,0,131,131,82,1,muziek,images/br_muziek.png,images/cb_muziek.png,0,,,,,,,,,,,,,,,,,,,,,
,,,,,00055,2023-10-13_19h44.35.969,vbt_B2_day3,2022.2.4,Win32,59.64096141,,,,,,down,0,1.2628,,,0.176851838,-0.045370384,1,0,0,0,132,132,30,1,uien,images/br_uien.png,images/cb_uien.png,0,,,,,,,,,,,,,,,,,,,,,
,,,,,00055,2023-10-13_19h44.35.969,vbt_B2_day3,2022.2.4,Win32,59.64096141,,,,,,down,0,26.6775,,,0.344444416,-0.053703697,1,0,0,0,133,133,138,1,akkoord,images/br_akkoord.png,images/cb_akkoord.png,0,,,,,,,,,,,,,,,,,,,,,
,,,,,00055,2023-10-13_19h44.35.969,vbt_B2_day3,2022.2.4,Win32,59.64096141,,,,,,down,0,2.8148,,,0.344444416,-0.053703697,1,0,0,0,134,134,176,1,techniek,images/br_techniek.png,images/cb_techniek.png,0,,,,,,,,,,,,,,,,,,,,,
,,,,,00055,2023-10-13_19h44.35.969,vbt_B2_day3,2022.2.4,Win32,59.64096141,,,,,,down,0,20.4936,,,0.474074046,-0.265740783,1,0,0,0,135,135,80,1,kanjer,images/br_kanjer.png,images/cb_kanjer.png,0,,,,,,,,,,,,,,,,,,,,,
,,,,,00055,2023-10-13_19h44.35.969,vbt_B2_day3,2022.2.4,Win32,59.64096141,,,,,,down,0,42.8527,,,0.470370399,-0.251851894,1,0,0,0,136,136,173,1,apparaat,images/br_apparaat.png,images/cb_apparaat.png,0,,,,,,,,,,,,,,,,,,,,,
,,,,,00055,2023-10-13_19h44.35.969,vbt_B2_day3,2022.2.4,Win32,59.64096141,,,,,,down,0,3.5383,,,0.308333362,-0.199074074,1,0,0,0,137,137,118,1,vinger,images/br_vinger.png,images/cb_vinger.png,0,,,,,,,,,,,,,,,,,,,,,
,,,,,00055,2023-10-13_19h44.35.969,vbt_B2_day3,2022.2.4,Win32,59.64096141,,,,,,down,0,2.1819,,,0.292592578,-0.194444444,1,0,0,0,138,138,175,1,heengaan,images/br_heengaan.png,images/cb_heengaan.png,0,,,,,,,,,,,,,,,,,,,,,
,,,,,00055,2023-10-13_19h44.35.969,vbt_B2_day3,2022.2.4,Win32,59.64096141,,,,,,down,0,1.356,,,0.284259302,-0.188888903,1,0,0,0,139,139,5,1,blad,images/br_blad.png,images/cb_blad.png,0,,,,,,,,,,,,,,,,,,,,,
,,,,,00055,2023-10-13_19h44.35.969,vbt_B2_day3,2022.2.4,Win32,59.64096141,,,,,,down,0,3.0953,groen,,0.288888931,-0.188888903,1,0,0,0,140,140,61,1,groen,images/br_groen.png,images/cb_groen.png,1,,,,,,,,,,,,,,,,,,,,,
,,,,,00055,2023-10-13_19h44.35.969,vbt_B2_day3,2022.2.4,Win32,59.64096141,,,,,,down,0,28.591,,,0.294444473,-0.194444444,1,0,0,0,141,141,24,1,jurk,images/br_jurk.png,images/cb_jurk.png,0,,,,,,,,,,,,,,,,,,,,,
,,,,,00055,2023-10-13_19h44.35.969,vbt_B2_day3,2022.2.4,Win32,59.64096141,,,,,,down,0,0.2459,,,0.151851866,-0.018518519,1,0,0,0,142,142,41,1,maken,images/br_maken.png,images/cb_maken.png,0,,,,,,,,,,,,,,,,,,,,,
,,,,,00055,2023-10-13_19h44.35.969,vbt_B2_day3,2022.2.4,Win32,59.64096141,,,,,,down,0,27.0535,,,0.550000085,0.14907406,1,0,0,0,143,143,167,1,eenhoorn,images/br_eenhoorn.png,images/cb_eenhoorn.png,0,,,,,,,,,,,,,,,,,,,,,
,,,,,00055,2023-10-13_19h44.35.969,vbt_B2_day3,2022.2.4,Win32,59.64096141,,,,,,down,0,3.5883,,,0.559259344,0.148148148,1,0,0,0,144,144,67,1,zwart,images/br_zwart.png,images/cb_zwart.png,0,,,,,,,,,,,,,,,,,,,,,
,,,,,00055,2023-10-13_19h44.35.969,vbt_B2_day3,2022.2.4,Win32,59.64096141,,,,,,down,0,1.2546,site,,0.558333362,0.147222201,1,0,0,0,145,145,20,1,site,images/br_site.png,images/cb_site.png,1,,,,,,,,,,,,,,,,,,,,,
,,,,,00055,2023-10-13_19h44.35.969,vbt_B2_day3,2022.2.4,Win32,59.64096141,,,,,,down,0,4.2335,,,0.554629714,0.145370377,1,0,0,0,146,146,152,1,afnemen,images/br_afnemen.png,images/cb_afnemen.png,0,,,,,,,,,,,,,,,,,,,,,
,,,,,00055,2023-10-13_19h44.35.969,vbt_B2_day3,2022.2.4,Win32,59.64096141,,,,,,down,0,0.4307,,,0.514814871,0.193518497,1,0,0,0,147,147,4,1,moes,images/br_moes.png,images/cb_moes.png,0,,,,,,,,,,,,,,,,,,,,,
,,,,,00055,2023-10-13_19h44.35.969,vbt_B2_day3,2022.2.4,Win32,59.64096141,,,,,,down,0,6.8493,,,0.516666695,0.191666674,1,0,0,0,148,148,83,1,mening,images/br_mening.png,images/cb_mening.png,0,,,,,,,,,,,,,,,,,,,,,
,,,,,00055,2023-10-13_19h44.35.969,vbt_B2_day3,2022.2.4,Win32,59.64096141,,,,,,down,0,27.2631,,,0.520370342,0.187037044,1,0,0,0,149,149,109,1,totaal,images/br_totaal.png,images/cb_totaal.png,0,,,,,,,,,,,,,,,,,,,,,
,,,,,00055,2023-10-13_19h44.35.969,vbt_B2_day3,2022.2.4,Win32,59.64096141,,,,,,down,0,14.7605,,,0.442592621,0.134259259,1,0,0,0,150,150,39,1,laag,images/br_laag.png,images/cb_laag.png,0,,,,,,,,,,,,,,,,,,,,,
,,,,,00055,2023-10-13_19h44.35.969,vbt_B2_day3,2022.2.4,Win32,59.64096141,,,,,,down,0,2.848,,,0.436111168,0.145370377,1,0,0,0,151,151,112,1,lukken,images/br_lukken.png,images/cb_lukken.png,0,,,,,,,,,,,,,,,,,,,,,
,,,,,00055,2023-10-13_19h44.35.969,vbt_B2_day3,2022.2.4,Win32,59.64096141,,,,,,down,0,0.5217,,,0.516666695,0.099999993,1,0,0,0,152,152,7,1,geld,images/br_geld.png,images/cb_geld.png,0,,,,,,,,,,,,,,,,,,,,,
,,,,,00055,2023-10-13_19h44.35.969,vbt_B2_day3,2022.2.4,Win32,59.64096141,,,,,,down,0,6.9983,,,0.509259259,0.099999993,1,0,0,0,153,153,25,1,plek,images/br_plek.png,images/cb_plek.png,0,,,,,,,,,,,,,,,,,,,,,
,,,,,00055,2023-10-13_19h44.35.969,vbt_B2_day3,2022.2.4,Win32,59.64096141,,,,,,down,0,20.1949,,,0.496296353,0.10833334,1,0,0,0,154,154,121,1,twijfel,images/br_twijfel.png,images/cb_twijfel.png,0,,,,,,,,,,,,,,,,,,,,,
,,,,,00055,2023-10-13_19h44.35.969,vbt_B2_day3,2022.2.4,Win32,59.64096141,,,,,,down,0,1.5988,,,0.499074159,0.109259252,1,0,0,0,155,155,51,1,samen,images/br_samen.png,images/cb_samen.png,0,,,,,,,,,,,,,,,,,,,,,
,,,,,00055,2023-10-13_19h44.35.969,vbt_B2_day3,2022.2.4,Win32,59.64096141,,,,,,down,0,3.5863,,,0.465740769,0.14907406,1,0,0,0,156,156,73,1,volop,images/br_volop.png,images/cb_volop.png,0,,,,,,,,,,,,,,,,,,,,,
,,,,,00055,2023-10-13_19h44.35.969,vbt_B2_day3,2022.2.4,Win32,59.64096141,,,,,,down,0,4.2974,,,0.438888974,0.01203703,1,0,0,0,157,157,147,1,komisch,images/br_komisch.png,images/cb_komisch.png,0,,,,,,,,,,,,,,,,,,,,,
,,,,,00055,2023-10-13_19h44.35.969,vbt_B2_day3,2022.2.4,Win32,59.64096141,,,,,,down,0,28.8955,,,0.075925968,-0.050000014,1,0,0,0,158,158,52,1,wagon,images/br_wagon.png,images/cb_wagon.png,0,,,,,,,,,,,,,,,,,,,,,
,,,,,00055,2023-10-13_19h44.35.969,vbt_B2_day3,2022.2.4,Win32,59.64096141,,,,,,down,0,3.4141,,,-0.15370369,0.0074074,1,0,0,0,159,159,44,1,flits,images/br_flits.png,images/cb_flits.png,0,,,,,,,,,,,,,,,,,,,,,
,,,,,00055,2023-10-13_19h44.35.969,vbt_B2_day3,2022.2.4,Win32,59.64096141,,,,,,down,0,12.134,,,0.114814829,-0.034259266,1,0,0,0,160,160,163,1,schuilen,images/br_schuilen.png,images/cb_schuilen.png,0,,,,,,,,,,,,,,,,,,,,,
,,,,,00055,2023-10-13_19h44.35.969,vbt_B2_day3,2022.2.4,Win32,59.64096141,,,,,,down,0,2.2852,,,0.185185185,-0.113888917,1,0,0,0,161,161,129,1,verhaal,images/br_verhaal.png,images/cb_verhaal.png,0,,,,,,,,,,,,,,,,,,,,,
,,,,,00055,2023-10-13_19h44.35.969,vbt_B2_day3,2022.2.4,Win32,59.64096141,,,,,,down,0,6.7609,,,0.158333319,-0.102777764,1,0,0,0,162,162,174,1,stemming,images/br_stemming.png,images/cb_stemming.png,0,,,,,,,,,,,,,,,,,,,,,
,,,,,00055,2023-10-13_19h44.35.969,vbt_B2_day3,2022.2.4,Win32,59.64096141,,,,,,down,0,3.8446,,,0.071296339,-0.127777806,1,0,0,0,163,163,13,1,kaal,images/br_kaal.png,images/cb_kaal.png,0,,,,,,,,,,,,,,,,,,,,,
,,,,,00055,2023-10-13_19h44.35.969,vbt_B2_day3,2022.2.4,Win32,59.64096141,,,,,,down,0,13.4778,,,0.074074074,-0.124074088,1,0,0,0,164,164,3,1,mand,images/br_mand.png,images/cb_mand.png,0,,,,,,,,,,,,,,,,,,,,,
,,,,,00055,2023-10-13_19h44.35.969,vbt_B2_day3,2022.2.4,Win32,59.64096141,,,,,,down,0,3.2965,,,-0.000925912,-0.078703704,1,0,0,0,165,165,58,1,tekst,images/br_tekst.png,images/cb_tekst.png,0,,,,,,,,,,,,,,,,,,,,,
,,,,,00055,2023-10-13_19h44.35.969,vbt_B2_day3,2022.2.4,Win32,59.64096141,,,,,,down,0,0.9391,,,0.00462963,-0.08425928,1,0,0,0,166,166,15,1,soda,images/br_soda.png,images/cb_soda.png,0,,,,,,,,,,,,,,,,,,,,,
,,,,,00055,2023-10-13_19h44.35.969,vbt_B2_day3,2022.2.4,Win32,59.64096141,,,,,,down,0,5.1505,,,0.100000028,-0.012962977,1,0,0,0,167,167,139,1,stiekem,images/br_stiekem.png,images/cb_stiekem.png,0,,,,,,,,,,,,,,,,,,,,,
,,,,,00055,2023-10-13_19h44.35.969,vbt_B2_day3,2022.2.4,Win32,59.64096141,,,,,,down,0,3.8666,,,0.014814801,-0.10555557,1,0,0,0,168,168,28,1,stal,images/br_stal.png,images/cb_stal.png,0,,,,,,,,,,,,,,,,,,,,,
,,,,,00055,2023-10-13_19h44.35.969,vbt_B2_day3,2022.2.4,Win32,59.64096141,,,,,,down,0,0.4213,,,0.012962977,-0.10555557,1,0,0,0,169,169,158,1,innemen,images/br_innemen.png,images/cb_innemen.png,0,,,,,,,,,,,,,,,,,,,,,
,,,,,00055,2023-10-13_19h44.35.969,vbt_B2_day3,2022.2.4,Win32,59.64096141,,,,,,down,0,3.5494,,,0.013888889,-0.106481481,1,0,0,0,170,170,95,1,vreten,images/br_vreten.png,images/cb_vreten.png,0,,,,,,,,,,,,,,,,,,,,,
,,,,,00055,2023-10-13_19h44.35.969,vbt_B2_day3,2022.2.4,Win32,59.64096141,,,,,,down,0,1.2614,,,0.007407436,-0.10092594,1,0,0,0,171,171,0,1,slak,images/br_slak.png,images/cb_slak.png,0,,,,,,,,,,,,,,,,,,,,,
,,,,,00055,2023-10-13_19h44.35.969,vbt_B2_day3,2022.2.4,Win32,59.64096141,,,,,,down,0,2.7572,,,0.015740783,-0.10092594,1,0,0,0,172,172,113,1,koppen,images/br_koppen.png,images/cb_koppen.png,0,,,,,,,,,,,,,,,,,,,,,
,,,,,00055,2023-10-13_19h44.35.969,vbt_B2_day3,2022.2.4,Win32,59.64096141,,,,,,down,0,1.9361,,,0.027777778,0.044444437,1,0,0,0,173,173,27,1,dans,images/br_dans.png,images/cb_dans.png,0,,,,,,,,,,,,,,,,,,,,,
,,,,,00055,2023-10-13_19h44.35.969,vbt_B2_day3,2022.2.4,Win32,59.64096141,,,,,,down,0,2.5984,,,0.020370413,-0.12037037,1,0,0,0,174,174,156,1,rechten,images/br_rechten.png,images/cb_rechten.png,0,,,,,,,,,,,,,,,,,,,,,
,,,,,00055,2023-10-13_19h44.35.969,vbt_B2_day3,2022.2.4,Win32,59.64096141,,,,,,down,0,9.026,,,0.223148134,0.01666666,1,0,0,0,175,175,149,1,redding,images/br_redding.png,images/cb_redding.png,0,,,,,,,,,,,,,,,,,,,,,
,,,,,00055,2023-10-13_19h44.35.969,vbt_B2_day3,2022.2.4,Win32,59.64096141,,,,,,down,0,1.9696,,,0.204629616,-0.002777771,1,0,0,0,176,176,131,1,opzicht,images/br_opzicht.png,images/cb_opzicht.png,0,,,,,,,,,,,,,,,,,,,,,
,,,,,00055,2023-10-13_19h44.35.969,vbt_B2_day3,2022.2.4,Win32,59.64096141,,,,,,down,0,0.8971,,,0.075925968,-0.041666667,1,0,0,0,177,177,11,1,mode,images/br_mode.png,images/cb_mode.png,0,,,,,,,,,,,,,,,,,,,,,
,,,,,00055,2023-10-13_19h44.35.969,vbt_B2_day3,2022.2.4,Win32,59.64096141,,,,,,down,0,0.9162,,,0.089814857,-0.072222215,1,0,0,0,178,178,137,1,trekker,images/br_trekker.png,images/cb_trekker.png,0,,,,,,,,,,,,,,,,,,,,,
,,,,,00055,2023-10-13_19h44.35.969,vbt_B2_day3,2022.2.4,Win32,59.64096141,,,,,,down,0,15.5452,,,-0.208333333,-0.014814836,1,0,0,0,179,179,159,1,sufferd,images/br_sufferd.png,images/cb_sufferd.png,0,,,,,,,,,,,,,,,,,,,,,
,,,,,00055,2023-10-13_19h44.35.969,vbt_B2_day3,2022.2.4,Win32,59.64096141,,,,,,down,0,8.866,,,0.099074116,-0.095370399,1,0,0,0,180,180,35,1,lust,images/br_lust.png,images/cb_lust.png,0,,,,,,,,,,,,,,,,,,,,,
,,,,,00055,2023-10-13_19h44.35.969,vbt_B2_day3,2022.2.4,Win32,59.64096141,,,,,,down,0,6.0026,,,0.159259302,-0.045370384,1,0,0,0,181,181,59,1,kring,images/br_kring.png,images/cb_kring.png,0,,,,,,,,,,,,,,,,,,,,,
,,,,,00055,2023-10-13_19h44.35.969,vbt_B2_day3,2022.2.4,Win32,59.64096141,,,,,,down,0,12.792,,,0.270370413,-0.077777792,1,0,0,0,182,182,198,1,bedoelen,images/br_bedoelen.png,images/cb_bedoelen.png,0,,,,,,,,,,,,,,,,,,,,,
,,,,,00055,2023-10-13_19h44.35.969,vbt_B2_day3,2022.2.4,Win32,59.64096141,,,,,,down,0,0.3358,,,0.095370399,-0.040740755,1,0,0,0,183,183,132,1,grappen,images/br_grappen.png,images/cb_grappen.png,0,,,,,,,,,,,,,,,,,,,,,
,,,,,00055,2023-10-13_19h44.35.969,vbt_B2_day3,2022.2.4,Win32,59.64096141,,,,,,down,0,0.6145,,,0.180555556,-0.110185199,1,0,0,0,184,184,119,1,liefje,images/br_liefje.png,images/cb_liefje.png,0,,,,,,,,,,,,,,,,,,,,,
,,,,,00055,2023-10-13_19h44.35.969,vbt_B2_day3,2022.2.4,Win32,59.64096141,,,,,,down,0,2.3987,zout,,0.178703732,-0.111111111,1,0,0,0,185,185,23,1,zout,images/br_zout.png,images/cb_zout.png,1,,,,,,,,,,,,,,,,,,,,,
,,,,,00055,2023-10-13_19h44.35.969,vbt_B2_day3,2022.2.4,Win32,59.64096141,,,,,,down,0,5.8986,,,0.174074102,-0.108333376,1,0,0,0,186,186,46,1,jagen,images/br_jagen.png,images/cb_jagen.png,0,,,,,,,,,,,,,,,,,,,,,
,,,,,00055,2023-10-13_19h44.35.969,vbt_B2_day3,2022.2.4,Win32,59.64096141,,,,,,down,0,9.0597,,,0.170370384,-0.107407393,1,0,0,0,187,187,88,1,boeien,images/br_boeien.png,images/cb_boeien.png,0,,,,,,,,,,,,,,,,,,,,,
,,,,,00055,2023-10-13_19h44.35.969,vbt_B2_day3,2022.2.4,Win32,59.64096141,,,,,,down,0,4.8216,,,0.170370384,-0.107407393,1,0,0,0,188,188,124,1,bloeien,images/br_bloeien.png,images/cb_bloeien.png,0,,,,,,,,,,,,,,,,,,,,,
,,,,,00055,2023-10-13_19h44.35.969,vbt_B2_day3,2022.2.4,Win32,59.64096141,,,,,,down,0,10.2377,,,0.178703732,-0.12037037,1,0,0,0,189,189,42,1,bleek,images/br_bleek.png,images/cb_bleek.png,0,,,,,,,,,,,,,,,,,,,,,
,,,,,00055,2023-10-13_19h44.35.969,vbt_B2_day3,2022.2.4,Win32,59.64096141,,,,,,down,0,2.5609,,,0.175000014,-0.125,1,0,0,0,190,190,98,1,kreeft,images/br_kreeft.png,images/cb_kreeft.png,0,,,,,,,,,,,,,,,,,,,,,
,,,,,00055,2023-10-13_19h44.35.969,vbt_B2_day3,2022.2.4,Win32,59.64096141,,,,,,down,0,0.9999,,,0.193518533,-0.123148176,1,0,0,0,191,191,117,1,kennis,images/br_kennis.png,images/cb_kennis.png,0,,,,,,,,,,,,,,,,,,,,,
,,,,,00055,2023-10-13_19h44.35.969,vbt_B2_day3,2022.2.4,Win32,59.64096141,,,,,,down,0,4.1998,snuiven,,0.193518533,-0.123148176,1,0,0,0,192,192,142,1,snuiven,images/br_snuiven.png,images/cb_snuiven.png,1,,,,,,,,,,,,,,,,,,,,,
,,,,,00055,2023-10-13_19h44.35.969,vbt_B2_day3,2022.2.4,Win32,59.64096141,,,,,,down,0,0.4508,,,0.195370356,-0.12037037,1,0,0,0,193,193,165,1,feestdag,images/br_feestdag.png,images/cb_feestdag.png,0,,,,,,,,,,,,,,,,,,,,,
,,,,,00055,2023-10-13_19h44.35.969,vbt_B2_day3,2022.2.4,Win32,59.64096141,,,,,,down,0,3.7007,jasje,,0.196296339,-0.12037037,1,0,0,0,194,194,60,1,jasje,images/br_jasje.png,images/cb_jasje.png,1,,,,,,,,,,,,,,,,,,,,,
,,,,,00055,2023-10-13_19h44.35.969,vbt_B2_day3,2022.2.4,Win32,59.64096141,,,,,,down,0,0.8534,,,0.19722225,-0.119444459,1,0,0,0,195,195,12,1,kust,images/br_kust.png,images/cb_kust.png,0,,,,,,,,,,,,,,,,,,,,,
,,,,,00055,2023-10-13_19h44.35.969,vbt_B2_day3,2022.2.4,Win32,59.64096141,,,,,,down,0,9.6663,bijkuen,,0.020370413,-0.300000014,1,0,0,0,196,196,182,1,bijkomen,images/br_bijkomen.png,images/cb_bijkomen.png,1,,,,,,,,,,,,,,,,,,,,,
,,,,,00055,2023-10-13_19h44.35.969,vbt_B2_day3,2022.2.4,Win32,59.64096141,,,,,,down,0,7.5699,,,0.301851908,-0.040740755,1,0,0,0,197,197,164,1,anarchie,images/br_anarchie.png,images/cb_anarchie.png,0,,,,,,,,,,,,,,,,,,,,,
,,,,,00055,2023-10-13_19h44.35.969,vbt_B2_day3,2022.2.4,Win32,59.64096141,,,,,,down,0,14.7462,,,0.296296296,-0.036111125,1,0,0,0,198,198,134,1,geliefd,images/br_geliefd.png,images/cb_geliefd.png,0,,,,,,,,,,,,,,,,,,,,,
,,,,,00055,2023-10-13_19h44.35.969,vbt_B2_day3,2022.2.4,Win32,59.64096141,,,,,,down,0,6.0324,,,0.294444473,-0.036111125,1,0,0,0,199,199,89,1,slapen,images/br_slapen.png,images/cb_slapen.png,0,,,,,,,,,,,,,,,,,,,,,
,,,,,00055,2023-10-13_19h44.35.969,vbt_B2_day3,2022.2.4,Win32,59.64096141,,,,,,,,,,,,,,,,,,,,,,,,,0.231481481,-0.181481467,1,0,0,,,,,,,,,,,,,,,,
,,,,,00055,2023-10-13_19h44.35.969,vbt_B2_day3,2022.2.4,Win32,59.64096141,,,,,,,,,,,,,,,,,,,,,,,,,,,,,,0.228703746,-0.175925926,1,0,0,,,,,,,,,,,
,,,,,00055,2023-10-13_19h44.35.969,vbt_B2_day3,2022.2.4,Win32,59.64096141,,,,,,,,,knie,,,,,,,,,,,,knie,images/br_knie.png,images/cb_knie.png,,,,,,,,,,,,-0.020370342,0.062037044,1,0,0,knie,0,0,0,0,1
,,,,,00055,2023-10-13_19h44.35.969,vbt_B2_day3,2022.2.4,Win32,59.64096141,,,,,,,,,sluier,,,,,,,,,,,,sluier,images/br_sluier.png,images/cb_sluier.png,,,,,,,,,,,,-0.036111125,0.052777785,1,0,0,sluier,0,1,1,50,1
,,,,,00055,2023-10-13_19h44.35.969,vbt_B2_day3,2022.2.4,Win32,59.64096141,,,,,,,,,stoom,,,,,,,,,,,,stoom,images/br_stoom.png,images/cb_stoom.png,,,,,,,,,,,,-0.081481439,0.10833334,1,0,0,stoom,0,2,2,6,1
,,,,,00055,2023-10-13_19h44.35.969,vbt_B2_day3,2022.2.4,Win32,59.64096141,,,,,,,,,makieren,,,,,,,,,,,,makieren,images/br_makieren.png,images/cb_makieren.png,,,,,,,,,,,,0.420370455,-0.236111111,1,0,0,makieren,0,3,3,36,1
,,,,,00055,2023-10-13_19h44.35.969,vbt_B2_day3,2022.2.4,Win32,59.64096141,,,,,,,,,uviek,,,,,,,,,,,,uviek,images/br_uviek.png,images/cb_uviek.png,,,,,,,,,,,,0.420370455,-0.236111111,1,0,0,uviek,0,4,4,25,1
,,,,,00055,2023-10-13_19h44.35.969,vbt_B2_day3,2022.2.4,Win32,59.64096141,,,,,,,,,paken,,,,,,,,,,,,paken,images/br_paken.png,images/cb_paken.png,,,,,,,,,,,,0.420370455,-0.236111111,1,0,0,paken,0,5,5,27,1
,,,,,00055,2023-10-13_19h44.35.969,vbt_B2_day3,2022.2.4,Win32,59.64096141,,,,,,,,,kwaas,,,,,,,,,,,,kwaas,images/br_kwaas.png,images/cb_kwaas.png,,,,,,,,,,,,0.420370455,-0.236111111,1,0,0,kwaas,0,6,6,26,1
,,,,,00055,2023-10-13_19h44.35.969,vbt_B2_day3,2022.2.4,Win32,59.64096141,,,,,,,,,leek,,,,,,,,,,,,leek,images/br_leek.png,images/cb_leek.png,,,,,,,,,,,,0.420370455,-0.236111111,1,0,0,leek,0,7,7,2,1
,,,,,00055,2023-10-13_19h44.35.969,vbt_B2_day3,2022.2.4,Win32,59.64096141,,,,,,,,,mode,,,,,,,,,,,,mode,images/br_mode.png,images/cb_mode.png,,,,,,,,,,,,0.523148148,0.349999993,1,0,0,mode,0,8,8,3,1
,,,,,00055,2023-10-13_19h44.35.969,vbt_B2_day3,2022.2.4,Win32,59.64096141,,,,,,,,,vlager,,,,,,,,,,,,vlager,images/br_vlager.png,images/cb_vlager.png,,,,,,,,,,,,0.508333418,0.014814801,1,0,0,vlager,0,9,9,28,1
,,,,,00055,2023-10-13_19h44.35.969,vbt_B2_day3,2022.2.4,Win32,59.64096141,,,,,,,,,croo,,,,,,,,,,,,croo,images/br_croo.png,images/cb_croo.png,,,,,,,,,,,,0.508333418,0.014814801,1,0,0,croo,0,10,10,22,1
,,,,,00055,2023-10-13_19h44.35.969,vbt_B2_day3,2022.2.4,Win32,59.64096141,,,,,,,,,prlirr..,,,,,,,,,,,,prikken,images/br_prikken.png,images/cb_prikken.png,,,,,,,,,,,,0.508333418,0.014814801,1,0,0,prlirr..,0,11,11,12,1
,,,,,00055,2023-10-13_19h44.35.969,vbt_B2_day3,2022.2.4,Win32,59.64096141,,,,,,,,,brappen,,,,,,,,,,,,brappen,images/br_brappen.png,images/cb_brappen.png,,,,,,,,,,,,0.508333418,0.014814801,1,0,0,brappen,0,12,12,35,1
,,,,,00055,2023-10-13_19h44.35.969,vbt_B2_day3,2022.2.4,Win32,59.64096141,,,,,,,,,twaaf,,,,,,,,,,,,twaaf,images/br_twaaf.png,images/cb_twaaf.png,,,,,,,,,,,,0.508333418,0.014814801,1,0,0,twaaf,0,13,13,24,1
,,,,,00055,2023-10-13_19h44.35.969,vbt_B2_day3,2022.2.4,Win32,59.64096141,,,,,,,,,booien,,,,,,,,,,,,booien,images/br_booien.png,images/cb_booien.png,,,,,,,,,,,,0.508333418,0.014814801,1,0,0,booien,0,14,14,31,1
,,,,,00055,2023-10-13_19h44.35.969,vbt_B2_day3,2022.2.4,Win32,59.64096141,,,,,,,,,jongelui,,,,,,,,,,,,jongelui,images/br_jongelui.png,images/cb_jongelui.png,,,,,,,,,,,,0.508333418,0.014814801,1,0,0,jongelui,0,15,15,59,1
,,,,,00055,2023-10-13_19h44.35.969,vbt_B2_day3,2022.2.4,Win32,59.64096141,,,,,,,,,kest,,,,,,,,,,,,kest,images/br_kest.png,images/cb_kest.png,,,,,,,,,,,,0.449074074,-0.01666666,1,0,0,kest,0,16,16,21,1
,,,,,00055,2023-10-13_19h44.35.969,vbt_B2_day3,2022.2.4,Win32,59.64096141,,,,,,,,,zone,,,,,,,,,,,,zone,images/br_zone.png,images/cb_zone.png,,,,,,,,,,,,0.449074074,-0.01666666,1,0,0,zone,0,17,17,41,1
,,,,,00055,2023-10-13_19h44.35.969,vbt_B2_day3,2022.2.4,Win32,59.64096141,,,,,,,,,hier,,,,,,,,,,,,hier,images/br_hier.png,images/cb_hier.png,,,,,,,,,,,,0.449074074,-0.01666666,1,0,0,hier,0,18,18,1,1
,,,,,00055,2023-10-13_19h44.35.969,vbt_B2_day3,2022.2.4,Win32,59.64096141,,,,,,,,,samen,,,,,,,,,,,,samen,images/br_samen.png,images/cb_samen.png,,,,,,,,,,,,0.449074074,-0.01666666,1,0,0,samen,0,19,19,7,1
,,,,,00055,2023-10-13_19h44.35.969,vbt_B2_day3,2022.2.4,Win32,59.64096141,,,,,,,,,gezond,,,,,,,,,,,,gezond,images/br_gezond.png,images/cb_gezond.png,,,,,,,,,,,,0.449074074,-0.01666666,1,0,0,gezond,0,20,20,11,1
,,,,,00055,2023-10-13_19h44.35.969,vbt_B2_day3,2022.2.4,Win32,59.64096141,,,,,,,,,laken,,,,,,,,,,,,laken,images/br_laken.png,images/cb_laken.png,,,,,,,,,,,,0.449074074,-0.01666666,1,0,0,laken,0,21,21,5,1
,,,,,00055,2023-10-13_19h44.35.969,vbt_B2_day3,2022.2.4,Win32,59.64096141,,,,,,,,,invallen,,,,,,,,,,,,invallen,images/br_invallen.png,images/cb_invallen.png,,,,,,,,,,,,0.449074074,-0.01666666,1,0,0,invallen,0,22,22,57,1
,,,,,00055,2023-10-13_19h44.35.969,vbt_B2_day3,2022.2.4,Win32,59.64096141,,,,,,,,,steel,,,,,,,,,,,,steel,images/br_steel.png,images/cb_steel.png,,,,,,,,,,,,0.449074074,-0.01666666,1,0,0,steel,0,23,23,4,1
,,,,,00055,2023-10-13_19h44.35.969,vbt_B2_day3,2022.2.4,Win32,59.64096141,,,,,,,,,kaas,,,,,,,,,,,,kaas,images/br_kaas.png,images/cb_kaas.png,,,,,,,,,,,,0.449074074,-0.01666666,1,0,0,kaas,0,24,24,42,1
,,,,,00055,2023-10-13_19h44.35.969,vbt_B2_day3,2022.2.4,Win32,59.64096141,,,,,,,,,begrip,,,,,,,,,,,,begrip,images/br_begrip.png,images/cb_begrip.png,,,,,,,,,,,,0.449074074,-0.01666666,1,0,0,begrip,0,25,25,48,1
,,,,,00055,2023-10-13_19h44.35.969,vbt_B2_day3,2022.2.4,Win32,59.64096141,,,,,,,,,glijden,,,,,,,,,,,,glijden,images/br_glijden.png,images/cb_glijden.png,,,,,,,,,,,,0.449074074,-0.01666666,1,0,0,glijden,0,26,26,53,1
,,,,,00055,2023-10-13_19h44.35.969,vbt_B2_day3,2022.2.4,Win32,59.64096141,,,,,,,,,leugeren,,,,,,,,,,,,leugeren,images/br_leugeren.png,images/cb_leugeren.png,,,,,,,,,,,,0.449074074,-0.01666666,1,0,0,leugeren,0,27,27,37,1
,,,,,00055,2023-10-13_19h44.35.969,vbt_B2_day3,2022.2.4,Win32,59.64096141,,,,,,,,,geluid,,,,,,,,,,,,geluid,images/br_geluid.png,images/cb_geluid.png,,,,,,,,,,,,0.449074074,-0.01666666,1,0,0,geluid,0,28,28,10,1
,,,,,00055,2023-10-13_19h44.35.969,vbt_B2_day3,2022.2.4,Win32,59.64096141,,,,,,,,,beslag,,,,,,,,,,,,beslag,images/br_beslag.png,images/cb_beslag.png,,,,,,,,,,,,0.449074074,-0.01666666,1,0,0,beslag,0,29,29,51,1
,,,,,00055,2023-10-13_19h44.35.969,vbt_B2_day3,2022.2.4,Win32,59.64096141,,,,,,,,,alsof,,,,,,,,,,,,alsof,images/br_alsof.png,images/cb_alsof.png,,,,,,,,,,,,0.449074074,-0.01666666,1,0,0,alsof,0,30,30,44,1
,,,,,00055,2023-10-13_19h44.35.969,vbt_B2_day3,2022.2.4,Win32,59.64096141,,,,,,,,,verraden,,,,,,,,,,,,verraden,images/br_verraden.png,images/cb_verraden.png,,,,,,,,,,,,0.449074074,-0.01666666,1,0,0,verraden,0,31,31,58,1
,,,,,00055,2023-10-13_19h44.35.969,vbt_B2_day3,2022.2.4,Win32,59.64096141,,,,,,,,,sultan,,,,,,,,,,,,sultan,images/br_sultan.png,images/cb_sultan.png,,,,,,,,,,,,0.449074074,-0.01666666,1,0,0,sultan,0,32,32,49,1
,,,,,00055,2023-10-13_19h44.35.969,vbt_B2_day3,2022.2.4,Win32,59.64096141,,,,,,,,,stikken,,,,,,,,,,,,stikken,images/br_stikken.png,images/cb_stikken.png,,,,,,,,,,,,0.449074074,-0.01666666,1,0,0,stikken,0,33,33,54,1
,,,,,00055,2023-10-13_19h44.35.969,vbt_B2_day3,2022.2.4,Win32,59.64096141,,,,,,,,,stallen,,,,,,,,,,,,stallen,images/br_stallen.png,images/cb_stallen.png,,,,,,,,,,,,0.450000057,-0.017592607,1,0,0,stallen,0,34,34,52,1
,,,,,00055,2023-10-13_19h44.35.969,vbt_B2_day3,2022.2.4,Win32,59.64096141,,,,,,,,,gebod,,,,,,,,,,,,gebod,images/br_gebod.png,images/cb_gebod.png,,,,,,,,,,,,0.450000057,-0.017592607,1,0,0,gebod,0,35,35,45,1
,,,,,00055,2023-10-13_19h44.35.969,vbt_B2_day3,2022.2.4,Win32,59.64096141,,,,,,,,,keihard,,,,,,,,,,,,keihard,images/br_keihard.png,images/cb_keihard.png,,,,,,,,,,,,0.450000057,-0.017592607,1,0,0,keihard,0,36,36,14,1
,,,,,00055,2023-10-13_19h44.35.969,vbt_B2_day3,2022.2.4,Win32,59.64096141,,,,,,,,,slapen,,,,,,,,,,,,slapen,images/br_slapen.png,images/cb_slapen.png,,,,,,,,,,,,0.450000057,-0.017592607,1,0,0,slapen,0,37,37,9,1
,,,,,00055,2023-10-13_19h44.35.969,vbt_B2_day3,2022.2.4,Win32,59.64096141,,,,,,,,,afbop..,,,,,,,,,,,,afbopen,images/br_afbopen.png,images/cb_afbopen.png,,,,,,,,,,,,0.450000057,-0.017592607,1,0,0,afbop..,0,38,38,34,1
,,,,,00055,2023-10-13_19h44.35.969,vbt_B2_day3,2022.2.4,Win32,59.64096141,,,,,,,,,theeti..,,,,,,,,,,,,theeting,images/br_theeting.png,images/cb_theeting.png,,,,,,,,,,,,0.450000057,-0.017592607,1,0,0,theeti..,0,39,39,38,1
,,,,,00055,2023-10-13_19h44.35.969,vbt_B2_day3,2022.2.4,Win32,59.64096141,,,,,,,,,opzich,,,,,,,,,,,,opzicht,images/br_opzicht.png,images/cb_opzicht.png,,,,,,,,,,,,0.450000057,-0.017592607,1,0,0,opzich,0,40,40,15,1
,,,,,00055,2023-10-13_19h44.35.969,vbt_B2_day3,2022.2.4,Win32,59.64096141,,,,,,,,,onrecht,,,,,,,,,,,,onrecht,images/br_onrecht.png,images/cb_onrecht.png,,,,,,,,,,,,0.450000057,-0.017592607,1,0,0,onrecht,0,41,41,55,1
,,,,,00055,2023-10-13_19h44.35.969,vbt_B2_day3,2022.2.4,Win32,59.64096141,,,,,,,,,aarzelen,,,,,,,,,,,,aarzelen,images/br_aarzelen.png,images/cb_aarzelen.png,,,,,,,,,,,,0.70185188,0.14444443,1,0,0,aarzelen,0,42,42,19,1
,,,,,00055,2023-10-13_19h44.35.969,vbt_B2_day3,2022.2.4,Win32,59.64096141,,,,,,,,,bisschop,,,,,,,,,,,,bisschop,images/br_bisschop.png,images/cb_bisschop.png,,,,,,,,,,,,0.702777863,0.14444443,1,0,0,bisschop,0,43,43,16,1
,,,,,00055,2023-10-13_19h44.35.969,vbt_B2_day3,2022.2.4,Win32,59.64096141,,,,,,,,,vint,,,,,,,,,,,,hint,images/br_hint.png,images/cb_hint.png,,,,,,,,,,,,0.702777863,0.14444443,1,0,0,vint,0,44,44,43,1
,,,,,00055,2023-10-13_19h44.35.969,vbt_B2_day3,2022.2.4,Win32,59.64096141,,,,,,,,,mugeek,,,,,,,,,,,,mugeek,images/br_mugeek.png,images/cb_mugeek.png,,,,,,,,,,,,0.714814787,0.150000007,1,0,0,mugeek,0,45,45,29,1
,,,,,00055,2023-10-13_19h44.35.969,vbt_B2_day3,2022.2.4,Win32,59.64096141,,,,,,,,,ovzetten,,,,,,,,,,,,opzetten,images/br_opzetten.png,images/cb_opzetten.png,,,,,,,,,,,,0.700925898,0.146296289,1,0,0,ovzetten,0,46,46,56,1
,,,,,00055,2023-10-13_19h44.35.969,vbt_B2_day3,2022.2.4,Win32,59.64096141,,,,,,,,,gout,,,,,,,,,,,,gout,images/br_gout.png,images/cb_gout.png,,,,,,,,,,,,0.700925898,0.146296289,1,0,0,gout,0,47,47,20,1
,,,,,00055,2023-10-13_19h44.35.969,vbt_B2_day3,2022.2.4,Win32,59.64096141,,,,,,,,,boeien,,,,,,,,,,,,boeien,images/br_boeien.png,images/cb_boeien.png,,,,,,,,,,,,0.700925898,0.146296289,1,0,0,boeien,0,48,48,8,1
,,,,,00055,2023-10-13_19h44.35.969,vbt_B2_day3,2022.2.4,Win32,59.64096141,,,,,,,,,uniek,,,,,,,,,,,,uniek,images/br_uniek.png,images/cb_uniek.png,,,,,,,,,,,,0.700925898,0.146296289,1,0,0,uniek,0,49,49,46,1
,,,,,00055,2023-10-13_19h44.35.969,vbt_B2_day3,2022.2.4,Win32,59.64096141,,,,,,,,,schatten,,,,,,,,,,,,schatten,images/br_schatten.png,images/cb_schatten.png,,,,,,,,,,,,0.686111168,0.138888889,1,0,0,schatten,0,50,50,18,1
,,,,,00055,2023-10-13_19h44.35.969,vbt_B2_day3,2022.2.4,Win32,59.64096141,,,,,,,,,hust,,,,,,,,,,,,hust,images/br_hust.png,images/cb_hust.png,,,,,,,,,,,,0.537963019,-0.01666666,1,0,0,hust,0,51,51,23,1
,,,,,00055,2023-10-13_19h44.35.969,vbt_B2_day3,2022.2.4,Win32,59.64096141,,,,,,,,,verwoor,,,,,,,,,,,,verwoor,images/br_verwoor.png,images/cb_verwoor.png,,,,,,,,,,,,0.350000028,0.038888896,1,0,0,verwoor,0,52,52,32,1
,,,,,00055,2023-10-13_19h44.35.969,vbt_B2_day3,2022.2.4,Win32,59.64096141,,,,,,,,,dwang,,,,,,,,,,,,dwang,images/br_dwang.png,images/cb_dwang.png,,,,,,,,,,,,0.350000028,0.038888896,1,0,0,dwang,0,53,53,47,1
,,,,,00055,2023-10-13_19h44.35.969,vbt_B2_day3,2022.2.4,Win32,59.64096141,,,,,,,,,schodel,,,,,,,,,,,,schodel,images/br_schodel.png,images/cb_schodel.png,,,,,,,,,,,,0.350000028,0.038888896,1,0,0,schodel,0,54,54,33,1
,,,,,00055,2023-10-13_19h44.35.969,vbt_B2_day3,2022.2.4,Win32,59.64096141,,,,,,,,,leemawen,,,,,,,,,,,,leemaken,images/br_leemaken.png,images/cb_leemaken.png,,,,,,,,,,,,0.354629658,0.03611109,1,0,0,leemawen,0,55,55,39,1
,,,,,00055,2023-10-13_19h44.35.969,vbt_B2_day3,2022.2.4,Win32,59.64096141,,,,,,,,,verhaal,,,,,,,,,,,,verhaal,images/br_verhaal.png,images/cb_verhaal.png,,,,,,,,,,,,0.312037009,0.046296296,1,0,0,verhaal,0,56,56,13,1
,,,,,00055,2023-10-13_19h44.35.969,vbt_B2_day3,2022.2.4,Win32,59.64096141,,,,,,,,,eens,,,,,,,,,,,,eens,images/br_eens.png,images/cb_eens.png,,,,,,,,,,,,0.372222194,0.014814801,1,0,0,eens,0,57,57,40,1
,,,,,00055,2023-10-13_19h44.35.969,vbt_B2_day3,2022.2.4,Win32,59.64096141,,,,,,,,,bevret,,,,,,,,,,,,bevret,images/br_bevret.png,images/cb_bevret.png,,,,,,,,,,,,0.367592564,0.015740748,1,0,0,bevret,0,58,58,30,1
,,,,,00055,2023-10-13_19h44.35.969,vbt_B2_day3,2022.2.4,Win32,59.64096141,,,,,,,,,oprotten,,,,,,,,,,,,oprotten,images/br_oprotten.png,images/cb_oprotten.png,,,,,,,,,,,,0.367592564,0.015740748,1,0,0,oprotten,0,59,59,17,1
,,,,,00055,2023-10-13_19h44.35.969,vbt_B2_day3,2022.2.4,Win32,59.64096141,,,,,,,,,,,,,,,,,,,,,,,,,,,,,,,,,,,,,,,,,,,,,
