welcome_mouse.x,welcome_mouse.y,welcome_mouse.leftButton,welcome_mouse.midButton,welcome_mouse.rightButton,"ID",date,expName,psychopyVersion,OS,frameRate,trainInstr_mouse.x,trainInstr_mouse.y,trainInstr_mouse.leftButton,trainInstr_mouse.midButton,trainInstr_mouse.rightButton,translation_key.keys,translation_key.corr,translation_key.rt,word_rsp.text,trWrd_mouse.x,trWrd_mouse.y,trWrd_mouse.leftButton,trWrd_mouse.midButton,trWrd_mouse.rightButton,train_loop.thisRepN,train_loop.thisTrialN,train_loop.thisN,train_loop.thisIndex,train_loop.ran,nlWrd,brWrd,cbWrd,test,testResp,mouse.x,mouse.y,mouse.leftButton,mouse.midButton,mouse.rightButton,testInstr_mouse.x,testInstr_mouse.y,testInstr_mouse.leftButton,testInstr_mouse.midButton,testInstr_mouse.rightButton,test_mouse.x,test_mouse.y,test_mouse.leftButton,test_mouse.midButton,test_mouse.rightButton,test_response.text,test_loop.thisRepN,test_loop.thisTrialN,test_loop.thisN,test_loop.thisIndex,test_loop.ran
0.432291667,-0.153645833,1,0,0,00054,2023-10-11_18h23.30.533,vbt_B2_day3,2022.2.4,Win32,60.34638827,,,,,,,,,,,,,,,,,,,,,,,,,,,,,,,,,,,,,,,,,,,,,
,,,,,00054,2023-10-11_18h23.30.533,vbt_B2_day3,2022.2.4,Win32,60.34638827,0.526041667,-0.109375,1,0,0,,,,,,,,,,,,,,,,,,,,,,,,,,,,,,,,,,,,,,,,
,,,,,00054,2023-10-11_18h23.30.533,vbt_B2_day3,2022.2.4,Win32,60.34638827,,,,,,down,0,2.2379,,0.1875,-0.00390625,1,0,0,0,0,0,42,1,bleek,images/br_bleek.png,images/cb_bleek.png,0,,,,,,,,,,,,,,,,,,,,,,
,,,,,00054,2023-10-11_18h23.30.533,vbt_B2_day3,2022.2.4,Win32,60.34638827,,,,,,down,0,4.7586,,0.229166667,0.0078125,1,0,0,0,1,1,154,1,aflopen,images/br_aflopen.png,images/cb_aflopen.png,0,,,,,,,,,,,,,,,,,,,,,,
,,,,,00054,2023-10-11_18h23.30.533,vbt_B2_day3,2022.2.4,Win32,60.34638827,,,,,,down,0,4.9597,,0.096354167,0.010416667,1,0,0,0,2,2,24,1,jurk,images/br_jurk.png,images/cb_jurk.png,0,,,,,,,,,,,,,,,,,,,,,,
,,,,,00054,2023-10-11_18h23.30.533,vbt_B2_day3,2022.2.4,Win32,60.34638827,,,,,,down,0,8.2238,,0.200520833,-0.005208333,1,0,0,0,3,3,196,1,nakijken,images/br_nakijken.png,images/cb_nakijken.png,0,,,,,,,,,,,,,,,,,,,,,,
,,,,,00054,2023-10-11_18h23.30.533,vbt_B2_day3,2022.2.4,Win32,60.34638827,,,,,,down,0,3.6975,,0.07421875,0.03515625,1,0,0,0,4,4,117,1,kennis,images/br_kennis.png,images/cb_kennis.png,0,,,,,,,,,,,,,,,,,,,,,,
,,,,,00054,2023-10-11_18h23.30.533,vbt_B2_day3,2022.2.4,Win32,60.34638827,,,,,,down,0,11.043,,0.2265625,0.013020833,1,0,0,0,5,5,143,1,hechten,images/br_hechten.png,images/cb_hechten.png,1,hechten,,,,,,,,,,,,,,,,,,,,,
,,,,,00054,2023-10-11_18h23.30.533,vbt_B2_day3,2022.2.4,Win32,60.34638827,,,,,,down,0,3.4781,,0.1796875,-0.010416667,1,0,0,0,6,6,71,1,bever,images/br_bever.png,images/cb_bever.png,0,,,,,,,,,,,,,,,,,,,,,,
,,,,,00054,2023-10-11_18h23.30.533,vbt_B2_day3,2022.2.4,Win32,60.34638827,,,,,,down,0,2.5738,,0.057291667,0.022135417,1,0,0,0,7,7,151,1,aanzoek,images/br_aanzoek.png,images/cb_aanzoek.png,0,,,,,,,,,,,,,,,,,,,,,,
,,,,,00054,2023-10-11_18h23.30.533,vbt_B2_day3,2022.2.4,Win32,60.34638827,,,,,,down,0,0.6899,,0.0078125,0.022135417,1,0,0,0,8,8,29,1,baas,images/br_baas.png,images/cb_baas.png,0,,,,,,,,,,,,,,,,,,,,,,
,,,,,00054,2023-10-11_18h23.30.533,vbt_B2_day3,2022.2.4,Win32,60.34638827,,,,,,down,0,5.83,,-0.013020833,0.005208333,1,0,0,0,9,9,184,1,aandelen,images/br_aandelen.png,images/cb_aandelen.png,0,,,,,,,,,,,,,,,,,,,,,,
,,,,,00054,2023-10-11_18h23.30.533,vbt_B2_day3,2022.2.4,Win32,60.34638827,,,,,,down,0,1.6031,,0.033854167,0.014322917,1,0,0,0,10,10,74,1,graaf,images/br_graaf.png,images/cb_graaf.png,0,,,,,,,,,,,,,,,,,,,,,,
,,,,,00054,2023-10-11_18h23.30.533,vbt_B2_day3,2022.2.4,Win32,60.34638827,,,,,,down,0,4.4944,,0.209635417,0.02734375,1,0,0,0,11,11,122,1,waarvan,images/br_waarvan.png,images/cb_waarvan.png,0,,,,,,,,,,,,,,,,,,,,,,
,,,,,00054,2023-10-11_18h23.30.533,vbt_B2_day3,2022.2.4,Win32,60.34638827,,,,,,down,0,0.8864,,0.087239583,0.033854167,1,0,0,0,12,12,36,1,vuur,images/br_vuur.png,images/cb_vuur.png,0,,,,,,,,,,,,,,,,,,,,,,
,,,,,00054,2023-10-11_18h23.30.533,vbt_B2_day3,2022.2.4,Win32,60.34638827,,,,,,down,0,1.9256,,-0.024739583,-0.001302083,1,0,0,0,13,13,19,1,geit,images/br_geit.png,images/cb_geit.png,0,,,,,,,,,,,,,,,,,,,,,,
,,,,,00054,2023-10-11_18h23.30.533,vbt_B2_day3,2022.2.4,Win32,60.34638827,,,,,,down,0,2.7066,,0.1953125,0.024739583,1,0,0,0,14,14,11,1,mode,images/br_mode.png,images/cb_mode.png,0,,,,,,,,,,,,,,,,,,,,,,
,,,,,00054,2023-10-11_18h23.30.533,vbt_B2_day3,2022.2.4,Win32,60.34638827,,,,,,down,0,0.8996,,0.095052083,0.026041667,1,0,0,0,15,15,32,1,palm,images/br_palm.png,images/cb_palm.png,0,,,,,,,,,,,,,,,,,,,,,,
,,,,,00054,2023-10-11_18h23.30.533,vbt_B2_day3,2022.2.4,Win32,60.34638827,,,,,,down,0,0.4505,,0.130208333,0.0234375,1,0,0,0,16,16,13,1,kaal,images/br_kaal.png,images/cb_kaal.png,0,,,,,,,,,,,,,,,,,,,,,,
,,,,,00054,2023-10-11_18h23.30.533,vbt_B2_day3,2022.2.4,Win32,60.34638827,,,,,,down,0,2.8671,,0.147135417,0.041666667,1,0,0,0,17,17,7,1,geld,images/br_geld.png,images/cb_geld.png,0,,,,,,,,,,,,,,,,,,,,,,
,,,,,00054,2023-10-11_18h23.30.533,vbt_B2_day3,2022.2.4,Win32,60.34638827,,,,,,down,0,0.9285,,0.139322917,0.03515625,1,0,0,0,18,18,76,1,afval,images/br_afval.png,images/cb_afval.png,0,,,,,,,,,,,,,,,,,,,,,,
,,,,,00054,2023-10-11_18h23.30.533,vbt_B2_day3,2022.2.4,Win32,60.34638827,,,,,,down,0,0.4541,,0.049479167,0.026041667,1,0,0,0,19,19,66,1,lever,images/br_lever.png,images/cb_lever.png,0,,,,,,,,,,,,,,,,,,,,,,
,,,,,00054,2023-10-11_18h23.30.533,vbt_B2_day3,2022.2.4,Win32,60.34638827,,,,,,down,0,11.5446,,0.1875,0.024739583,1,0,0,0,20,20,168,1,bisschop,images/br_bisschop.png,images/cb_bisschop.png,0,,,,,,,,,,,,,,,,,,,,,,
,,,,,00054,2023-10-11_18h23.30.533,vbt_B2_day3,2022.2.4,Win32,60.34638827,,,,,,down,0,1.226,,0.135416667,0.03515625,1,0,0,0,21,21,50,1,stoom,images/br_stoom.png,images/cb_stoom.png,0,,,,,,,,,,,,,,,,,,,,,,
,,,,,00054,2023-10-11_18h23.30.533,vbt_B2_day3,2022.2.4,Win32,60.34638827,,,,,,down,0,1.5245,,0.005208333,0.015625,1,0,0,0,22,22,27,1,dans,images/br_dans.png,images/cb_dans.png,0,,,,,,,,,,,,,,,,,,,,,,
,,,,,00054,2023-10-11_18h23.30.533,vbt_B2_day3,2022.2.4,Win32,60.34638827,,,,,,down,0,6.0532,,-0.0234375,0.005208333,1,0,0,0,23,23,53,1,baron,images/br_baron.png,images/cb_baron.png,0,,,,,,,,,,,,,,,,,,,,,,
,,,,,00054,2023-10-11_18h23.30.533,vbt_B2_day3,2022.2.4,Win32,60.34638827,,,,,,down,0,9.5739,,0.31640625,0.053385417,1,0,0,0,24,24,130,1,keihard,images/br_keihard.png,images/cb_keihard.png,0,,,,,,,,,,,,,,,,,,,,,,
,,,,,00054,2023-10-11_18h23.30.533,vbt_B2_day3,2022.2.4,Win32,60.34638827,,,,,,down,0,1.5151,,-0.055989583,0.01953125,1,0,0,0,25,25,158,1,innemen,images/br_innemen.png,images/cb_innemen.png,0,,,,,,,,,,,,,,,,,,,,,,
,,,,,00054,2023-10-11_18h23.30.533,vbt_B2_day3,2022.2.4,Win32,60.34638827,,,,,,down,0,0.8322,,0.036458333,0.032552083,1,0,0,0,26,26,4,1,moes,images/br_moes.png,images/cb_moes.png,0,,,,,,,,,,,,,,,,,,,,,,
,,,,,00054,2023-10-11_18h23.30.533,vbt_B2_day3,2022.2.4,Win32,60.34638827,,,,,,down,0,4.9755,,-0.013020833,-0.015625,1,0,0,0,27,27,102,1,legaal,images/br_legaal.png,images/cb_legaal.png,1,legaal,,,,,,,,,,,,,,,,,,,,,
,,,,,00054,2023-10-11_18h23.30.533,vbt_B2_day3,2022.2.4,Win32,60.34638827,,,,,,down,0,5.0867,,0.14453125,-0.009114583,1,0,0,0,28,28,116,1,besmet,images/br_besmet.png,images/cb_besmet.png,0,,,,,,,,,,,,,,,,,,,,,,
,,,,,00054,2023-10-11_18h23.30.533,vbt_B2_day3,2022.2.4,Win32,60.34638827,,,,,,down,0,0.7142,,-0.014322917,-0.014322917,1,0,0,0,29,29,41,1,maken,images/br_maken.png,images/cb_maken.png,0,,,,,,,,,,,,,,,,,,,,,,
,,,,,00054,2023-10-11_18h23.30.533,vbt_B2_day3,2022.2.4,Win32,60.34638827,,,,,,down,0,3.3225,,0.092447917,-0.022135417,1,0,0,0,30,30,104,1,zweven,images/br_zweven.png,images/cb_zweven.png,0,,,,,,,,,,,,,,,,,,,,,,
,,,,,00054,2023-10-11_18h23.30.533,vbt_B2_day3,2022.2.4,Win32,60.34638827,,,,,,down,0,9.7044,,0.026041667,0.015625,1,0,0,0,31,31,141,1,knielen,images/br_knielen.png,images/cb_knielen.png,1,knielen,,,,,,,,,,,,,,,,,,,,,
,,,,,00054,2023-10-11_18h23.30.533,vbt_B2_day3,2022.2.4,Win32,60.34638827,,,,,,down,0,3.8224,,0.139322917,-0.015625,1,0,0,0,32,32,45,1,piste,images/br_piste.png,images/cb_piste.png,0,,,,,,,,,,,,,,,,,,,,,,
,,,,,00054,2023-10-11_18h23.30.533,vbt_B2_day3,2022.2.4,Win32,60.34638827,,,,,,down,0,1.978,,0.015625,-0.001302083,1,0,0,0,33,33,25,1,plek,images/br_plek.png,images/cb_plek.png,0,,,,,,,,,,,,,,,,,,,,,,
,,,,,00054,2023-10-11_18h23.30.533,vbt_B2_day3,2022.2.4,Win32,60.34638827,,,,,,down,0,3.8474,,0.192708333,0.015625,1,0,0,0,34,34,119,1,liefje,images/br_liefje.png,images/cb_liefje.png,0,,,,,,,,,,,,,,,,,,,,,,
,,,,,00054,2023-10-11_18h23.30.533,vbt_B2_day3,2022.2.4,Win32,60.34638827,,,,,,down,0,2.6238,,0.161458333,-0.03125,1,0,0,0,35,35,114,1,vullen,images/br_vullen.png,images/cb_vullen.png,0,,,,,,,,,,,,,,,,,,,,,,
,,,,,00054,2023-10-11_18h23.30.533,vbt_B2_day3,2022.2.4,Win32,60.34638827,,,,,,down,0,42.7927,,0.169270833,0.006510417,1,0,0,0,36,36,131,1,opzicht,images/br_opzicht.png,images/cb_opzicht.png,0,,,,,,,,,,,,,,,,,,,,,,
,,,,,00054,2023-10-11_18h23.30.533,vbt_B2_day3,2022.2.4,Win32,60.34638827,,,,,,down,0,11.1828,,0.071614583,0.022135417,1,0,0,0,37,37,14,1,rijp,images/br_rijp.png,images/cb_rijp.png,0,,,,,,,,,,,,,,,,,,,,,,
,,,,,00054,2023-10-11_18h23.30.533,vbt_B2_day3,2022.2.4,Win32,60.34638827,,,,,,down,0,2.7393,,0.05859375,-0.015625,1,0,0,0,38,38,110,1,zuster,images/br_zuster.png,images/cb_zuster.png,0,,,,,,,,,,,,,,,,,,,,,,
,,,,,00054,2023-10-11_18h23.30.533,vbt_B2_day3,2022.2.4,Win32,60.34638827,,,,,,down,0,2.026,,0.102864583,-0.006510417,1,0,0,0,39,39,43,1,klauw,images/br_klauw.png,images/cb_klauw.png,0,,,,,,,,,,,,,,,,,,,,,,
,,,,,00054,2023-10-11_18h23.30.533,vbt_B2_day3,2022.2.4,Win32,60.34638827,,,,,,down,0,3.4254,,0.061197917,0.041666667,1,0,0,0,40,40,194,1,driemaal,images/br_driemaal.png,images/cb_driemaal.png,0,,,,,,,,,,,,,,,,,,,,,,
,,,,,00054,2023-10-11_18h23.30.533,vbt_B2_day3,2022.2.4,Win32,60.34638827,,,,,,down,0,4.4352,,-0.03515625,0.03515625,1,0,0,0,41,41,198,1,bedoelen,images/br_bedoelen.png,images/cb_bedoelen.png,0,,,,,,,,,,,,,,,,,,,,,,
,,,,,00054,2023-10-11_18h23.30.533,vbt_B2_day3,2022.2.4,Win32,60.34638827,,,,,,down,0,1.8957,,-0.032552083,0.09765625,1,0,0,0,42,42,98,1,kreeft,images/br_kreeft.png,images/cb_kreeft.png,0,,,,,,,,,,,,,,,,,,,,,,
,,,,,00054,2023-10-11_18h23.30.533,vbt_B2_day3,2022.2.4,Win32,60.34638827,,,,,,down,0,2.2786,,-0.184895833,0.09765625,1,0,0,0,43,43,144,1,eetlust,images/br_eetlust.png,images/cb_eetlust.png,0,,,,,,,,,,,,,,,,,,,,,,
,,,,,00054,2023-10-11_18h23.30.533,vbt_B2_day3,2022.2.4,Win32,60.34638827,,,,,,down,0,6.3502,,-0.106770833,0.108072917,1,0,0,0,44,44,23,1,zout,images/br_zout.png,images/cb_zout.png,1,zout,,,,,,,,,,,,,,,,,,,,,
,,,,,00054,2023-10-11_18h23.30.533,vbt_B2_day3,2022.2.4,Win32,60.34638827,,,,,,down,0,4.4135,,0.108072917,0.01953125,1,0,0,0,45,45,146,1,opkomen,images/br_opkomen.png,images/cb_opkomen.png,0,,,,,,,,,,,,,,,,,,,,,,
,,,,,00054,2023-10-11_18h23.30.533,vbt_B2_day3,2022.2.4,Win32,60.34638827,,,,,,down,0,6.7396,,0.0703125,-0.016927083,1,0,0,0,46,46,40,1,schep,images/br_schep.png,images/cb_schep.png,0,,,,,,,,,,,,,,,,,,,,,,
,,,,,00054,2023-10-11_18h23.30.533,vbt_B2_day3,2022.2.4,Win32,60.34638827,,,,,,down,0,4.1701,,-0.055989583,0.03125,1,0,0,0,47,47,61,1,groen,images/br_groen.png,images/cb_groen.png,1,,,,,,,,,,,,,,,,,,,,,,
,,,,,00054,2023-10-11_18h23.30.533,vbt_B2_day3,2022.2.4,Win32,60.34638827,,,,,,down,0,4.8777,,0.079427083,-0.00390625,1,0,0,0,48,48,48,1,steel,images/br_steel.png,images/cb_steel.png,0,,,,,,,,,,,,,,,,,,,,,,
,,,,,00054,2023-10-11_18h23.30.533,vbt_B2_day3,2022.2.4,Win32,60.34638827,,,,,,down,0,2.1121,,0.057291667,0.01171875,1,0,0,0,49,49,127,1,doodmoe,images/br_doodmoe.png,images/cb_doodmoe.png,0,,,,,,,,,,,,,,,,,,,,,,
,,,,,00054,2023-10-11_18h23.30.533,vbt_B2_day3,2022.2.4,Win32,60.34638827,,,,,,down,0,1.8125,,-0.020833333,0.013020833,1,0,0,0,50,50,174,1,stemming,images/br_stemming.png,images/cb_stemming.png,0,,,,,,,,,,,,,,,,,,,,,,
,,,,,00054,2023-10-11_18h23.30.533,vbt_B2_day3,2022.2.4,Win32,60.34638827,,,,,,down,0,5.8262,,-0.138020833,0.018229167,1,0,0,0,51,51,105,1,wijlen,images/br_wijlen.png,images/cb_wijlen.png,0,,,,,,,,,,,,,,,,,,,,,,
,,,,,00054,2023-10-11_18h23.30.533,vbt_B2_day3,2022.2.4,Win32,60.34638827,,,,,,down,0,0.3503,,-0.078125,0.018229167,1,0,0,0,52,52,35,1,lust,images/br_lust.png,images/cb_lust.png,0,,,,,,,,,,,,,,,,,,,,,,
,,,,,00054,2023-10-11_18h23.30.533,vbt_B2_day3,2022.2.4,Win32,60.34638827,,,,,,down,0,0.9292,,-0.235677083,-0.014322917,1,0,0,0,53,53,17,1,taal,images/br_taal.png,images/cb_taal.png,0,,,,,,,,,,,,,,,,,,,,,,
,,,,,00054,2023-10-11_18h23.30.533,vbt_B2_day3,2022.2.4,Win32,60.34638827,,,,,,down,0,2.0145,,-0.123697917,0.0078125,1,0,0,0,54,54,75,1,snoep,images/br_snoep.png,images/cb_snoep.png,0,,,,,,,,,,,,,,,,,,,,,,
,,,,,00054,2023-10-11_18h23.30.533,vbt_B2_day3,2022.2.4,Win32,60.34638827,,,,,,down,0,9.5706,,0.05078125,-0.026041667,1,0,0,0,55,55,108,1,excuus,images/br_excuus.png,images/cb_excuus.png,0,,,,,,,,,,,,,,,,,,,,,,
,,,,,00054,2023-10-11_18h23.30.533,vbt_B2_day3,2022.2.4,Win32,60.34638827,,,,,,down,0,2.0646,,0.029947917,-0.001302083,1,0,0,0,56,56,6,1,diep,images/br_diep.png,images/cb_diep.png,0,,,,,,,,,,,,,,,,,,,,,,
,,,,,00054,2023-10-11_18h23.30.533,vbt_B2_day3,2022.2.4,Win32,60.34638827,,,,,,down,0,1.96,,0.635416667,0.079427083,1,0,0,0,57,57,21,1,mist,images/br_mist.png,images/cb_mist.png,1,mist,,,,,,,,,,,,,,,,,,,,,
,,,,,00054,2023-10-11_18h23.30.533,vbt_B2_day3,2022.2.4,Win32,60.34638827,,,,,,down,0,6.667,,0.3046875,-0.029947917,1,0,0,0,58,58,173,1,apparaat,images/br_apparaat.png,images/cb_apparaat.png,0,,,,,,,,,,,,,,,,,,,,,,
,,,,,00054,2023-10-11_18h23.30.533,vbt_B2_day3,2022.2.4,Win32,60.34638827,,,,,,down,0,11.8397,,0.231770833,0.033854167,1,0,0,0,59,59,58,1,tekst,images/br_tekst.png,images/cb_tekst.png,0,,,,,,,,,,,,,,,,,,,,,,
,,,,,00054,2023-10-11_18h23.30.533,vbt_B2_day3,2022.2.4,Win32,60.34638827,,,,,,down,0,4.7503,,0.260416667,0.059895833,1,0,0,0,60,60,192,1,schaamte,images/br_schaamte.png,images/cb_schaamte.png,0,,,,,,,,,,,,,,,,,,,,,,
,,,,,00054,2023-10-11_18h23.30.533,vbt_B2_day3,2022.2.4,Win32,60.34638827,,,,,,down,0,2.3114,,0.071614583,-0.014322917,1,0,0,0,61,61,106,1,zingen,images/br_zingen.png,images/cb_zingen.png,0,,,,,,,,,,,,,,,,,,,,,,
,,,,,00054,2023-10-11_18h23.30.533,vbt_B2_day3,2022.2.4,Win32,60.34638827,,,,,,down,0,1.8962,,-0.044270833,-0.01171875,1,0,0,0,62,62,97,1,loyaal,images/br_loyaal.png,images/cb_loyaal.png,0,,,,,,,,,,,,,,,,,,,,,,
,,,,,00054,2023-10-11_18h23.30.533,vbt_B2_day3,2022.2.4,Win32,60.34638827,,,,,,down,0,17.01,,0.022135417,0.04296875,1,0,0,0,63,63,63,1,flirt,images/br_flirt.png,images/cb_flirt.png,1,flirt,,,,,,,,,,,,,,,,,,,,,
,,,,,00054,2023-10-11_18h23.30.533,vbt_B2_day3,2022.2.4,Win32,60.34638827,,,,,,down,0,4.6573,,0.067708333,0.010416667,1,0,0,0,64,64,133,1,seizoen,images/br_seizoen.png,images/cb_seizoen.png,0,,,,,,,,,,,,,,,,,,,,,,
,,,,,00054,2023-10-11_18h23.30.533,vbt_B2_day3,2022.2.4,Win32,60.34638827,,,,,,down,0,3.2903,,0.010416667,-0.010416667,1,0,0,0,65,65,139,1,stiekem,images/br_stiekem.png,images/cb_stiekem.png,0,,,,,,,,,,,,,,,,,,,,,,
,,,,,00054,2023-10-11_18h23.30.533,vbt_B2_day3,2022.2.4,Win32,60.34638827,,,,,,down,0,3.5669,,0.022135417,0.014322917,1,0,0,0,66,66,78,1,leren,images/br_leren.png,images/cb_leren.png,0,,,,,,,,,,,,,,,,,,,,,,
,,,,,00054,2023-10-11_18h23.30.533,vbt_B2_day3,2022.2.4,Win32,60.34638827,,,,,,down,0,5.6938,,0.114583333,0.005208333,1,0,0,0,67,67,163,1,schuilen,images/br_schuilen.png,images/cb_schuilen.png,0,,,,,,,,,,,,,,,,,,,,,,
,,,,,00054,2023-10-11_18h23.30.533,vbt_B2_day3,2022.2.4,Win32,60.34638827,,,,,,down,0,4.9267,,0.057291667,0.006510417,1,0,0,0,68,68,136,1,waarbij,images/br_waarbij.png,images/cb_waarbij.png,0,,,,,,,,,,,,,,,,,,,,,,
,,,,,00054,2023-10-11_18h23.30.533,vbt_B2_day3,2022.2.4,Win32,60.34638827,,,,,,down,0,3.0256,,0.067708333,0.048177083,1,0,0,0,69,69,26,1,leuk,images/br_leuk.png,images/cb_leuk.png,0,,,,,,,,,,,,,,,,,,,,,,
,,,,,00054,2023-10-11_18h23.30.533,vbt_B2_day3,2022.2.4,Win32,60.34638827,,,,,,down,0,1.5272,,0.001302083,0.009114583,1,0,0,0,70,70,96,1,slagen,images/br_slagen.png,images/cb_slagen.png,0,,,,,,,,,,,,,,,,,,,,,,
,,,,,00054,2023-10-11_18h23.30.533,vbt_B2_day3,2022.2.4,Win32,60.34638827,,,,,,down,0,4.6721,,0.010416667,0.0078125,1,0,0,0,71,71,20,1,site,images/br_site.png,images/cb_site.png,1,site,,,,,,,,,,,,,,,,,,,,,
,,,,,00054,2023-10-11_18h23.30.533,vbt_B2_day3,2022.2.4,Win32,60.34638827,,,,,,down,0,1.8081,,-0.014322917,-0.045572917,1,0,0,0,72,72,109,1,totaal,images/br_totaal.png,images/cb_totaal.png,0,,,,,,,,,,,,,,,,,,,,,,
,,,,,00054,2023-10-11_18h23.30.533,vbt_B2_day3,2022.2.4,Win32,60.34638827,,,,,,down,0,3.5648,,-0.014322917,-0.016927083,1,0,0,0,73,73,199,1,beseffen,images/br_beseffen.png,images/cb_beseffen.png,0,,,,,,,,,,,,,,,,,,,,,,
,,,,,00054,2023-10-11_18h23.30.533,vbt_B2_day3,2022.2.4,Win32,60.34638827,,,,,,down,0,13.0452,,0.078125,-0.006510417,1,0,0,0,74,74,193,1,weeshuis,images/br_weeshuis.png,images/cb_weeshuis.png,0,,,,,,,,,,,,,,,,,,,,,,
,,,,,00054,2023-10-11_18h23.30.533,vbt_B2_day3,2022.2.4,Win32,60.34638827,,,,,,down,0,0.5163,,0.020833333,0.020833333,1,0,0,0,75,75,33,1,vlek,images/br_vlek.png,images/cb_vlek.png,0,,,,,,,,,,,,,,,,,,,,,,
,,,,,00054,2023-10-11_18h23.30.533,vbt_B2_day3,2022.2.4,Win32,60.34638827,,,,,,down,0,0.3575,,-0.03515625,0.0078125,1,0,0,0,76,76,83,1,mening,images/br_mening.png,images/cb_mening.png,0,,,,,,,,,,,,,,,,,,,,,,
,,,,,00054,2023-10-11_18h23.30.533,vbt_B2_day3,2022.2.4,Win32,60.34638827,,,,,,down,0,3.0405,,0.143229167,0.026041667,1,0,0,0,77,77,68,1,schat,images/br_schat.png,images/cb_schat.png,0,,,,,,,,,,,,,,,,,,,,,,
,,,,,00054,2023-10-11_18h23.30.533,vbt_B2_day3,2022.2.4,Win32,60.34638827,,,,,,down,0,5.1459,,0.248697917,-0.036458333,1,0,0,0,78,78,2,1,jaar,images/br_jaar.png,images/cb_jaar.png,0,,,,,,,,,,,,,,,,,,,,,,
,,,,,00054,2023-10-11_18h23.30.533,vbt_B2_day3,2022.2.4,Win32,60.34638827,,,,,,down,0,8.1123,,-0.067708333,-0.01171875,1,0,0,0,79,79,160,1,daarheen,images/br_daarheen.png,images/cb_daarheen.png,0,,,,,,,,,,,,,,,,,,,,,,
,,,,,00054,2023-10-11_18h23.30.533,vbt_B2_day3,2022.2.4,Win32,60.34638827,,,,,,down,0,10.0855,,0.173177083,-0.053385417,1,0,0,0,80,80,142,1,snuiven,images/br_snuiven.png,images/cb_snuiven.png,1,snuiven,,,,,,,,,,,,,,,,,,,,,
,,,,,00054,2023-10-11_18h23.30.533,vbt_B2_day3,2022.2.4,Win32,60.34638827,,,,,,down,0,7.3932,,0.182291667,-0.037760417,1,0,0,0,81,81,55,1,praat,images/br_praat.png,images/cb_praat.png,0,,,,,,,,,,,,,,,,,,,,,,
,,,,,00054,2023-10-11_18h23.30.533,vbt_B2_day3,2022.2.4,Win32,60.34638827,,,,,,down,0,0.8308,,0.069010417,-0.01953125,1,0,0,0,82,82,89,1,slapen,images/br_slapen.png,images/cb_slapen.png,0,,,,,,,,,,,,,,,,,,,,,,
,,,,,00054,2023-10-11_18h23.30.533,vbt_B2_day3,2022.2.4,Win32,60.34638827,,,,,,down,0,3.7659,,-0.0390625,0.0078125,1,0,0,0,83,83,94,1,oceaan,images/br_oceaan.png,images/cb_oceaan.png,0,,,,,,,,,,,,,,,,,,,,,,
,,,,,00054,2023-10-11_18h23.30.533,vbt_B2_day3,2022.2.4,Win32,60.34638827,,,,,,down,0,4.2944,,0.40625,-0.018229167,1,0,0,0,84,84,92,1,geheim,images/br_geheim.png,images/cb_geheim.png,0,,,,,,,,,,,,,,,,,,,,,,
,,,,,00054,2023-10-11_18h23.30.533,vbt_B2_day3,2022.2.4,Win32,60.34638827,,,,,,down,0,4.8291,,0.252604167,-0.037760417,1,0,0,0,85,85,148,1,smullen,images/br_smullen.png,images/cb_smullen.png,0,,,,,,,,,,,,,,,,,,,,,,
,,,,,00054,2023-10-11_18h23.30.533,vbt_B2_day3,2022.2.4,Win32,60.34638827,,,,,,down,0,5.9033,,0.319010417,-0.018229167,1,0,0,0,86,86,185,1,mijnheer,images/br_mijnheer.png,images/cb_mijnheer.png,0,,,,,,,,,,,,,,,,,,,,,,
,,,,,00054,2023-10-11_18h23.30.533,vbt_B2_day3,2022.2.4,Win32,60.34638827,,,,,,down,0,0.1543,,0.263020833,-0.020833333,1,0,0,0,87,87,39,1,laag,images/br_laag.png,images/cb_laag.png,0,,,,,,,,,,,,,,,,,,,,,,
,,,,,00054,2023-10-11_18h23.30.533,vbt_B2_day3,2022.2.4,Win32,60.34638827,,,,,,down,0,0.1529,,0.326822917,-0.03125,1,0,0,0,88,88,84,1,lokken,images/br_lokken.png,images/cb_lokken.png,0,,,,,,,,,,,,,,,,,,,,,,
,,,,,00054,2023-10-11_18h23.30.533,vbt_B2_day3,2022.2.4,Win32,60.34638827,,,,,,down,0,4.2283,,0.158854167,-0.015625,1,0,0,0,89,89,5,1,blad,images/br_blad.png,images/cb_blad.png,0,,,,,,,,,,,,,,,,,,,,,,
,,,,,00054,2023-10-11_18h23.30.533,vbt_B2_day3,2022.2.4,Win32,60.34638827,,,,,,down,0,1.5934,,0.21875,-0.05078125,1,0,0,0,90,90,112,1,lukken,images/br_lukken.png,images/cb_lukken.png,0,,,,,,,,,,,,,,,,,,,,,,
,,,,,00054,2023-10-11_18h23.30.533,vbt_B2_day3,2022.2.4,Win32,60.34638827,,,,,,down,0,2.6529,,0.186197917,-0.03515625,1,0,0,0,91,91,132,1,grappen,images/br_grappen.png,images/cb_grappen.png,0,,,,,,,,,,,,,,,,,,,,,,
,,,,,00054,2023-10-11_18h23.30.533,vbt_B2_day3,2022.2.4,Win32,60.34638827,,,,,,down,0,1.1465,,-0.02734375,-0.01953125,1,0,0,0,92,92,95,1,vreten,images/br_vreten.png,images/cb_vreten.png,0,,,,,,,,,,,,,,,,,,,,,,
,,,,,00054,2023-10-11_18h23.30.533,vbt_B2_day3,2022.2.4,Win32,60.34638827,,,,,,down,0,6.683,,0.111979167,-0.029947917,1,0,0,0,93,93,65,1,parel,images/br_parel.png,images/cb_parel.png,0,,,,,,,,,,,,,,,,,,,,,,
,,,,,00054,2023-10-11_18h23.30.533,vbt_B2_day3,2022.2.4,Win32,60.34638827,,,,,,down,0,4.2624,,0.17578125,0.002604167,1,0,0,0,94,94,134,1,geliefd,images/br_geliefd.png,images/cb_geliefd.png,0,,,,,,,,,,,,,,,,,,,,,,
,,,,,00054,2023-10-11_18h23.30.533,vbt_B2_day3,2022.2.4,Win32,60.34638827,,,,,,down,0,6.9874,,0.205729167,0.013020833,1,0,0,0,95,95,100,1,geduld,images/br_geduld.png,images/cb_geduld.png,1,geduld,,,,,,,,,,,,,,,,,,,,,
,,,,,00054,2023-10-11_18h23.30.533,vbt_B2_day3,2022.2.4,Win32,60.34638827,,,,,,down,0,3.3084,,0.01953125,-0.061197917,1,0,0,0,96,96,171,1,aarzelen,images/br_aarzelen.png,images/cb_aarzelen.png,0,,,,,,,,,,,,,,,,,,,,,,
,,,,,00054,2023-10-11_18h23.30.533,vbt_B2_day3,2022.2.4,Win32,60.34638827,,,,,,down,0,0.4994,,0.015625,-0.075520833,1,0,0,0,97,97,10,1,leek,images/br_leek.png,images/cb_leek.png,0,,,,,,,,,,,,,,,,,,,,,,
,,,,,00054,2023-10-11_18h23.30.533,vbt_B2_day3,2022.2.4,Win32,60.34638827,,,,,,down,0,11.0003,,0.18359375,-0.036458333,1,0,0,0,98,98,180,1,openbaar,images/br_openbaar.png,images/cb_openbaar.png,1,openbaar,,,,,,,,,,,,,,,,,,,,,
,,,,,00054,2023-10-11_18h23.30.533,vbt_B2_day3,2022.2.4,Win32,60.34638827,,,,,,down,0,16.9131,,0.125,-0.00390625,1,0,0,0,99,99,111,1,ticket,images/br_ticket.png,images/cb_ticket.png,0,,,,,,,,,,,,,,,,,,,,,,
,,,,,00054,2023-10-11_18h23.30.533,vbt_B2_day3,2022.2.4,Win32,60.34638827,,,,,,down,0,24.3099,,-0.16796875,0.067708333,1,0,0,0,100,100,103,1,joggen,images/br_joggen.png,images/cb_joggen.png,1,joggen,,,,,,,,,,,,,,,,,,,,,
,,,,,00054,2023-10-11_18h23.30.533,vbt_B2_day3,2022.2.4,Win32,60.34638827,,,,,,down,0,3.9691,,0.131510417,-0.0078125,1,0,0,0,101,101,123,1,hiervan,images/br_hiervan.png,images/cb_hiervan.png,0,,,,,,,,,,,,,,,,,,,,,,
,,,,,00054,2023-10-11_18h23.30.533,vbt_B2_day3,2022.2.4,Win32,60.34638827,,,,,,down,0,4.312,,0.1640625,-0.03125,1,0,0,0,102,102,195,1,middelen,images/br_middelen.png,images/cb_middelen.png,0,,,,,,,,,,,,,,,,,,,,,,
,,,,,00054,2023-10-11_18h23.30.533,vbt_B2_day3,2022.2.4,Win32,60.34638827,,,,,,down,0,1.6761,,0.231770833,-0.026041667,1,0,0,0,103,103,87,1,toeval,images/br_toeval.png,images/cb_toeval.png,0,,,,,,,,,,,,,,,,,,,,,,
,,,,,00054,2023-10-11_18h23.30.533,vbt_B2_day3,2022.2.4,Win32,60.34638827,,,,,,down,0,3.2003,,0.411458333,-0.055989583,1,0,0,0,104,104,155,1,gerucht,images/br_gerucht.png,images/cb_gerucht.png,0,,,,,,,,,,,,,,,,,,,,,,
,,,,,00054,2023-10-11_18h23.30.533,vbt_B2_day3,2022.2.4,Win32,60.34638827,,,,,,down,0,6.7849,,-0.151041667,-0.010416667,1,0,0,0,105,105,156,1,rechten,images/br_rechten.png,images/cb_rechten.png,0,,,,,,,,,,,,,,,,,,,,,,
,,,,,00054,2023-10-11_18h23.30.533,vbt_B2_day3,2022.2.4,Win32,60.34638827,,,,,,down,0,0.8133,,0.227864583,-0.018229167,1,0,0,0,106,106,8,1,knie,images/br_knie.png,images/cb_knie.png,0,,,,,,,,,,,,,,,,,,,,,,
,,,,,00054,2023-10-11_18h23.30.533,vbt_B2_day3,2022.2.4,Win32,60.34638827,,,,,,down,0,0.512,,-0.111979167,-0.00390625,1,0,0,0,107,107,113,1,koppen,images/br_koppen.png,images/cb_koppen.png,0,,,,,,,,,,,,,,,,,,,,,,
,,,,,00054,2023-10-11_18h23.30.533,vbt_B2_day3,2022.2.4,Win32,60.34638827,,,,,,down,0,3.2558,,0.188802083,-0.029947917,1,0,0,0,108,108,90,1,geluid,images/br_geluid.png,images/cb_geluid.png,0,,,,,,,,,,,,,,,,,,,,,,
,,,,,00054,2023-10-11_18h23.30.533,vbt_B2_day3,2022.2.4,Win32,60.34638827,,,,,,down,0,3.4762,,0.100260417,-0.018229167,1,0,0,0,109,109,69,1,waken,images/br_waken.png,images/cb_waken.png,0,,,,,,,,,,,,,,,,,,,,,,
,,,,,00054,2023-10-11_18h23.30.533,vbt_B2_day3,2022.2.4,Win32,60.34638827,,,,,,down,0,2.5132,,0.100260417,-0.018229167,1,0,0,0,110,110,135,1,gedicht,images/br_gedicht.png,images/cb_gedicht.png,0,,,,,,,,,,,,,,,,,,,,,,
,,,,,00054,2023-10-11_18h23.30.533,vbt_B2_day3,2022.2.4,Win32,60.34638827,,,,,,down,0,2.9371,,0.173177083,-0.015625,1,0,0,0,111,111,18,1,blik,images/br_blik.png,images/cb_blik.png,0,,,,,,,,,,,,,,,,,,,,,,
,,,,,00054,2023-10-11_18h23.30.533,vbt_B2_day3,2022.2.4,Win32,60.34638827,,,,,,down,0,11.4204,,-0.096354167,-0.024739583,1,0,0,0,112,112,60,1,jasje,images/br_jasje.png,images/cb_jasje.png,1,jasje,,,,,,,,,,,,,,,,,,,,,
,,,,,00054,2023-10-11_18h23.30.533,vbt_B2_day3,2022.2.4,Win32,60.34638827,,,,,,down,0,3.3896,,0.2421875,-0.052083333,1,0,0,0,113,113,162,1,uitdelen,images/br_uitdelen.png,images/cb_uitdelen.png,0,,,,,,,,,,,,,,,,,,,,,,
,,,,,00054,2023-10-11_18h23.30.533,vbt_B2_day3,2022.2.4,Win32,60.34638827,,,,,,down,0,7.9227,,0.255208333,-0.048177083,1,0,0,0,114,114,182,1,bijkomen,images/br_bijkomen.png,images/cb_bijkomen.png,1,bijkomen,,,,,,,,,,,,,,,,,,,,,
,,,,,00054,2023-10-11_18h23.30.533,vbt_B2_day3,2022.2.4,Win32,60.34638827,,,,,,down,0,5.9897,,0.05859375,-0.071614583,1,0,0,0,115,115,81,1,dubbel,images/br_dubbel.png,images/cb_dubbel.png,0,,,,,,,,,,,,,,,,,,,,,,
,,,,,00054,2023-10-11_18h23.30.533,vbt_B2_day3,2022.2.4,Win32,60.34638827,,,,,,down,0,1.2205,,0.1484375,-0.03125,1,0,0,0,116,116,73,1,volop,images/br_volop.png,images/cb_volop.png,0,,,,,,,,,,,,,,,,,,,,,,
,,,,,00054,2023-10-11_18h23.30.533,vbt_B2_day3,2022.2.4,Win32,60.34638827,,,,,,down,0,3.8514,,-0.078125,-0.0078125,1,0,0,0,117,117,164,1,anarchie,images/br_anarchie.png,images/cb_anarchie.png,0,,,,,,,,,,,,,,,,,,,,,,
,,,,,00054,2023-10-11_18h23.30.533,vbt_B2_day3,2022.2.4,Win32,60.34638827,,,,,,down,0,8.7579,,0.053385417,-0.055989583,1,0,0,0,118,118,77,1,woede,images/br_woede.png,images/cb_woede.png,0,,,,,,,,,,,,,,,,,,,,,,
,,,,,00054,2023-10-11_18h23.30.533,vbt_B2_day3,2022.2.4,Win32,60.34638827,,,,,,down,0,11.3765,,0.049479167,-0.055989583,1,0,0,0,119,119,137,1,trekker,images/br_trekker.png,images/cb_trekker.png,0,,,,,,,,,,,,,,,,,,,,,,
,,,,,00054,2023-10-11_18h23.30.533,vbt_B2_day3,2022.2.4,Win32,60.34638827,,,,,,down,0,2.2575,,0.048177083,-0.055989583,1,0,0,0,120,120,157,1,uitlaat,images/br_uitlaat.png,images/cb_uitlaat.png,0,,,,,,,,,,,,,,,,,,,,,,
,,,,,00054,2023-10-11_18h23.30.533,vbt_B2_day3,2022.2.4,Win32,60.34638827,,,,,,down,0,3.5677,,0.048177083,-0.055989583,1,0,0,0,121,121,190,1,goedkoop,images/br_goedkoop.png,images/cb_goedkoop.png,0,,,,,,,,,,,,,,,,,,,,,,
,,,,,00054,2023-10-11_18h23.30.533,vbt_B2_day3,2022.2.4,Win32,60.34638827,,,,,,down,0,2.5455,,0.075520833,-0.036458333,1,0,0,0,122,122,124,1,bloeien,images/br_bloeien.png,images/cb_bloeien.png,0,,,,,,,,,,,,,,,,,,,,,,
,,,,,00054,2023-10-11_18h23.30.533,vbt_B2_day3,2022.2.4,Win32,60.34638827,,,,,,down,0,8.1899,,-0.02734375,-0.01953125,1,0,0,0,123,123,138,1,akkoord,images/br_akkoord.png,images/cb_akkoord.png,0,,,,,,,,,,,,,,,,,,,,,,
,,,,,00054,2023-10-11_18h23.30.533,vbt_B2_day3,2022.2.4,Win32,60.34638827,,,,,,down,0,5.6861,,0.006510417,0.01953125,1,0,0,0,124,124,101,1,staren,images/br_staren.png,images/cb_staren.png,1,staren,,,,,,,,,,,,,,,,,,,,,
,,,,,00054,2023-10-11_18h23.30.533,vbt_B2_day3,2022.2.4,Win32,60.34638827,,,,,,down,0,4.3494,,0.190104167,0.020833333,1,0,0,0,125,125,88,1,boeien,images/br_boeien.png,images/cb_boeien.png,0,,,,,,,,,,,,,,,,,,,,,,
,,,,,00054,2023-10-11_18h23.30.533,vbt_B2_day3,2022.2.4,Win32,60.34638827,,,,,,down,0,3.4776,,0.162760417,-0.044270833,1,0,0,0,126,126,175,1,heengaan,images/br_heengaan.png,images/cb_heengaan.png,0,,,,,,,,,,,,,,,,,,,,,,
,,,,,00054,2023-10-11_18h23.30.533,vbt_B2_day3,2022.2.4,Win32,60.34638827,,,,,,down,0,4.8089,,0.0625,-0.044270833,1,0,0,0,127,127,191,1,opheffen,images/br_opheffen.png,images/cb_opheffen.png,0,,,,,,,,,,,,,,,,,,,,,,
,,,,,00054,2023-10-11_18h23.30.533,vbt_B2_day3,2022.2.4,Win32,60.34638827,,,,,,down,0,2.5399,,0.134114583,-0.0234375,1,0,0,0,128,128,170,1,schatten,images/br_schatten.png,images/cb_schatten.png,0,,,,,,,,,,,,,,,,,,,,,,
,,,,,00054,2023-10-11_18h23.30.533,vbt_B2_day3,2022.2.4,Win32,60.34638827,,,,,,down,0,7.7764,,0.290364583,-0.015625,1,0,0,0,129,129,177,1,maaltijd,images/br_maaltijd.png,images/cb_maaltijd.png,0,,,,,,,,,,,,,,,,,,,,,,
,,,,,00054,2023-10-11_18h23.30.533,vbt_B2_day3,2022.2.4,Win32,60.34638827,,,,,,down,0,1.8825,,0.265625,-0.026041667,1,0,0,0,130,130,187,1,opkijken,images/br_opkijken.png,images/cb_opkijken.png,0,,,,,,,,,,,,,,,,,,,,,,
,,,,,00054,2023-10-11_18h23.30.533,vbt_B2_day3,2022.2.4,Win32,60.34638827,,,,,,down,0,8.5561,,0.25390625,-0.029947917,1,0,0,0,131,131,149,1,redding,images/br_redding.png,images/cb_redding.png,0,,,,,,,,,,,,,,,,,,,,,,
,,,,,00054,2023-10-11_18h23.30.533,vbt_B2_day3,2022.2.4,Win32,60.34638827,,,,,,down,0,1.625,,0.216145833,-0.01171875,1,0,0,0,132,132,38,1,baai,images/br_baai.png,images/cb_baai.png,0,,,,,,,,,,,,,,,,,,,,,,
,,,,,00054,2023-10-11_18h23.30.533,vbt_B2_day3,2022.2.4,Win32,60.34638827,,,,,,down,0,0.9648,,0.390625,-0.028645833,1,0,0,0,133,133,125,1,aanzien,images/br_aanzien.png,images/cb_aanzien.png,0,,,,,,,,,,,,,,,,,,,,,,
,,,,,00054,2023-10-11_18h23.30.533,vbt_B2_day3,2022.2.4,Win32,60.34638827,,,,,,down,0,4.477,,0.13671875,-0.033854167,1,0,0,0,134,134,99,1,koffie,images/br_koffie.png,images/cb_koffie.png,0,,,,,,,,,,,,,,,,,,,,,,
,,,,,00054,2023-10-11_18h23.30.533,vbt_B2_day3,2022.2.4,Win32,60.34638827,,,,,,down,0,1.1187,,0.196614583,-0.016927083,1,0,0,0,135,135,34,1,vorm,images/br_vorm.png,images/cb_vorm.png,0,,,,,,,,,,,,,,,,,,,,,,
,,,,,00054,2023-10-11_18h23.30.533,vbt_B2_day3,2022.2.4,Win32,60.34638827,,,,,,down,0,0.4327,,0.25,-0.015625,1,0,0,0,136,136,16,1,ziek,images/br_ziek.png,images/cb_ziek.png,0,,,,,,,,,,,,,,,,,,,,,,
,,,,,00054,2023-10-11_18h23.30.533,vbt_B2_day3,2022.2.4,Win32,60.34638827,,,,,,down,0,6.6616,,0.240885417,-0.020833333,1,0,0,0,137,137,54,1,gebit,images/br_gebit.png,images/cb_gebit.png,0,,,,,,,,,,,,,,,,,,,,,,
,,,,,00054,2023-10-11_18h23.30.533,vbt_B2_day3,2022.2.4,Win32,60.34638827,,,,,,down,0,4.3956,,0.247395833,-0.0078125,1,0,0,0,138,138,22,1,stof,images/br_stof.png,images/cb_stof.png,1,stof,,,,,,,,,,,,,,,,,,,,,
,,,,,00054,2023-10-11_18h23.30.533,vbt_B2_day3,2022.2.4,Win32,60.34638827,,,,,,down,0,1.8435,,0.05078125,-0.0390625,1,0,0,0,139,139,152,1,afnemen,images/br_afnemen.png,images/cb_afnemen.png,0,,,,,,,,,,,,,,,,,,,,,,
,,,,,00054,2023-10-11_18h23.30.533,vbt_B2_day3,2022.2.4,Win32,60.34638827,,,,,,down,0,8.1279,,0.071614583,0.001302083,1,0,0,0,140,140,147,1,komisch,images/br_komisch.png,images/cb_komisch.png,0,,,,,,,,,,,,,,,,,,,,,,
,,,,,00054,2023-10-11_18h23.30.533,vbt_B2_day3,2022.2.4,Win32,60.34638827,,,,,,down,0,0.9622,,0.119791667,0.009114583,1,0,0,0,141,141,12,1,kust,images/br_kust.png,images/cb_kust.png,0,,,,,,,,,,,,,,,,,,,,,,
,,,,,00054,2023-10-11_18h23.30.533,vbt_B2_day3,2022.2.4,Win32,60.34638827,,,,,,down,0,5.7031,,0.118489583,-0.009114583,1,0,0,0,142,142,161,1,attentie,images/br_attentie.png,images/cb_attentie.png,0,,,,,,,,,,,,,,,,,,,,,,
,,,,,00054,2023-10-11_18h23.30.533,vbt_B2_day3,2022.2.4,Win32,60.34638827,,,,,,down,0,4.7246,,0.0703125,-0.032552083,1,0,0,0,143,143,176,1,techniek,images/br_techniek.png,images/cb_techniek.png,0,,,,,,,,,,,,,,,,,,,,,,
,,,,,00054,2023-10-11_18h23.30.533,vbt_B2_day3,2022.2.4,Win32,60.34638827,,,,,,down,0,1.8907,,0.299479167,-0.037760417,1,0,0,0,144,144,67,1,zwart,images/br_zwart.png,images/cb_zwart.png,0,,,,,,,,,,,,,,,,,,,,,,
,,,,,00054,2023-10-11_18h23.30.533,vbt_B2_day3,2022.2.4,Win32,60.34638827,,,,,,down,0,4.5824,,0.149739583,-0.03125,1,0,0,0,145,145,47,1,kabel,images/br_kabel.png,images/cb_kabel.png,0,,,,,,,,,,,,,,,,,,,,,,
,,,,,00054,2023-10-11_18h23.30.533,vbt_B2_day3,2022.2.4,Win32,60.34638827,,,,,,down,0,9.3014,,0.072916667,-0.0546875,1,0,0,0,146,146,128,1,prikken,images/br_prikken.png,images/cb_prikken.png,0,,,,,,,,,,,,,,,,,,,,,,
,,,,,00054,2023-10-11_18h23.30.533,vbt_B2_day3,2022.2.4,Win32,60.34638827,,,,,,down,0,2.262,,-0.037760417,-0.04296875,1,0,0,0,147,147,28,1,stal,images/br_stal.png,images/cb_stal.png,0,,,,,,,,,,,,,,,,,,,,,,
,,,,,00054,2023-10-11_18h23.30.533,vbt_B2_day3,2022.2.4,Win32,60.34638827,,,,,,down,0,2.0237,,0.165364583,-0.0390625,1,0,0,0,148,148,56,1,traag,images/br_traag.png,images/cb_traag.png,0,,,,,,,,,,,,,,,,,,,,,,
,,,,,00054,2023-10-11_18h23.30.533,vbt_B2_day3,2022.2.4,Win32,60.34638827,,,,,,down,0,2.7726,,0.130208333,-0.041666667,1,0,0,0,149,149,120,1,klimmen,images/br_klimmen.png,images/cb_klimmen.png,0,,,,,,,,,,,,,,,,,,,,,,
,,,,,00054,2023-10-11_18h23.30.533,vbt_B2_day3,2022.2.4,Win32,60.34638827,,,,,,down,0,2.5209,,-0.055989583,-0.041666667,1,0,0,0,150,150,0,1,slak,images/br_slak.png,images/cb_slak.png,0,,,,,,,,,,,,,,,,,,,,,,
,,,,,00054,2023-10-11_18h23.30.533,vbt_B2_day3,2022.2.4,Win32,60.34638827,,,,,,down,0,5.1217,,0.026041667,-0.05078125,1,0,0,0,151,151,197,1,spanning,images/br_spanning.png,images/cb_spanning.png,0,,,,,,,,,,,,,,,,,,,,,,
,,,,,00054,2023-10-11_18h23.30.533,vbt_B2_day3,2022.2.4,Win32,60.34638827,,,,,,down,0,11.2273,,0.236979167,-0.041666667,1,0,0,0,152,152,153,1,vervoer,images/br_vervoer.png,images/cb_vervoer.png,0,,,,,,,,,,,,,,,,,,,,,,
,,,,,00054,2023-10-11_18h23.30.533,vbt_B2_day3,2022.2.4,Win32,60.34638827,,,,,,down,0,8.4083,,-0.225260417,-0.026041667,1,0,0,0,153,153,172,1,weigeren,images/br_weigeren.png,images/cb_weigeren.png,0,,,,,,,,,,,,,,,,,,,,,,
,,,,,00054,2023-10-11_18h23.30.533,vbt_B2_day3,2022.2.4,Win32,60.34638827,,,,,,down,0,1.8783,,0.065104167,-0.024739583,1,0,0,0,154,154,49,1,laken,images/br_laken.png,images/cb_laken.png,0,,,,,,,,,,,,,,,,,,,,,,
,,,,,00054,2023-10-11_18h23.30.533,vbt_B2_day3,2022.2.4,Win32,60.34638827,,,,,,down,0,2.8835,,0.223958333,-0.018229167,1,0,0,0,155,155,167,1,eenhoorn,images/br_eenhoorn.png,images/cb_eenhoorn.png,0,,,,,,,,,,,,,,,,,,,,,,
,,,,,00054,2023-10-11_18h23.30.533,vbt_B2_day3,2022.2.4,Win32,60.34638827,,,,,,down,0,16.6195,,0.12109375,0.00390625,1,0,0,0,156,156,121,1,twijfel,images/br_twijfel.png,images/cb_twijfel.png,0,,,,,,,,,,,,,,,,,,,,,,
,,,,,00054,2023-10-11_18h23.30.533,vbt_B2_day3,2022.2.4,Win32,60.34638827,,,,,,down,0,2.276,,0.259114583,-0.013020833,1,0,0,0,157,157,186,1,voorraad,images/br_voorraad.png,images/cb_voorraad.png,0,,,,,,,,,,,,,,,,,,,,,,
,,,,,00054,2023-10-11_18h23.30.533,vbt_B2_day3,2022.2.4,Win32,60.34638827,,,,,,down,0,2.1381,,-0.04296875,-0.010416667,1,0,0,0,158,158,64,1,wegen,images/br_wegen.png,images/cb_wegen.png,0,,,,,,,,,,,,,,,,,,,,,,
,,,,,00054,2023-10-11_18h23.30.533,vbt_B2_day3,2022.2.4,Win32,60.34638827,,,,,,down,0,1.1739,,0.03125,-0.01171875,1,0,0,0,159,159,82,1,muziek,images/br_muziek.png,images/cb_muziek.png,0,,,,,,,,,,,,,,,,,,,,,,
,,,,,00054,2023-10-11_18h23.30.533,vbt_B2_day3,2022.2.4,Win32,60.34638827,,,,,,down,0,9.0433,,-0.05078125,-0.028645833,1,0,0,0,160,160,85,1,heilig,images/br_heilig.png,images/cb_heilig.png,0,,,,,,,,,,,,,,,,,,,,,,
,,,,,00054,2023-10-11_18h23.30.533,vbt_B2_day3,2022.2.4,Win32,60.34638827,,,,,,down,0,1.3754,,0.466145833,-0.024739583,1,0,0,0,161,161,150,1,gegeven,images/br_gegeven.png,images/cb_gegeven.png,0,,,,,,,,,,,,,,,,,,,,,,
,,,,,00054,2023-10-11_18h23.30.533,vbt_B2_day3,2022.2.4,Win32,60.34638827,,,,,,down,0,1.3423,,0.268229167,-0.00390625,1,0,0,0,162,162,86,1,woning,images/br_woning.png,images/cb_woning.png,0,,,,,,,,,,,,,,,,,,,,,,
,,,,,00054,2023-10-11_18h23.30.533,vbt_B2_day3,2022.2.4,Win32,60.34638827,,,,,,down,0,2.7577,,0.01171875,-0.041666667,1,0,0,0,163,163,52,1,wagon,images/br_wagon.png,images/cb_wagon.png,0,,,,,,,,,,,,,,,,,,,,,,
,,,,,00054,2023-10-11_18h23.30.533,vbt_B2_day3,2022.2.4,Win32,60.34638827,,,,,,down,0,6.4342,,0.255208333,-0.045572917,1,0,0,0,164,164,37,1,mijn,images/br_mijn.png,images/cb_mijn.png,0,,,,,,,,,,,,,,,,,,,,,,
,,,,,00054,2023-10-11_18h23.30.533,vbt_B2_day3,2022.2.4,Win32,60.34638827,,,,,,down,0,2.3707,,0.05859375,-0.044270833,1,0,0,0,165,165,57,1,steek,images/br_steek.png,images/cb_steek.png,0,,,,,,,,,,,,,,,,,,,,,,
,,,,,00054,2023-10-11_18h23.30.533,vbt_B2_day3,2022.2.4,Win32,60.34638827,,,,,,down,0,6.9315,,0.134114583,-0.088541667,1,0,0,0,166,166,181,1,toegeven,images/br_toegeven.png,images/cb_toegeven.png,1,toegeven,,,,,,,,,,,,,,,,,,,,,
,,,,,00054,2023-10-11_18h23.30.533,vbt_B2_day3,2022.2.4,Win32,60.34638827,,,,,,down,0,0.1841,,0.197916667,-0.018229167,1,0,0,0,167,167,3,1,mand,images/br_mand.png,images/cb_mand.png,0,,,,,,,,,,,,,,,,,,,,,,
,,,,,00054,2023-10-11_18h23.30.533,vbt_B2_day3,2022.2.4,Win32,60.34638827,,,,,,down,0,3.885,,-0.022135417,-0.05078125,1,0,0,0,168,168,62,1,knaap,images/br_knaap.png,images/cb_knaap.png,1,knaap,,,,,,,,,,,,,,,,,,,,,
,,,,,00054,2023-10-11_18h23.30.533,vbt_B2_day3,2022.2.4,Win32,60.34638827,,,,,,down,0,3.6986,,0.151041667,-0.055989583,1,0,0,0,169,169,179,1,woestijn,images/br_woestijn.png,images/cb_woestijn.png,0,,,,,,,,,,,,,,,,,,,,,,
,,,,,00054,2023-10-11_18h23.30.533,vbt_B2_day3,2022.2.4,Win32,60.34638827,,,,,,down,0,0.9055,,0.30859375,-0.009114583,1,0,0,0,170,170,9,1,hier,images/br_hier.png,images/cb_hier.png,0,,,,,,,,,,,,,,,,,,,,,,
,,,,,00054,2023-10-11_18h23.30.533,vbt_B2_day3,2022.2.4,Win32,60.34638827,,,,,,down,0,1.8412,,0.1171875,-0.016927083,1,0,0,0,171,171,115,1,kleren,images/br_kleren.png,images/cb_kleren.png,0,,,,,,,,,,,,,,,,,,,,,,
,,,,,00054,2023-10-11_18h23.30.533,vbt_B2_day3,2022.2.4,Win32,60.34638827,,,,,,down,0,3.562,,-0.001302083,-0.028645833,1,0,0,0,172,172,59,1,kring,images/br_kring.png,images/cb_kring.png,0,,,,,,,,,,,,,,,,,,,,,,
,,,,,00054,2023-10-11_18h23.30.533,vbt_B2_day3,2022.2.4,Win32,60.34638827,,,,,,down,0,5.0606,,-0.049479167,-0.02734375,1,0,0,0,173,173,166,1,strikken,images/br_strikken.png,images/cb_strikken.png,0,,,,,,,,,,,,,,,,,,,,,,
,,,,,00054,2023-10-11_18h23.30.533,vbt_B2_day3,2022.2.4,Win32,60.34638827,,,,,,down,0,3.6,,0.24609375,-0.059895833,1,0,0,0,174,174,91,1,gezond,images/br_gezond.png,images/cb_gezond.png,0,,,,,,,,,,,,,,,,,,,,,,
,,,,,00054,2023-10-11_18h23.30.533,vbt_B2_day3,2022.2.4,Win32,60.34638827,,,,,,down,0,7.1155,,-0.104166667,-0.061197917,1,0,0,0,175,175,80,1,kanjer,images/br_kanjer.png,images/cb_kanjer.png,0,,,,,,,,,,,,,,,,,,,,,,
,,,,,00054,2023-10-11_18h23.30.533,vbt_B2_day3,2022.2.4,Win32,60.34638827,,,,,,down,0,8.5422,,0.540364583,-0.079427083,1,0,0,0,176,176,183,1,getuigen,images/br_getuigen.png,images/cb_getuigen.png,1,getuigen,,,,,,,,,,,,,,,,,,,,,
,,,,,00054,2023-10-11_18h23.30.533,vbt_B2_day3,2022.2.4,Win32,60.34638827,,,,,,down,0,3.2711,,0.372395833,-0.024739583,1,0,0,0,177,177,145,1,invloed,images/br_invloed.png,images/cb_invloed.png,0,,,,,,,,,,,,,,,,,,,,,,
,,,,,00054,2023-10-11_18h23.30.533,vbt_B2_day3,2022.2.4,Win32,60.34638827,,,,,,down,0,4.1699,,0.302083333,-0.024739583,1,0,0,0,178,178,129,1,verhaal,images/br_verhaal.png,images/cb_verhaal.png,0,,,,,,,,,,,,,,,,,,,,,,
,,,,,00054,2023-10-11_18h23.30.533,vbt_B2_day3,2022.2.4,Win32,60.34638827,,,,,,down,0,3.2687,,0.21875,-0.020833333,1,0,0,0,179,179,140,1,blijven,images/br_blijven.png,images/cb_blijven.png,1,blijven,,,,,,,,,,,,,,,,,,,,,
,,,,,00054,2023-10-11_18h23.30.533,vbt_B2_day3,2022.2.4,Win32,60.34638827,,,,,,down,0,2.2614,,-0.015625,-0.033854167,1,0,0,0,180,180,30,1,uien,images/br_uien.png,images/cb_uien.png,0,,,,,,,,,,,,,,,,,,,,,,
,,,,,00054,2023-10-11_18h23.30.533,vbt_B2_day3,2022.2.4,Win32,60.34638827,,,,,,down,0,0.5041,,0.15625,-0.036458333,1,0,0,0,181,181,1,1,zaal,images/br_zaal.png,images/cb_zaal.png,0,,,,,,,,,,,,,,,,,,,,,,
,,,,,00054,2023-10-11_18h23.30.533,vbt_B2_day3,2022.2.4,Win32,60.34638827,,,,,,down,0,5.2614,,0.173177083,-0.036458333,1,0,0,0,182,182,15,1,soda,images/br_soda.png,images/cb_soda.png,0,,,,,,,,,,,,,,,,,,,,,,
,,,,,00054,2023-10-11_18h23.30.533,vbt_B2_day3,2022.2.4,Win32,60.34638827,,,,,,down,0,0.7958,,0.170572917,-0.009114583,1,0,0,0,183,183,107,1,maling,images/br_maling.png,images/cb_maling.png,0,,,,,,,,,,,,,,,,,,,,,,
,,,,,00054,2023-10-11_18h23.30.533,vbt_B2_day3,2022.2.4,Win32,60.34638827,,,,,,down,0,8.9966,,0.075520833,0.020833333,1,0,0,0,184,184,165,1,feestdag,images/br_feestdag.png,images/cb_feestdag.png,0,,,,,,,,,,,,,,,,,,,,,,
,,,,,00054,2023-10-11_18h23.30.533,vbt_B2_day3,2022.2.4,Win32,60.34638827,,,,,,down,0,5.679,,0.283854167,0.067708333,1,0,0,0,185,185,159,1,sufferd,images/br_sufferd.png,images/cb_sufferd.png,0,,,,,,,,,,,,,,,,,,,,,,
,,,,,00054,2023-10-11_18h23.30.533,vbt_B2_day3,2022.2.4,Win32,60.34638827,,,,,,down,0,15.1769,,0.045572917,0.018229167,1,0,0,0,186,186,178,1,huisdier,images/br_huisdier.png,images/cb_huisdier.png,0,,,,,,,,,,,,,,,,,,,,,,
,,,,,00054,2023-10-11_18h23.30.533,vbt_B2_day3,2022.2.4,Win32,60.34638827,,,,,,down,0,2.864,,0.170572917,-0.026041667,1,0,0,0,187,187,118,1,vinger,images/br_vinger.png,images/cb_vinger.png,0,,,,,,,,,,,,,,,,,,,,,,
,,,,,00054,2023-10-11_18h23.30.533,vbt_B2_day3,2022.2.4,Win32,60.34638827,,,,,,down,0,2.6695,,0.174479167,0.071614583,1,0,0,0,188,188,93,1,waarop,images/br_waarop.png,images/cb_waarop.png,0,,,,,,,,,,,,,,,,,,,,,,
,,,,,00054,2023-10-11_18h23.30.533,vbt_B2_day3,2022.2.4,Win32,60.34638827,,,,,,down,0,5.2382,,0.141927083,0.059895833,1,0,0,0,189,189,46,1,jagen,images/br_jagen.png,images/cb_jagen.png,0,,,,,,,,,,,,,,,,,,,,,,
,,,,,00054,2023-10-11_18h23.30.533,vbt_B2_day3,2022.2.4,Win32,60.34638827,,,,,,down,0,3.9818,,-0.05859375,0.04296875,1,0,0,0,190,190,44,1,flits,images/br_flits.png,images/cb_flits.png,0,,,,,,,,,,,,,,,,,,,,,,
,,,,,00054,2023-10-11_18h23.30.533,vbt_B2_day3,2022.2.4,Win32,60.34638827,,,,,,down,0,2.1595,,0.098958333,0.092447917,1,0,0,0,191,191,189,1,aanraden,images/br_aanraden.png,images/cb_aanraden.png,0,,,,,,,,,,,,,,,,,,,,,,
,,,,,00054,2023-10-11_18h23.30.533,vbt_B2_day3,2022.2.4,Win32,60.34638827,,,,,,down,0,2.8333,,0.046875,0.05078125,1,0,0,0,192,192,188,1,strekken,images/br_strekken.png,images/cb_strekken.png,0,,,,,,,,,,,,,,,,,,,,,,
,,,,,00054,2023-10-11_18h23.30.533,vbt_B2_day3,2022.2.4,Win32,60.34638827,,,,,,down,0,2.0226,,0.053385417,-0.032552083,1,0,0,0,193,193,126,1,kasteel,images/br_kasteel.png,images/cb_kasteel.png,0,,,,,,,,,,,,,,,,,,,,,,
,,,,,00054,2023-10-11_18h23.30.533,vbt_B2_day3,2022.2.4,Win32,60.34638827,,,,,,down,0,1.379,,-0.125,-0.020833333,1,0,0,0,194,194,31,1,poes,images/br_poes.png,images/cb_poes.png,0,,,,,,,,,,,,,,,,,,,,,,
,,,,,00054,2023-10-11_18h23.30.533,vbt_B2_day3,2022.2.4,Win32,60.34638827,,,,,,down,0,1.5116,,0.018229167,-0.013020833,1,0,0,0,195,195,72,1,strak,images/br_strak.png,images/cb_strak.png,0,,,,,,,,,,,,,,,,,,,,,,
,,,,,00054,2023-10-11_18h23.30.533,vbt_B2_day3,2022.2.4,Win32,60.34638827,,,,,,down,0,3.7814,,0.071614583,-0.029947917,1,0,0,0,196,196,169,1,oprotten,images/br_oprotten.png,images/cb_oprotten.png,0,,,,,,,,,,,,,,,,,,,,,,
,,,,,00054,2023-10-11_18h23.30.533,vbt_B2_day3,2022.2.4,Win32,60.34638827,,,,,,down,0,3.6818,,0.022135417,0.0078125,1,0,0,0,197,197,70,1,ijdel,images/br_ijdel.png,images/cb_ijdel.png,0,,,,,,,,,,,,,,,,,,,,,,
,,,,,00054,2023-10-11_18h23.30.533,vbt_B2_day3,2022.2.4,Win32,60.34638827,,,,,,down,0,0.7308,,0.009114583,-0.015625,1,0,0,0,198,198,79,1,nodig,images/br_nodig.png,images/cb_nodig.png,0,,,,,,,,,,,,,,,,,,,,,,
,,,,,00054,2023-10-11_18h23.30.533,vbt_B2_day3,2022.2.4,Win32,60.34638827,,,,,,down,0,3.5281,,0.013020833,-0.002604167,1,0,0,0,199,199,51,1,samen,images/br_samen.png,images/cb_samen.png,0,,,,,,,,,,,,,,,,,,,,,,
,,,,,00054,2023-10-11_18h23.30.533,vbt_B2_day3,2022.2.4,Win32,60.34638827,,,,,,,,,,,,,,,,,,,,,,,,,0.104166667,0.268229167,1,0,0,,,,,,,,,,,,,,,,
,,,,,00054,2023-10-11_18h23.30.533,vbt_B2_day3,2022.2.4,Win32,60.34638827,,,,,,,,,,,,,,,,,,,,,,,,,,,,,,-0.033854167,0.229166667,1,0,0,,,,,,,,,,,
,,,,,00054,2023-10-11_18h23.30.533,vbt_B2_day3,2022.2.4,Win32,60.34638827,,,,,,,,,,,,,,,,,,,,schatten,images/br_schatten.png,images/cb_schatten.png,,schatten,,,,,,,,,,,0.475260417,-0.138020833,1,0,0,schatten,0,0,0,18,1
,,,,,00054,2023-10-11_18h23.30.533,vbt_B2_day3,2022.2.4,Win32,60.34638827,,,,,,,,,,,,,,,,,,,,verhaal,images/br_verhaal.png,images/cb_verhaal.png,,verhaal,,,,,,,,,,,0.58203125,-0.08984375,1,0,0,verhaal,0,1,1,13,1
,,,,,00054,2023-10-11_18h23.30.533,vbt_B2_day3,2022.2.4,Win32,60.34638827,,,,,,,,,,,,,,,,,,,,sultan,images/br_sultan.png,images/cb_sultan.png,,sultan,,,,,,,,,,,0.5,-0.055989583,1,0,0,sultan,0,2,2,49,1
,,,,,00054,2023-10-11_18h23.30.533,vbt_B2_day3,2022.2.4,Win32,60.34638827,,,,,,,,,,,,,,,,,,,,uniek,images/br_uniek.png,images/cb_uniek.png,,uniek,,,,,,,,,,,0.6796875,-0.108072917,1,0,0,uniek,0,3,3,46,1
,,,,,00054,2023-10-11_18h23.30.533,vbt_B2_day3,2022.2.4,Win32,60.34638827,,,,,,,,,,,,,,,,,,,,kest,images/br_kest.png,images/cb_kest.png,,kist,,,,,,,,,,,0.329427083,-0.046875,1,0,0,kist,0,4,4,21,1
,,,,,00054,2023-10-11_18h23.30.533,vbt_B2_day3,2022.2.4,Win32,60.34638827,,,,,,,,,,,,,,,,,,,,stikken,images/br_stikken.png,images/cb_stikken.png,,stikken,,,,,,,,,,,0.3359375,0.006510417,1,0,0,stikken,0,5,5,54,1
,,,,,00054,2023-10-11_18h23.30.533,vbt_B2_day3,2022.2.4,Win32,60.34638827,,,,,,,,,,,,,,,,,,,,dwang,images/br_dwang.png,images/cb_dwang.png,,daun.,,,,,,,,,,,0.427083333,-0.096354167,1,0,0,daun.,0,6,6,47,1
,,,,,00054,2023-10-11_18h23.30.533,vbt_B2_day3,2022.2.4,Win32,60.34638827,,,,,,,,,,,,,,,,,,,,paken,images/br_paken.png,images/cb_paken.png,,paken,,,,,,,,,,,0.515625,-0.08203125,1,0,0,paken,0,7,7,27,1
,,,,,00054,2023-10-11_18h23.30.533,vbt_B2_day3,2022.2.4,Win32,60.34638827,,,,,,,,,,,,,,,,,,,,begrip,images/br_begrip.png,images/cb_begrip.png,,begrip,,,,,,,,,,,0.615885417,0.194010417,1,0,0,begrip,0,8,8,48,1
,,,,,00054,2023-10-11_18h23.30.533,vbt_B2_day3,2022.2.4,Win32,60.34638827,,,,,,,,,,,,,,,,,,,,croo,images/br_croo.png,images/cb_croo.png,,croo,,,,,,,,,,,0.45703125,0.010416667,1,0,0,croo,0,9,9,22,1
,,,,,00054,2023-10-11_18h23.30.533,vbt_B2_day3,2022.2.4,Win32,60.34638827,,,,,,,,,,,,,,,,,,,,keihard,images/br_keihard.png,images/cb_keihard.png,,keihard,,,,,,,,,,,0.51953125,-0.072916667,1,0,0,keihard,0,10,10,14,1
,,,,,00054,2023-10-11_18h23.30.533,vbt_B2_day3,2022.2.4,Win32,60.34638827,,,,,,,,,,,,,,,,,,,,theeting,images/br_theeting.png,images/cb_theeting.png,,thee....,,,,,,,,,,,0.576822917,-0.0234375,1,0,0,thee....,0,11,11,38,1
,,,,,00054,2023-10-11_18h23.30.533,vbt_B2_day3,2022.2.4,Win32,60.34638827,,,,,,,,,,,,,,,,,,,,steel,images/br_steel.png,images/cb_steel.png,,steel,,,,,,,,,,,0.397135417,-0.020833333,1,0,0,steel,0,12,12,4,1
,,,,,00054,2023-10-11_18h23.30.533,vbt_B2_day3,2022.2.4,Win32,60.34638827,,,,,,,,,,,,,,,,,,,,mode,images/br_mode.png,images/cb_mode.png,,mode,,,,,,,,,,,0.33984375,0.010416667,1,0,0,mode,0,13,13,3,1
,,,,,00054,2023-10-11_18h23.30.533,vbt_B2_day3,2022.2.4,Win32,60.34638827,,,,,,,,,,,,,,,,,,,,gout,images/br_gout.png,images/cb_gout.png,,gokt,,,,,,,,,,,0.609375,-0.09765625,1,0,0,gokt,0,14,14,20,1
,,,,,00054,2023-10-11_18h23.30.533,vbt_B2_day3,2022.2.4,Win32,60.34638827,,,,,,,,,,,,,,,,,,,,kaas,images/br_kaas.png,images/cb_kaas.png,,kaas,,,,,,,,,,,0.240885417,-0.071614583,1,0,0,kaas,0,15,15,42,1
,,,,,00054,2023-10-11_18h23.30.533,vbt_B2_day3,2022.2.4,Win32,60.34638827,,,,,,,,,,,,,,,,,,,,oprotten,images/br_oprotten.png,images/cb_oprotten.png,,oprotten,,,,,,,,,,,0.8671875,-0.020833333,1,0,0,oprotten,0,16,16,17,1
,,,,,00054,2023-10-11_18h23.30.533,vbt_B2_day3,2022.2.4,Win32,60.34638827,,,,,,,,,,,,,,,,,,,,boeien,images/br_boeien.png,images/cb_boeien.png,,boeien,,,,,,,,,,,0.813802083,-0.25390625,1,0,0,boeien,0,17,17,8,1
,,,,,00054,2023-10-11_18h23.30.533,vbt_B2_day3,2022.2.4,Win32,60.34638827,,,,,,,,,,,,,,,,,,,,mugeek,images/br_mugeek.png,images/cb_mugeek.png,,mugiek,,,,,,,,,,,0.462239583,-0.059895833,1,0,0,mugiek,0,18,18,29,1
,,,,,00054,2023-10-11_18h23.30.533,vbt_B2_day3,2022.2.4,Win32,60.34638827,,,,,,,,,,,,,,,,,,,,brappen,images/br_brappen.png,images/cb_brappen.png,,brappen,,,,,,,,,,,0.48046875,-0.0859375,1,0,0,brappen,0,19,19,35,1
,,,,,00054,2023-10-11_18h23.30.533,vbt_B2_day3,2022.2.4,Win32,60.34638827,,,,,,,,,,,,,,,,,,,,zone,images/br_zone.png,images/cb_zone.png,,zone,,,,,,,,,,,0.5078125,0.106770833,1,0,0,zone,0,20,20,41,1
,,,,,00054,2023-10-11_18h23.30.533,vbt_B2_day3,2022.2.4,Win32,60.34638827,,,,,,,,,,,,,,,,,,,,slapen,images/br_slapen.png,images/cb_slapen.png,,slapen,,,,,,,,,,,0.38671875,-0.072916667,1,0,0,slapen,0,21,21,9,1
,,,,,00054,2023-10-11_18h23.30.533,vbt_B2_day3,2022.2.4,Win32,60.34638827,,,,,,,,,,,,,,,,,,,,bisschop,images/br_bisschop.png,images/cb_bisschop.png,,bisschop,,,,,,,,,,,0.345052083,-0.018229167,1,0,0,bisschop,0,22,22,16,1
,,,,,00054,2023-10-11_18h23.30.533,vbt_B2_day3,2022.2.4,Win32,60.34638827,,,,,,,,,,,,,,,,,,,,twaaf,images/br_twaaf.png,images/cb_twaaf.png,,twuu.,,,,,,,,,,,0.419270833,-0.002604167,1,0,0,twuu.,0,23,23,24,1
,,,,,00054,2023-10-11_18h23.30.533,vbt_B2_day3,2022.2.4,Win32,60.34638827,,,,,,,,,,,,,,,,,,,,onrecht,images/br_onrecht.png,images/cb_onrecht.png,,onrecht,,,,,,,,,,,0.44140625,-0.106770833,1,0,0,onrecht,0,24,24,55,1
,,,,,00054,2023-10-11_18h23.30.533,vbt_B2_day3,2022.2.4,Win32,60.34638827,,,,,,,,,,,,,,,,,,,,samen,images/br_samen.png,images/cb_samen.png,,samen,,,,,,,,,,,0.33203125,-0.024739583,1,0,0,samen,0,25,25,7,1
,,,,,00054,2023-10-11_18h23.30.533,vbt_B2_day3,2022.2.4,Win32,60.34638827,,,,,,,,,,,,,,,,,,,,knie,images/br_knie.png,images/cb_knie.png,,knie,,,,,,,,,,,0.477864583,-0.114583333,1,0,0,knie,0,26,26,0,1
,,,,,00054,2023-10-11_18h23.30.533,vbt_B2_day3,2022.2.4,Win32,60.34638827,,,,,,,,,,,,,,,,,,,,alsof,images/br_alsof.png,images/cb_alsof.png,,alsof,,,,,,,,,,,0.290364583,-0.03515625,1,0,0,alsof,0,27,27,44,1
,,,,,00054,2023-10-11_18h23.30.533,vbt_B2_day3,2022.2.4,Win32,60.34638827,,,,,,,,,,,,,,,,,,,,beslag,images/br_beslag.png,images/cb_beslag.png,,beslag,,,,,,,,,,,0.313802083,-0.005208333,1,0,0,beslag,0,28,28,51,1
,,,,,00054,2023-10-11_18h23.30.533,vbt_B2_day3,2022.2.4,Win32,60.34638827,,,,,,,,,,,,,,,,,,,,gezond,images/br_gezond.png,images/cb_gezond.png,,gezond,,,,,,,,,,,0.286458333,-0.029947917,1,0,0,gezond,0,29,29,11,1
,,,,,00054,2023-10-11_18h23.30.533,vbt_B2_day3,2022.2.4,Win32,60.34638827,,,,,,,,,,,,,,,,,,,,vlager,images/br_vlager.png,images/cb_vlager.png,,vlager,,,,,,,,,,,0.44140625,-0.048177083,1,0,0,vlager,0,30,30,28,1
,,,,,00054,2023-10-11_18h23.30.533,vbt_B2_day3,2022.2.4,Win32,60.34638827,,,,,,,,,,,,,,,,,,,,bevret,images/br_bevret.png,images/cb_bevret.png,,bevret,,,,,,,,,,,0.561197917,-0.16015625,1,0,0,bevret,0,31,31,30,1
,,,,,00054,2023-10-11_18h23.30.533,vbt_B2_day3,2022.2.4,Win32,60.34638827,,,,,,,,,,,,,,,,,,,,opzicht,images/br_opzicht.png,images/cb_opzicht.png,,opzicht,,,,,,,,,,,0.358072917,-0.015625,1,0,0,opzicht,0,32,32,15,1
,,,,,00054,2023-10-11_18h23.30.533,vbt_B2_day3,2022.2.4,Win32,60.34638827,,,,,,,,,,,,,,,,,,,,gebod,images/br_gebod.png,images/cb_gebod.png,,gelod,,,,,,,,,,,0.450520833,-0.041666667,1,0,0,gelod,0,33,33,45,1
,,,,,00054,2023-10-11_18h23.30.533,vbt_B2_day3,2022.2.4,Win32,60.34638827,,,,,,,,,,,,,,,,,,,,verwoor,images/br_verwoor.png,images/cb_verwoor.png,,ver....,,,,,,,,,,,0.080729167,-0.013020833,1,0,0,ver....,0,34,34,32,1
,,,,,00054,2023-10-11_18h23.30.533,vbt_B2_day3,2022.2.4,Win32,60.34638827,,,,,,,,,,,,,,,,,,,,sluier,images/br_sluier.png,images/cb_sluier.png,,sluier,,,,,,,,,,,0.25390625,-0.04296875,1,0,0,sluier,0,35,35,50,1
,,,,,00054,2023-10-11_18h23.30.533,vbt_B2_day3,2022.2.4,Win32,60.34638827,,,,,,,,,,,,,,,,,,,,leugeren,images/br_leugeren.png,images/cb_leugeren.png,,luigeren,,,,,,,,,,,0.44140625,-0.173177083,1,0,0,luigeren,0,36,36,37,1
,,,,,00054,2023-10-11_18h23.30.533,vbt_B2_day3,2022.2.4,Win32,60.34638827,,,,,,,,,,,,,,,,,,,,verraden,images/br_verraden.png,images/cb_verraden.png,,verraden,,,,,,,,,,,0.319010417,-0.01171875,1,0,0,verraden,0,37,37,58,1
,,,,,00054,2023-10-11_18h23.30.533,vbt_B2_day3,2022.2.4,Win32,60.34638827,,,,,,,,,,,,,,,,,,,,hier,images/br_hier.png,images/cb_hier.png,,hier,,,,,,,,,,,0.266927083,-0.127604167,1,0,0,hier,0,38,38,1,1
,,,,,00054,2023-10-11_18h23.30.533,vbt_B2_day3,2022.2.4,Win32,60.34638827,,,,,,,,,,,,,,,,,,,,kwaas,images/br_kwaas.png,images/cb_kwaas.png,,kwaas,,,,,,,,,,,0.5078125,-0.111979167,1,0,0,kwaas,0,39,39,26,1
,,,,,00054,2023-10-11_18h23.30.533,vbt_B2_day3,2022.2.4,Win32,60.34638827,,,,,,,,,,,,,,,,,,,,jongelui,images/br_jongelui.png,images/cb_jongelui.png,,jonge...,,,,,,,,,,,0.516927083,0.134114583,1,0,0,jonge...,0,40,40,59,1
,,,,,00054,2023-10-11_18h23.30.533,vbt_B2_day3,2022.2.4,Win32,60.34638827,,,,,,,,,,,,,,,,,,,,invallen,images/br_invallen.png,images/cb_invallen.png,,invallen,,,,,,,,,,,0.41015625,0.006510417,1,0,0,invallen,0,41,41,57,1
,,,,,00054,2023-10-11_18h23.30.533,vbt_B2_day3,2022.2.4,Win32,60.34638827,,,,,,,,,,,,,,,,,,,,glijden,images/br_glijden.png,images/cb_glijden.png,,glijden,,,,,,,,,,,0.236979167,0.00390625,1,0,0,glijden,0,42,42,53,1
,,,,,00054,2023-10-11_18h23.30.533,vbt_B2_day3,2022.2.4,Win32,60.34638827,,,,,,,,,,,,,,,,,,,,opzetten,images/br_opzetten.png,images/cb_opzetten.png,,opzetten,,,,,,,,,,,0.388020833,0.01953125,1,0,0,opzetten,0,43,43,56,1
,,,,,00054,2023-10-11_18h23.30.533,vbt_B2_day3,2022.2.4,Win32,60.34638827,,,,,,,,,,,,,,,,,,,,laken,images/br_laken.png,images/cb_laken.png,,laken,,,,,,,,,,,0.274739583,-0.096354167,1,0,0,laken,0,44,44,5,1
,,,,,00054,2023-10-11_18h23.30.533,vbt_B2_day3,2022.2.4,Win32,60.34638827,,,,,,,,,,,,,,,,,,,,stallen,images/br_stallen.png,images/cb_stallen.png,,stallen,,,,,,,,,,,0.26953125,-0.0390625,1,0,0,stallen,0,45,45,52,1
,,,,,00054,2023-10-11_18h23.30.533,vbt_B2_day3,2022.2.4,Win32,60.34638827,,,,,,,,,,,,,,,,,,,,leek,images/br_leek.png,images/cb_leek.png,,leek,,,,,,,,,,,0.079427083,0,1,0,0,leek,0,46,46,2,1
,,,,,00054,2023-10-11_18h23.30.533,vbt_B2_day3,2022.2.4,Win32,60.34638827,,,,,,,,,,,,,,,,,,,,makieren,images/br_makieren.png,images/cb_makieren.png,,makieren,,,,,,,,,,,0.451822917,-0.036458333,1,0,0,makieren,0,47,47,36,1
,,,,,00054,2023-10-11_18h23.30.533,vbt_B2_day3,2022.2.4,Win32,60.34638827,,,,,,,,,,,,,,,,,,,,schodel,images/br_schodel.png,images/cb_schodel.png,,schoden,,,,,,,,,,,0.259114583,-0.002604167,1,0,0,schoden,0,48,48,33,1
,,,,,00054,2023-10-11_18h23.30.533,vbt_B2_day3,2022.2.4,Win32,60.34638827,,,,,,,,,,,,,,,,,,,,leemaken,images/br_leemaken.png,images/cb_leemaken.png,,leemaken,,,,,,,,,,,0.403645833,0.010416667,1,0,0,leemaken,0,49,49,39,1
,,,,,00054,2023-10-11_18h23.30.533,vbt_B2_day3,2022.2.4,Win32,60.34638827,,,,,,,,,,,,,,,,,,,,afbopen,images/br_afbopen.png,images/cb_afbopen.png,,aflopen,,,,,,,,,,,0.484375,-0.037760417,1,0,0,aflopen,0,50,50,34,1
,,,,,00054,2023-10-11_18h23.30.533,vbt_B2_day3,2022.2.4,Win32,60.34638827,,,,,,,,,,,,,,,,,,,,geluid,images/br_geluid.png,images/cb_geluid.png,,geluid,,,,,,,,,,,0.3125,0.026041667,1,0,0,geluid,0,51,51,10,1
,,,,,00054,2023-10-11_18h23.30.533,vbt_B2_day3,2022.2.4,Win32,60.34638827,,,,,,,,,,,,,,,,,,,,uviek,images/br_uviek.png,images/cb_uviek.png,,uviek,,,,,,,,,,,0.3203125,0.029947917,1,0,0,uviek,0,52,52,25,1
,,,,,00054,2023-10-11_18h23.30.533,vbt_B2_day3,2022.2.4,Win32,60.34638827,,,,,,,,,,,,,,,,,,,,booien,images/br_booien.png,images/cb_booien.png,,booien,,,,,,,,,,,0.4296875,0.071614583,1,0,0,booien,0,53,53,31,1
,,,,,00054,2023-10-11_18h23.30.533,vbt_B2_day3,2022.2.4,Win32,60.34638827,,,,,,,,,,,,,,,,,,,,eens,images/br_eens.png,images/cb_eens.png,,eens,,,,,,,,,,,0.21484375,-0.033854167,1,0,0,eens,0,54,54,40,1
,,,,,00054,2023-10-11_18h23.30.533,vbt_B2_day3,2022.2.4,Win32,60.34638827,,,,,,,,,,,,,,,,,,,,stoom,images/br_stoom.png,images/cb_stoom.png,,stoom,,,,,,,,,,,0.493489583,0.087239583,1,0,0,stoom,0,55,55,6,1
,,,,,00054,2023-10-11_18h23.30.533,vbt_B2_day3,2022.2.4,Win32,60.34638827,,,,,,,,,,,,,,,,,,,,prikken,images/br_prikken.png,images/cb_prikken.png,,prikken,,,,,,,,,,,0.2265625,-0.045572917,1,0,0,prikken,0,56,56,12,1
,,,,,00054,2023-10-11_18h23.30.533,vbt_B2_day3,2022.2.4,Win32,60.34638827,,,,,,,,,,,,,,,,,,,,hust,images/br_hust.png,images/cb_hust.png,,hust,,,,,,,,,,,0.21484375,-0.002604167,1,0,0,hust,0,57,57,23,1
,,,,,00054,2023-10-11_18h23.30.533,vbt_B2_day3,2022.2.4,Win32,60.34638827,,,,,,,,,,,,,,,,,,,,aarzelen,images/br_aarzelen.png,images/cb_aarzelen.png,,aarzelen,,,,,,,,,,,0.10546875,-0.037760417,1,0,0,aarzelen,0,58,58,19,1
,,,,,00054,2023-10-11_18h23.30.533,vbt_B2_day3,2022.2.4,Win32,60.34638827,,,,,,,,,,,,,,,,,,,,hint,images/br_hint.png,images/cb_hint.png,,hint,,,,,,,,,,,0.401041667,-0.02734375,1,0,0,hint,0,59,59,43,1
,,,,,00054,2023-10-11_18h23.30.533,vbt_B2_day3,2022.2.4,Win32,60.34638827,,,,,,,,,,,,,,,,,,,,,,,,,,,,,,,,,,,,,,,,,,,,,
