welcome_mouse.x,welcome_mouse.y,welcome_mouse.leftButton,welcome_mouse.midButton,welcome_mouse.rightButton,"ID",date,expName,psychopyVersion,OS,frameRate,trainInstr_mouse.x,trainInstr_mouse.y,trainInstr_mouse.leftButton,trainInstr_mouse.midButton,trainInstr_mouse.rightButton,translation_key.keys,translation_key.corr,translation_key.rt,testResp,word_rsp.text,trWrd_mouse.x,trWrd_mouse.y,trWrd_mouse.leftButton,trWrd_mouse.midButton,trWrd_mouse.rightButton,train_loop.thisRepN,train_loop.thisTrialN,train_loop.thisN,train_loop.thisIndex,train_loop.ran,nlWrd,brWrd,cbWrd,test,mouse.x,mouse.y,mouse.leftButton,mouse.midButton,mouse.rightButton,testInstr_mouse.x,testInstr_mouse.y,testInstr_mouse.leftButton,testInstr_mouse.midButton,testInstr_mouse.rightButton,test_mouse.x,test_mouse.y,test_mouse.leftButton,test_mouse.midButton,test_mouse.rightButton,test_response.text,test_loop.thisRepN,test_loop.thisTrialN,test_loop.thisN,test_loop.thisIndex,test_loop.ran
-0.173611111,-0.301388889,1,0,0,00114,2023-12-09_23h50.58.309,vbt_B2_day3,2022.2.4,Win32,47.36642668,,,,,,,,,,,,,,,,,,,,,,,,,,,,,,,,,,,,,,,,,,,,,
,,,,,00114,2023-12-09_23h50.58.309,vbt_B2_day3,2022.2.4,Win32,47.36642668,-0.173611111,-0.301388889,1,0,0,,,,,,,,,,,,,,,,,,,,,,,,,,,,,,,,,,,,,,,,
,,,,,00114,2023-12-09_23h50.58.309,vbt_B2_day3,2022.2.4,Win32,47.36642668,,,,,,down,0,7.7732,knielen,,-0.269444444,-0.468055556,1,0,0,0,0,0,141,1,knielen,images/br_knielen.png,images/cb_knielen.png,1,,,,,,,,,,,,,,,,,,,,,
,,,,,00114,2023-12-09_23h50.58.309,vbt_B2_day3,2022.2.4,Win32,47.36642668,,,,,,down,0,3.1769,,,-0.269444444,-0.468055556,1,0,0,0,1,1,170,1,schatten,images/br_schatten.png,images/cb_schatten.png,0,,,,,,,,,,,,,,,,,,,,,
,,,,,00114,2023-12-09_23h50.58.309,vbt_B2_day3,2022.2.4,Win32,47.36642668,,,,,,down,0,3.8825,,,-0.269444444,-0.468055556,1,0,0,0,2,2,195,1,middelen,images/br_middelen.png,images/cb_middelen.png,0,,,,,,,,,,,,,,,,,,,,,
,,,,,00114,2023-12-09_23h50.58.309,vbt_B2_day3,2022.2.4,Win32,47.36642668,,,,,,down,0,0.3557,,,-0.269444444,-0.468055556,1,0,0,0,3,3,77,1,woede,images/br_woede.png,images/cb_woede.png,0,,,,,,,,,,,,,,,,,,,,,
,,,,,00114,2023-12-09_23h50.58.309,vbt_B2_day3,2022.2.4,Win32,47.36642668,,,,,,down,0,3.7501,,,-0.269444444,-0.468055556,1,0,0,0,4,4,165,1,feestdag,images/br_feestdag.png,images/cb_feestdag.png,0,,,,,,,,,,,,,,,,,,,,,
,,,,,00114,2023-12-09_23h50.58.309,vbt_B2_day3,2022.2.4,Win32,47.36642668,,,,,,down,0,10.6822,snuiven,,-0.269444444,-0.468055556,1,0,0,0,5,5,142,1,snuiven,images/br_snuiven.png,images/cb_snuiven.png,1,,,,,,,,,,,,,,,,,,,,,
,,,,,00114,2023-12-09_23h50.58.309,vbt_B2_day3,2022.2.4,Win32,47.36642668,,,,,,down,0,9.9176,,,-0.269444444,-0.468055556,1,0,0,0,6,6,193,1,weeshuis,images/br_weeshuis.png,images/cb_weeshuis.png,0,,,,,,,,,,,,,,,,,,,,,
,,,,,00114,2023-12-09_23h50.58.309,vbt_B2_day3,2022.2.4,Win32,47.36642668,,,,,,down,0,0.8969,,,-0.269444444,-0.468055556,1,0,0,0,7,7,34,1,vorm,images/br_vorm.png,images/cb_vorm.png,0,,,,,,,,,,,,,,,,,,,,,
,,,,,00114,2023-12-09_23h50.58.309,vbt_B2_day3,2022.2.4,Win32,47.36642668,,,,,,down,0,1.4047,,,-0.269444444,-0.468055556,1,0,0,0,8,8,124,1,bloeien,images/br_bloeien.png,images/cb_bloeien.png,0,,,,,,,,,,,,,,,,,,,,,
,,,,,00114,2023-12-09_23h50.58.309,vbt_B2_day3,2022.2.4,Win32,47.36642668,,,,,,down,0,2.5427,,,-0.269444444,-0.468055556,1,0,0,0,9,9,130,1,keihard,images/br_keihard.png,images/cb_keihard.png,0,,,,,,,,,,,,,,,,,,,,,
,,,,,00114,2023-12-09_23h50.58.309,vbt_B2_day3,2022.2.4,Win32,47.36642668,,,,,,down,0,1.5421,,,-0.269444444,-0.468055556,1,0,0,0,10,10,56,1,traag,images/br_traag.png,images/cb_traag.png,0,,,,,,,,,,,,,,,,,,,,,
,,,,,00114,2023-12-09_23h50.58.309,vbt_B2_day3,2022.2.4,Win32,47.36642668,,,,,,down,0,3.0846,,,-0.269444444,-0.468055556,1,0,0,0,11,11,65,1,parel,images/br_parel.png,images/cb_parel.png,0,,,,,,,,,,,,,,,,,,,,,
,,,,,00114,2023-12-09_23h50.58.309,vbt_B2_day3,2022.2.4,Win32,47.36642668,,,,,,down,0,0.3361,,,-0.269444444,-0.468055556,1,0,0,0,12,12,33,1,vlek,images/br_vlek.png,images/cb_vlek.png,0,,,,,,,,,,,,,,,,,,,,,
,,,,,00114,2023-12-09_23h50.58.309,vbt_B2_day3,2022.2.4,Win32,47.36642668,,,,,,down,0,1.3789,,,-0.269444444,-0.468055556,1,0,0,0,13,13,118,1,vinger,images/br_vinger.png,images/cb_vinger.png,0,,,,,,,,,,,,,,,,,,,,,
,,,,,00114,2023-12-09_23h50.58.309,vbt_B2_day3,2022.2.4,Win32,47.36642668,,,,,,down,0,0.6383,,,-0.269444444,-0.468055556,1,0,0,0,14,14,51,1,samen,images/br_samen.png,images/cb_samen.png,0,,,,,,,,,,,,,,,,,,,,,
,,,,,00114,2023-12-09_23h50.58.309,vbt_B2_day3,2022.2.4,Win32,47.36642668,,,,,,down,0,2.5215,,,-0.269444444,-0.468055556,1,0,0,0,15,15,98,1,kreeft,images/br_kreeft.png,images/cb_kreeft.png,0,,,,,,,,,,,,,,,,,,,,,
,,,,,00114,2023-12-09_23h50.58.309,vbt_B2_day3,2022.2.4,Win32,47.36642668,,,,,,down,0,0.3762,,,-0.269444444,-0.468055556,1,0,0,0,16,16,13,1,kaal,images/br_kaal.png,images/cb_kaal.png,0,,,,,,,,,,,,,,,,,,,,,
,,,,,00114,2023-12-09_23h50.58.309,vbt_B2_day3,2022.2.4,Win32,47.36642668,,,,,,down,0,5.5423,toegeven,,-0.269444444,-0.468055556,1,0,0,0,17,17,181,1,toegeven,images/br_toegeven.png,images/cb_toegeven.png,1,,,,,,,,,,,,,,,,,,,,,
,,,,,00114,2023-12-09_23h50.58.309,vbt_B2_day3,2022.2.4,Win32,47.36642668,,,,,,down,0,3.501,,,-0.269444444,-0.468055556,1,0,0,0,18,18,110,1,zuster,images/br_zuster.png,images/cb_zuster.png,0,,,,,,,,,,,,,,,,,,,,,
,,,,,00114,2023-12-09_23h50.58.309,vbt_B2_day3,2022.2.4,Win32,47.36642668,,,,,,down,0,13.6029,,,-0.269444444,-0.468055556,1,0,0,0,19,19,172,1,weigeren,images/br_weigeren.png,images/cb_weigeren.png,0,,,,,,,,,,,,,,,,,,,,,
,,,,,00114,2023-12-09_23h50.58.309,vbt_B2_day3,2022.2.4,Win32,47.36642668,,,,,,down,0,0.2305,,,-0.269444444,-0.468055556,1,0,0,0,20,20,30,1,uien,images/br_uien.png,images/cb_uien.png,0,,,,,,,,,,,,,,,,,,,,,
,,,,,00114,2023-12-09_23h50.58.309,vbt_B2_day3,2022.2.4,Win32,47.36642668,,,,,,down,0,3.1061,,,-0.269444444,-0.468055556,1,0,0,0,21,21,94,1,oceaan,images/br_oceaan.png,images/cb_oceaan.png,0,,,,,,,,,,,,,,,,,,,,,
,,,,,00114,2023-12-09_23h50.58.309,vbt_B2_day3,2022.2.4,Win32,47.36642668,,,,,,down,0,4.8799,,,-0.269444444,-0.468055556,1,0,0,0,22,22,129,1,verhaal,images/br_verhaal.png,images/cb_verhaal.png,0,,,,,,,,,,,,,,,,,,,,,
,,,,,00114,2023-12-09_23h50.58.309,vbt_B2_day3,2022.2.4,Win32,47.36642668,,,,,,down,0,4.9383,,,-0.269444444,-0.468055556,1,0,0,0,23,23,154,1,aflopen,images/br_aflopen.png,images/cb_aflopen.png,0,,,,,,,,,,,,,,,,,,,,,
,,,,,00114,2023-12-09_23h50.58.309,vbt_B2_day3,2022.2.4,Win32,47.36642668,,,,,,down,0,2.9801,,,-0.269444444,-0.468055556,1,0,0,0,24,24,54,1,gebit,images/br_gebit.png,images/cb_gebit.png,0,,,,,,,,,,,,,,,,,,,,,
,,,,,00114,2023-12-09_23h50.58.309,vbt_B2_day3,2022.2.4,Win32,47.36642668,,,,,,down,0,1.5725,flirt,,-0.269444444,-0.468055556,1,0,0,0,25,25,63,1,flirt,images/br_flirt.png,images/cb_flirt.png,1,,,,,,,,,,,,,,,,,,,,,
,,,,,00114,2023-12-09_23h50.58.309,vbt_B2_day3,2022.2.4,Win32,47.36642668,,,,,,down,0,1.2721,,,-0.269444444,-0.468055556,1,0,0,0,26,26,186,1,voorraad,images/br_voorraad.png,images/cb_voorraad.png,0,,,,,,,,,,,,,,,,,,,,,
,,,,,00114,2023-12-09_23h50.58.309,vbt_B2_day3,2022.2.4,Win32,47.36642668,,,,,,down,0,2.7508,,,-0.269444444,-0.468055556,1,0,0,0,27,27,151,1,aanzoek,images/br_aanzoek.png,images/cb_aanzoek.png,0,,,,,,,,,,,,,,,,,,,,,
,,,,,00114,2023-12-09_23h50.58.309,vbt_B2_day3,2022.2.4,Win32,47.36642668,,,,,,down,0,1.1687,,,-0.269444444,-0.468055556,1,0,0,0,28,28,41,1,maken,images/br_maken.png,images/cb_maken.png,0,,,,,,,,,,,,,,,,,,,,,
,,,,,00114,2023-12-09_23h50.58.309,vbt_B2_day3,2022.2.4,Win32,47.36642668,,,,,,down,0,6.668,jasje,,-0.269444444,-0.468055556,1,0,0,0,29,29,60,1,jasje,images/br_jasje.png,images/cb_jasje.png,1,,,,,,,,,,,,,,,,,,,,,
,,,,,00114,2023-12-09_23h50.58.309,vbt_B2_day3,2022.2.4,Win32,47.36642668,,,,,,down,0,0.9376,,,-0.269444444,-0.468055556,1,0,0,0,30,30,139,1,stiekem,images/br_stiekem.png,images/cb_stiekem.png,0,,,,,,,,,,,,,,,,,,,,,
,,,,,00114,2023-12-09_23h50.58.309,vbt_B2_day3,2022.2.4,Win32,47.36642668,,,,,,down,0,2.6718,,,-0.269444444,-0.468055556,1,0,0,0,31,31,105,1,wijlen,images/br_wijlen.png,images/cb_wijlen.png,0,,,,,,,,,,,,,,,,,,,,,
,,,,,00114,2023-12-09_23h50.58.309,vbt_B2_day3,2022.2.4,Win32,47.36642668,,,,,,down,0,7.7515,,,-0.269444444,-0.468055556,1,0,0,0,32,32,125,1,aanzien,images/br_aanzien.png,images/cb_aanzien.png,0,,,,,,,,,,,,,,,,,,,,,
,,,,,00114,2023-12-09_23h50.58.309,vbt_B2_day3,2022.2.4,Win32,47.36642668,,,,,,down,0,0.6492,,,-0.269444444,-0.468055556,1,0,0,0,33,33,25,1,plek,images/br_plek.png,images/cb_plek.png,0,,,,,,,,,,,,,,,,,,,,,
,,,,,00114,2023-12-09_23h50.58.309,vbt_B2_day3,2022.2.4,Win32,47.36642668,,,,,,down,0,0.9189,,,-0.269444444,-0.468055556,1,0,0,0,34,34,79,1,nodig,images/br_nodig.png,images/cb_nodig.png,0,,,,,,,,,,,,,,,,,,,,,
,,,,,00114,2023-12-09_23h50.58.309,vbt_B2_day3,2022.2.4,Win32,47.36642668,,,,,,down,0,0.2508,,,-0.269444444,-0.468055556,1,0,0,0,35,35,84,1,lokken,images/br_lokken.png,images/cb_lokken.png,0,,,,,,,,,,,,,,,,,,,,,
,,,,,00114,2023-12-09_23h50.58.309,vbt_B2_day3,2022.2.4,Win32,47.36642668,,,,,,down,0,1.19,,,-0.269444444,-0.468055556,1,0,0,0,36,36,188,1,strekken,images/br_strekken.png,images/cb_strekken.png,0,,,,,,,,,,,,,,,,,,,,,
,,,,,00114,2023-12-09_23h50.58.309,vbt_B2_day3,2022.2.4,Win32,47.36642668,,,,,,down,0,6.7092,,,-0.269444444,-0.468055556,1,0,0,0,37,37,190,1,goedkoop,images/br_goedkoop.png,images/cb_goedkoop.png,0,,,,,,,,,,,,,,,,,,,,,
,,,,,00114,2023-12-09_23h50.58.309,vbt_B2_day3,2022.2.4,Win32,47.36642668,,,,,,down,0,0.981,,,-0.269444444,-0.468055556,1,0,0,0,38,38,53,1,baron,images/br_baron.png,images/cb_baron.png,0,,,,,,,,,,,,,,,,,,,,,
,,,,,00114,2023-12-09_23h50.58.309,vbt_B2_day3,2022.2.4,Win32,47.36642668,,,,,,down,0,4.5658,,,-0.269444444,-0.468055556,1,0,0,0,39,39,158,1,innemen,images/br_innemen.png,images/cb_innemen.png,0,,,,,,,,,,,,,,,,,,,,,
,,,,,00114,2023-12-09_23h50.58.309,vbt_B2_day3,2022.2.4,Win32,47.36642668,,,,,,down,0,0.8541,,,-0.269444444,-0.468055556,1,0,0,0,40,40,76,1,afval,images/br_afval.png,images/cb_afval.png,0,,,,,,,,,,,,,,,,,,,,,
,,,,,00114,2023-12-09_23h50.58.309,vbt_B2_day3,2022.2.4,Win32,47.36642668,,,,,,down,0,2.7096,,,-0.269444444,-0.468055556,1,0,0,0,41,41,24,1,jurk,images/br_jurk.png,images/cb_jurk.png,0,,,,,,,,,,,,,,,,,,,,,
,,,,,00114,2023-12-09_23h50.58.309,vbt_B2_day3,2022.2.4,Win32,47.36642668,,,,,,down,0,1.584,staren,,-0.269444444,-0.468055556,1,0,0,0,42,42,101,1,staren,images/br_staren.png,images/cb_staren.png,1,,,,,,,,,,,,,,,,,,,,,
,,,,,00114,2023-12-09_23h50.58.309,vbt_B2_day3,2022.2.4,Win32,47.36642668,,,,,,down,0,2.1565,,,-0.269444444,-0.468055556,1,0,0,0,43,43,44,1,flits,images/br_flits.png,images/cb_flits.png,0,,,,,,,,,,,,,,,,,,,,,
,,,,,00114,2023-12-09_23h50.58.309,vbt_B2_day3,2022.2.4,Win32,47.36642668,,,,,,down,0,4.2904,,,-0.269444444,-0.468055556,1,0,0,0,44,44,145,1,invloed,images/br_invloed.png,images/cb_invloed.png,0,,,,,,,,,,,,,,,,,,,,,
,,,,,00114,2023-12-09_23h50.58.309,vbt_B2_day3,2022.2.4,Win32,47.36642668,,,,,,down,0,0.8347,,,-0.269444444,-0.468055556,1,0,0,0,45,45,39,1,laag,images/br_laag.png,images/cb_laag.png,0,,,,,,,,,,,,,,,,,,,,,
,,,,,00114,2023-12-09_23h50.58.309,vbt_B2_day3,2022.2.4,Win32,47.36642668,,,,,,down,0,6.2493,,,-0.269444444,-0.468055556,1,0,0,0,46,46,86,1,woning,images/br_woning.png,images/cb_woning.png,0,,,,,,,,,,,,,,,,,,,,,
,,,,,00114,2023-12-09_23h50.58.309,vbt_B2_day3,2022.2.4,Win32,47.36642668,,,,,,down,0,0.1889,,,-0.269444444,-0.468055556,1,0,0,0,47,47,6,1,diep,images/br_diep.png,images/cb_diep.png,0,,,,,,,,,,,,,,,,,,,,,
,,,,,00114,2023-12-09_23h50.58.309,vbt_B2_day3,2022.2.4,Win32,47.36642668,,,,,,down,0,5.7101,geduld,,-0.269444444,-0.468055556,1,0,0,0,48,48,100,1,geduld,images/br_geduld.png,images/cb_geduld.png,1,,,,,,,,,,,,,,,,,,,,,
,,,,,00114,2023-12-09_23h50.58.309,vbt_B2_day3,2022.2.4,Win32,47.36642668,,,,,,down,0,3.0257,,,-0.269444444,-0.468055556,1,0,0,0,49,49,99,1,koffie,images/br_koffie.png,images/cb_koffie.png,0,,,,,,,,,,,,,,,,,,,,,
,,,,,00114,2023-12-09_23h50.58.309,vbt_B2_day3,2022.2.4,Win32,47.36642668,,,,,,down,0,0.5433,,,-0.269444444,-0.468055556,1,0,0,0,50,50,97,1,loyaal,images/br_loyaal.png,images/cb_loyaal.png,0,,,,,,,,,,,,,,,,,,,,,
,,,,,00114,2023-12-09_23h50.58.309,vbt_B2_day3,2022.2.4,Win32,47.36642668,,,,,,down,0,0.8527,,,-0.269444444,-0.468055556,1,0,0,0,51,51,57,1,steek,images/br_steek.png,images/cb_steek.png,0,,,,,,,,,,,,,,,,,,,,,
,,,,,00114,2023-12-09_23h50.58.309,vbt_B2_day3,2022.2.4,Win32,47.36642668,,,,,,down,0,5.6308,,,-0.269444444,-0.468055556,1,0,0,0,52,52,176,1,techniek,images/br_techniek.png,images/cb_techniek.png,0,,,,,,,,,,,,,,,,,,,,,
,,,,,00114,2023-12-09_23h50.58.309,vbt_B2_day3,2022.2.4,Win32,47.36642668,,,,,,down,0,0.8343,,,-0.269444444,-0.468055556,1,0,0,0,53,53,115,1,kleren,images/br_kleren.png,images/cb_kleren.png,0,,,,,,,,,,,,,,,,,,,,,
,,,,,00114,2023-12-09_23h50.58.309,vbt_B2_day3,2022.2.4,Win32,47.36642668,,,,,,down,0,1.5869,,,-0.269444444,-0.468055556,1,0,0,0,54,54,160,1,daarheen,images/br_daarheen.png,images/cb_daarheen.png,0,,,,,,,,,,,,,,,,,,,,,
,,,,,00114,2023-12-09_23h50.58.309,vbt_B2_day3,2022.2.4,Win32,47.36642668,,,,,,down,0,4.1051,,,-0.269444444,-0.468055556,1,0,0,0,55,55,104,1,zweven,images/br_zweven.png,images/cb_zweven.png,0,,,,,,,,,,,,,,,,,,,,,
,,,,,00114,2023-12-09_23h50.58.309,vbt_B2_day3,2022.2.4,Win32,47.36642668,,,,,,down,0,4.2178,groen,,-0.269444444,-0.468055556,1,0,0,0,56,56,61,1,groen,images/br_groen.png,images/cb_groen.png,1,,,,,,,,,,,,,,,,,,,,,
,,,,,00114,2023-12-09_23h50.58.309,vbt_B2_day3,2022.2.4,Win32,47.36642668,,,,,,down,0,2.8895,,,-0.269444444,-0.468055556,1,0,0,0,57,57,192,1,schaamte,images/br_schaamte.png,images/cb_schaamte.png,0,,,,,,,,,,,,,,,,,,,,,
,,,,,00114,2023-12-09_23h50.58.309,vbt_B2_day3,2022.2.4,Win32,47.36642668,,,,,,down,0,0.3992,,,-0.269444444,-0.468055556,1,0,0,0,58,58,49,1,laken,images/br_laken.png,images/cb_laken.png,0,,,,,,,,,,,,,,,,,,,,,
,,,,,00114,2023-12-09_23h50.58.309,vbt_B2_day3,2022.2.4,Win32,47.36642668,,,,,,down,0,0.2542,,,-0.269444444,-0.468055556,1,0,0,0,59,59,36,1,vuur,images/br_vuur.png,images/cb_vuur.png,0,,,,,,,,,,,,,,,,,,,,,
,,,,,00114,2023-12-09_23h50.58.309,vbt_B2_day3,2022.2.4,Win32,47.36642668,,,,,,down,0,0.9803,,,-0.269444444,-0.468055556,1,0,0,0,60,60,81,1,dubbel,images/br_dubbel.png,images/cb_dubbel.png,0,,,,,,,,,,,,,,,,,,,,,
,,,,,00114,2023-12-09_23h50.58.309,vbt_B2_day3,2022.2.4,Win32,47.36642668,,,,,,down,0,0.6471,,,-0.269444444,-0.468055556,1,0,0,0,61,61,72,1,strak,images/br_strak.png,images/cb_strak.png,0,,,,,,,,,,,,,,,,,,,,,
,,,,,00114,2023-12-09_23h50.58.309,vbt_B2_day3,2022.2.4,Win32,47.36642668,,,,,,down,0,0.1467,,,-0.269444444,-0.468055556,1,0,0,0,62,62,8,1,knie,images/br_knie.png,images/cb_knie.png,0,,,,,,,,,,,,,,,,,,,,,
,,,,,00114,2023-12-09_23h50.58.309,vbt_B2_day3,2022.2.4,Win32,47.36642668,,,,,,down,0,1.4807,,,-0.269444444,-0.468055556,1,0,0,0,63,63,67,1,zwart,images/br_zwart.png,images/cb_zwart.png,0,,,,,,,,,,,,,,,,,,,,,
,,,,,00114,2023-12-09_23h50.58.309,vbt_B2_day3,2022.2.4,Win32,47.36642668,,,,,,down,0,2.6931,,,-0.269444444,-0.468055556,1,0,0,0,64,64,197,1,spanning,images/br_spanning.png,images/cb_spanning.png,0,,,,,,,,,,,,,,,,,,,,,
,,,,,00114,2023-12-09_23h50.58.309,vbt_B2_day3,2022.2.4,Win32,47.36642668,,,,,,down,0,1.4436,,,-0.269444444,-0.468055556,1,0,0,0,65,65,174,1,stemming,images/br_stemming.png,images/cb_stemming.png,0,,,,,,,,,,,,,,,,,,,,,
,,,,,00114,2023-12-09_23h50.58.309,vbt_B2_day3,2022.2.4,Win32,47.36642668,,,,,,down,0,11.5337,,,-0.269444444,-0.468055556,1,0,0,0,66,66,69,1,waken,images/br_waken.png,images/cb_waken.png,0,,,,,,,,,,,,,,,,,,,,,
,,,,,00114,2023-12-09_23h50.58.309,vbt_B2_day3,2022.2.4,Win32,47.36642668,,,,,,down,0,2.1309,,,-0.269444444,-0.468055556,1,0,0,0,67,67,159,1,sufferd,images/br_sufferd.png,images/cb_sufferd.png,0,,,,,,,,,,,,,,,,,,,,,
,,,,,00114,2023-12-09_23h50.58.309,vbt_B2_day3,2022.2.4,Win32,47.36642668,,,,,,down,0,1.1138,,,-0.269444444,-0.468055556,1,0,0,0,68,68,10,1,leek,images/br_leek.png,images/cb_leek.png,0,,,,,,,,,,,,,,,,,,,,,
,,,,,00114,2023-12-09_23h50.58.309,vbt_B2_day3,2022.2.4,Win32,47.36642668,,,,,,down,0,1.9593,,,-0.269444444,-0.468055556,1,0,0,0,69,69,16,1,ziek,images/br_ziek.png,images/cb_ziek.png,0,,,,,,,,,,,,,,,,,,,,,
,,,,,00114,2023-12-09_23h50.58.309,vbt_B2_day3,2022.2.4,Win32,47.36642668,,,,,,down,0,0.379,,,-0.269444444,-0.468055556,1,0,0,0,70,70,112,1,lukken,images/br_lukken.png,images/cb_lukken.png,0,,,,,,,,,,,,,,,,,,,,,
,,,,,00114,2023-12-09_23h50.58.309,vbt_B2_day3,2022.2.4,Win32,47.36642668,,,,,,down,0,2.439,,,-0.269444444,-0.468055556,1,0,0,0,71,71,157,1,uitlaat,images/br_uitlaat.png,images/cb_uitlaat.png,0,,,,,,,,,,,,,,,,,,,,,
,,,,,00114,2023-12-09_23h50.58.309,vbt_B2_day3,2022.2.4,Win32,47.36642668,,,,,,down,0,3.7983,,,-0.269444444,-0.468055556,1,0,0,0,72,72,93,1,waarop,images/br_waarop.png,images/cb_waarop.png,0,,,,,,,,,,,,,,,,,,,,,
,,,,,00114,2023-12-09_23h50.58.309,vbt_B2_day3,2022.2.4,Win32,47.36642668,,,,,,down,0,3.8767,,,-0.269444444,-0.468055556,1,0,0,0,73,73,147,1,komisch,images/br_komisch.png,images/cb_komisch.png,0,,,,,,,,,,,,,,,,,,,,,
,,,,,00114,2023-12-09_23h50.58.309,vbt_B2_day3,2022.2.4,Win32,47.36642668,,,,,,down,0,6.8614,,,-0.269444444,-0.468055556,1,0,0,0,74,74,121,1,twijfel,images/br_twijfel.png,images/cb_twijfel.png,0,,,,,,,,,,,,,,,,,,,,,
,,,,,00114,2023-12-09_23h50.58.309,vbt_B2_day3,2022.2.4,Win32,47.36642668,,,,,,down,0,8.674,,,-0.269444444,-0.468055556,1,0,0,0,75,75,196,1,nakijken,images/br_nakijken.png,images/cb_nakijken.png,0,,,,,,,,,,,,,,,,,,,,,
,,,,,00114,2023-12-09_23h50.58.309,vbt_B2_day3,2022.2.4,Win32,47.36642668,,,,,,down,0,2.0006,,,-0.269444444,-0.468055556,1,0,0,0,76,76,189,1,aanraden,images/br_aanraden.png,images/cb_aanraden.png,0,,,,,,,,,,,,,,,,,,,,,
,,,,,00114,2023-12-09_23h50.58.309,vbt_B2_day3,2022.2.4,Win32,47.36642668,,,,,,down,0,5.0412,,,-0.269444444,-0.468055556,1,0,0,0,77,77,187,1,opkijken,images/br_opkijken.png,images/cb_opkijken.png,0,,,,,,,,,,,,,,,,,,,,,
,,,,,00114,2023-12-09_23h50.58.309,vbt_B2_day3,2022.2.4,Win32,47.36642668,,,,,,down,0,3.2727,,,-0.269444444,-0.468055556,1,0,0,0,78,78,59,1,kring,images/br_kring.png,images/cb_kring.png,0,,,,,,,,,,,,,,,,,,,,,
,,,,,00114,2023-12-09_23h50.58.309,vbt_B2_day3,2022.2.4,Win32,47.36642668,,,,,,down,0,10.293,bijkomen,,-0.269444444,-0.468055556,1,0,0,0,79,79,182,1,bijkomen,images/br_bijkomen.png,images/cb_bijkomen.png,1,,,,,,,,,,,,,,,,,,,,,
,,,,,00114,2023-12-09_23h50.58.309,vbt_B2_day3,2022.2.4,Win32,47.36642668,,,,,,down,0,12.0128,,,-0.269444444,-0.468055556,1,0,0,0,80,80,136,1,waarbij,images/br_waarbij.png,images/cb_waarbij.png,0,,,,,,,,,,,,,,,,,,,,,
,,,,,00114,2023-12-09_23h50.58.309,vbt_B2_day3,2022.2.4,Win32,47.36642668,,,,,,down,0,0.6264,,,-0.269444444,-0.468055556,1,0,0,0,81,81,109,1,totaal,images/br_totaal.png,images/cb_totaal.png,0,,,,,,,,,,,,,,,,,,,,,
,,,,,00114,2023-12-09_23h50.58.309,vbt_B2_day3,2022.2.4,Win32,47.36642668,,,,,,down,0,1.3346,,,-0.269444444,-0.468055556,1,0,0,0,82,82,177,1,maaltijd,images/br_maaltijd.png,images/cb_maaltijd.png,0,,,,,,,,,,,,,,,,,,,,,
,,,,,00114,2023-12-09_23h50.58.309,vbt_B2_day3,2022.2.4,Win32,47.36642668,,,,,,down,0,0.7648,,,-0.269444444,-0.468055556,1,0,0,0,83,83,70,1,ijdel,images/br_ijdel.png,images/cb_ijdel.png,0,,,,,,,,,,,,,,,,,,,,,
,,,,,00114,2023-12-09_23h50.58.309,vbt_B2_day3,2022.2.4,Win32,47.36642668,,,,,,down,0,1.0496,,,-0.269444444,-0.468055556,1,0,0,0,84,84,38,1,baai,images/br_baai.png,images/cb_baai.png,0,,,,,,,,,,,,,,,,,,,,,
,,,,,00114,2023-12-09_23h50.58.309,vbt_B2_day3,2022.2.4,Win32,47.36642668,,,,,,down,0,9.1502,,,-0.269444444,-0.468055556,1,0,0,0,85,85,167,1,eenhoorn,images/br_eenhoorn.png,images/cb_eenhoorn.png,0,,,,,,,,,,,,,,,,,,,,,
,,,,,00114,2023-12-09_23h50.58.309,vbt_B2_day3,2022.2.4,Win32,47.36642668,,,,,,down,0,6.8345,,,-0.269444444,-0.468055556,1,0,0,0,86,86,153,1,vervoer,images/br_vervoer.png,images/cb_vervoer.png,0,,,,,,,,,,,,,,,,,,,,,
,,,,,00114,2023-12-09_23h50.58.309,vbt_B2_day3,2022.2.4,Win32,47.36642668,,,,,,down,0,6.5254,,,-0.269444444,-0.468055556,1,0,0,0,87,87,138,1,akkoord,images/br_akkoord.png,images/cb_akkoord.png,0,,,,,,,,,,,,,,,,,,,,,
,,,,,00114,2023-12-09_23h50.58.309,vbt_B2_day3,2022.2.4,Win32,47.36642668,,,,,,down,0,12.0218,getuigen,,-0.269444444,-0.468055556,1,0,0,0,88,88,183,1,getuigen,images/br_getuigen.png,images/cb_getuigen.png,1,,,,,,,,,,,,,,,,,,,,,
,,,,,00114,2023-12-09_23h50.58.309,vbt_B2_day3,2022.2.4,Win32,47.36642668,,,,,,down,0,1.0008,,,-0.269444444,-0.468055556,1,0,0,0,89,89,68,1,schat,images/br_schat.png,images/cb_schat.png,0,,,,,,,,,,,,,,,,,,,,,
,,,,,00114,2023-12-09_23h50.58.309,vbt_B2_day3,2022.2.4,Win32,47.36642668,,,,,,down,0,3.0503,,,-0.269444444,-0.468055556,1,0,0,0,90,90,37,1,mijn,images/br_mijn.png,images/cb_mijn.png,0,,,,,,,,,,,,,,,,,,,,,
,,,,,00114,2023-12-09_23h50.58.309,vbt_B2_day3,2022.2.4,Win32,47.36642668,,,,,,down,0,2.4574,,,-0.269444444,-0.468055556,1,0,0,0,91,91,2,1,jaar,images/br_jaar.png,images/cb_jaar.png,0,,,,,,,,,,,,,,,,,,,,,
,,,,,00114,2023-12-09_23h50.58.309,vbt_B2_day3,2022.2.4,Win32,47.36642668,,,,,,down,0,0.9802,,,-0.269444444,-0.468055556,1,0,0,0,92,92,5,1,blad,images/br_blad.png,images/cb_blad.png,0,,,,,,,,,,,,,,,,,,,,,
,,,,,00114,2023-12-09_23h50.58.309,vbt_B2_day3,2022.2.4,Win32,47.36642668,,,,,,down,0,0.8176,,,-0.269444444,-0.468055556,1,0,0,0,93,93,40,1,schep,images/br_schep.png,images/cb_schep.png,0,,,,,,,,,,,,,,,,,,,,,
,,,,,00114,2023-12-09_23h50.58.309,vbt_B2_day3,2022.2.4,Win32,47.36642668,,,,,,down,0,12.8346,,,-0.269444444,-0.468055556,1,0,0,0,94,94,162,1,uitdelen,images/br_uitdelen.png,images/cb_uitdelen.png,0,,,,,,,,,,,,,,,,,,,,,
,,,,,00114,2023-12-09_23h50.58.309,vbt_B2_day3,2022.2.4,Win32,47.36642668,,,,,,down,0,4.2509,hechten,,-0.269444444,-0.468055556,1,0,0,0,95,95,143,1,hechten,images/br_hechten.png,images/cb_hechten.png,1,,,,,,,,,,,,,,,,,,,,,
,,,,,00114,2023-12-09_23h50.58.309,vbt_B2_day3,2022.2.4,Win32,47.36642668,,,,,,down,0,0.2356,,,-0.269444444,-0.468055556,1,0,0,0,96,96,26,1,leuk,images/br_leuk.png,images/cb_leuk.png,0,,,,,,,,,,,,,,,,,,,,,
,,,,,00114,2023-12-09_23h50.58.309,vbt_B2_day3,2022.2.4,Win32,47.36642668,,,,,,down,0,0.7139,,,-0.269444444,-0.468055556,1,0,0,0,97,97,173,1,apparaat,images/br_apparaat.png,images/cb_apparaat.png,0,,,,,,,,,,,,,,,,,,,,,
,,,,,00114,2023-12-09_23h50.58.309,vbt_B2_day3,2022.2.4,Win32,47.36642668,,,,,,down,0,3.0467,,,-0.269444444,-0.468055556,1,0,0,0,98,98,22,1,stof,images/br_stof.png,images/cb_stof.png,1,,,,,,,,,,,,,,,,,,,,,
,,,,,00114,2023-12-09_23h50.58.309,vbt_B2_day3,2022.2.4,Win32,47.36642668,,,,,,down,0,7.209,,,-0.269444444,-0.468055556,1,0,0,0,99,99,55,1,praat,images/br_praat.png,images/cb_praat.png,0,,,,,,,,,,,,,,,,,,,,,
,,,,,00114,2023-12-09_23h50.58.309,vbt_B2_day3,2022.2.4,Win32,47.36642668,,,,,,down,0,0.4801,,,-0.269444444,-0.468055556,1,0,0,0,100,100,29,1,baas,images/br_baas.png,images/cb_baas.png,0,,,,,,,,,,,,,,,,,,,,,
,,,,,00114,2023-12-09_23h50.58.309,vbt_B2_day3,2022.2.4,Win32,47.36642668,,,,,,down,0,0.6951,,,-0.269444444,-0.468055556,1,0,0,0,101,101,35,1,lust,images/br_lust.png,images/cb_lust.png,0,,,,,,,,,,,,,,,,,,,,,
,,,,,00114,2023-12-09_23h50.58.309,vbt_B2_day3,2022.2.4,Win32,47.36642668,,,,,,down,0,1.2408,,,-0.269444444,-0.468055556,1,0,0,0,102,102,71,1,bever,images/br_bever.png,images/cb_bever.png,0,,,,,,,,,,,,,,,,,,,,,
,,,,,00114,2023-12-09_23h50.58.309,vbt_B2_day3,2022.2.4,Win32,47.36642668,,,,,,down,0,2.1265,,,-0.269444444,-0.468055556,1,0,0,0,103,103,18,1,blik,images/br_blik.png,images/cb_blik.png,0,,,,,,,,,,,,,,,,,,,,,
,,,,,00114,2023-12-09_23h50.58.309,vbt_B2_day3,2022.2.4,Win32,47.36642668,,,,,,down,0,2.8975,,,-0.269444444,-0.468055556,1,0,0,0,104,104,185,1,mijnheer,images/br_mijnheer.png,images/cb_mijnheer.png,0,,,,,,,,,,,,,,,,,,,,,
,,,,,00114,2023-12-09_23h50.58.309,vbt_B2_day3,2022.2.4,Win32,47.36642668,,,,,,down,0,2.4644,,,-0.269444444,-0.468055556,1,0,0,0,105,105,131,1,opzicht,images/br_opzicht.png,images/cb_opzicht.png,0,,,,,,,,,,,,,,,,,,,,,
,,,,,00114,2023-12-09_23h50.58.309,vbt_B2_day3,2022.2.4,Win32,47.36642668,,,,,,down,0,0.3662,,,-0.269444444,-0.468055556,1,0,0,0,106,106,43,1,klauw,images/br_klauw.png,images/cb_klauw.png,0,,,,,,,,,,,,,,,,,,,,,
,,,,,00114,2023-12-09_23h50.58.309,vbt_B2_day3,2022.2.4,Win32,47.36642668,,,,,,down,0,7.4861,,,-0.269444444,-0.468055556,1,0,0,0,107,107,73,1,volop,images/br_volop.png,images/cb_volop.png,0,,,,,,,,,,,,,,,,,,,,,
,,,,,00114,2023-12-09_23h50.58.309,vbt_B2_day3,2022.2.4,Win32,47.36642668,,,,,,down,0,4.6989,,,-0.269444444,-0.468055556,1,0,0,0,108,108,116,1,besmet,images/br_besmet.png,images/cb_besmet.png,0,,,,,,,,,,,,,,,,,,,,,
,,,,,00114,2023-12-09_23h50.58.309,vbt_B2_day3,2022.2.4,Win32,47.36642668,,,,,,down,0,2.8148,,,-0.269444444,-0.468055556,1,0,0,0,109,109,161,1,attentie,images/br_attentie.png,images/cb_attentie.png,0,,,,,,,,,,,,,,,,,,,,,
,,,,,00114,2023-12-09_23h50.58.309,vbt_B2_day3,2022.2.4,Win32,47.36642668,,,,,,down,0,6.6682,,,-0.269444444,-0.468055556,1,0,0,0,110,110,46,1,jagen,images/br_jagen.png,images/cb_jagen.png,0,,,,,,,,,,,,,,,,,,,,,
,,,,,00114,2023-12-09_23h50.58.309,vbt_B2_day3,2022.2.4,Win32,47.36642668,,,,,,down,0,0.3606,,,-0.269444444,-0.468055556,1,0,0,0,111,111,48,1,steel,images/br_steel.png,images/cb_steel.png,0,,,,,,,,,,,,,,,,,,,,,
,,,,,00114,2023-12-09_23h50.58.309,vbt_B2_day3,2022.2.4,Win32,47.36642668,,,,,,down,0,6.1448,,,-0.269444444,-0.468055556,1,0,0,0,112,112,111,1,ticket,images/br_ticket.png,images/cb_ticket.png,0,,,,,,,,,,,,,,,,,,,,,
,,,,,00114,2023-12-09_23h50.58.309,vbt_B2_day3,2022.2.4,Win32,47.36642668,,,,,,down,0,0.8348,,,-0.269444444,-0.468055556,1,0,0,0,113,113,171,1,aarzelen,images/br_aarzelen.png,images/cb_aarzelen.png,0,,,,,,,,,,,,,,,,,,,,,
,,,,,00114,2023-12-09_23h50.58.309,vbt_B2_day3,2022.2.4,Win32,47.36642668,,,,,,down,0,8.3802,,,-0.269444444,-0.468055556,1,0,0,0,114,114,80,1,kanjer,images/br_kanjer.png,images/cb_kanjer.png,0,,,,,,,,,,,,,,,,,,,,,
,,,,,00114,2023-12-09_23h50.58.309,vbt_B2_day3,2022.2.4,Win32,47.36642668,,,,,,down,0,0.5635,,,-0.269444444,-0.468055556,1,0,0,0,115,115,168,1,bisschop,images/br_bisschop.png,images/cb_bisschop.png,0,,,,,,,,,,,,,,,,,,,,,
,,,,,00114,2023-12-09_23h50.58.309,vbt_B2_day3,2022.2.4,Win32,47.36642668,,,,,,down,0,0.105,,,-0.269444444,-0.468055556,1,0,0,0,116,116,78,1,leren,images/br_leren.png,images/cb_leren.png,0,,,,,,,,,,,,,,,,,,,,,
,,,,,00114,2023-12-09_23h50.58.309,vbt_B2_day3,2022.2.4,Win32,47.36642668,,,,,,down,0,0.0672,,,-0.269444444,-0.468055556,1,0,0,0,117,117,88,1,boeien,images/br_boeien.png,images/cb_boeien.png,0,,,,,,,,,,,,,,,,,,,,,
,,,,,00114,2023-12-09_23h50.58.309,vbt_B2_day3,2022.2.4,Win32,47.36642668,,,,,,down,0,2.9384,,,-0.269444444,-0.468055556,1,0,0,0,118,118,169,1,oprotten,images/br_oprotten.png,images/cb_oprotten.png,0,,,,,,,,,,,,,,,,,,,,,
,,,,,00114,2023-12-09_23h50.58.309,vbt_B2_day3,2022.2.4,Win32,47.36642668,,,,,,down,0,8.8233,,,-0.269444444,-0.468055556,1,0,0,0,119,119,15,1,soda,images/br_soda.png,images/cb_soda.png,0,,,,,,,,,,,,,,,,,,,,,
,,,,,00114,2023-12-09_23h50.58.309,vbt_B2_day3,2022.2.4,Win32,47.36642668,,,,,,down,0,0.6359,,,-0.269444444,-0.468055556,1,0,0,0,120,120,9,1,hier,images/br_hier.png,images/cb_hier.png,0,,,,,,,,,,,,,,,,,,,,,
,,,,,00114,2023-12-09_23h50.58.309,vbt_B2_day3,2022.2.4,Win32,47.36642668,,,,,,down,0,2.0008,knaap,,-0.269444444,-0.468055556,1,0,0,0,121,121,62,1,knaap,images/br_knaap.png,images/cb_knaap.png,1,,,,,,,,,,,,,,,,,,,,,
,,,,,00114,2023-12-09_23h50.58.309,vbt_B2_day3,2022.2.4,Win32,47.36642668,,,,,,down,0,3.2815,,,-0.269444444,-0.468055556,1,0,0,0,122,122,127,1,doodmoe,images/br_doodmoe.png,images/cb_doodmoe.png,0,,,,,,,,,,,,,,,,,,,,,
,,,,,00114,2023-12-09_23h50.58.309,vbt_B2_day3,2022.2.4,Win32,47.36642668,,,,,,down,0,0.8355,,,-0.269444444,-0.468055556,1,0,0,0,123,123,137,1,trekker,images/br_trekker.png,images/cb_trekker.png,0,,,,,,,,,,,,,,,,,,,,,
,,,,,00114,2023-12-09_23h50.58.309,vbt_B2_day3,2022.2.4,Win32,47.36642668,,,,,,down,0,7.6077,,,-0.269444444,-0.468055556,1,0,0,0,124,124,155,1,gerucht,images/br_gerucht.png,images/cb_gerucht.png,0,,,,,,,,,,,,,,,,,,,,,
,,,,,00114,2023-12-09_23h50.58.309,vbt_B2_day3,2022.2.4,Win32,47.36642668,,,,,,down,0,2.2165,,,-0.269444444,-0.468055556,1,0,0,0,125,125,117,1,kennis,images/br_kennis.png,images/cb_kennis.png,0,,,,,,,,,,,,,,,,,,,,,
,,,,,00114,2023-12-09_23h50.58.309,vbt_B2_day3,2022.2.4,Win32,47.36642668,,,,,,down,0,0.9571,,,-0.269444444,-0.468055556,1,0,0,0,126,126,132,1,grappen,images/br_grappen.png,images/cb_grappen.png,0,,,,,,,,,,,,,,,,,,,,,
,,,,,00114,2023-12-09_23h50.58.309,vbt_B2_day3,2022.2.4,Win32,47.36642668,,,,,,down,0,2.5434,,,-0.269444444,-0.468055556,1,0,0,0,127,127,75,1,snoep,images/br_snoep.png,images/cb_snoep.png,0,,,,,,,,,,,,,,,,,,,,,
,,,,,00114,2023-12-09_23h50.58.309,vbt_B2_day3,2022.2.4,Win32,47.36642668,,,,,,down,0,0.0294,,,-0.269444444,-0.468055556,1,0,0,0,128,128,90,1,geluid,images/br_geluid.png,images/cb_geluid.png,0,,,,,,,,,,,,,,,,,,,,,
,,,,,00114,2023-12-09_23h50.58.309,vbt_B2_day3,2022.2.4,Win32,47.36642668,,,,,,down,0,0.7987,,,-0.269444444,-0.468055556,1,0,0,0,129,129,0,1,slak,images/br_slak.png,images/cb_slak.png,0,,,,,,,,,,,,,,,,,,,,,
,,,,,00114,2023-12-09_23h50.58.309,vbt_B2_day3,2022.2.4,Win32,47.36642668,,,,,,down,0,1.1688,,,-0.269444444,-0.468055556,1,0,0,0,130,130,45,1,piste,images/br_piste.png,images/cb_piste.png,0,,,,,,,,,,,,,,,,,,,,,
,,,,,00114,2023-12-09_23h50.58.309,vbt_B2_day3,2022.2.4,Win32,47.36642668,,,,,,down,0,2.8202,,,-0.269444444,-0.468055556,1,0,0,0,131,131,128,1,prikken,images/br_prikken.png,images/cb_prikken.png,0,,,,,,,,,,,,,,,,,,,,,
,,,,,00114,2023-12-09_23h50.58.309,vbt_B2_day3,2022.2.4,Win32,47.36642668,,,,,,down,0,0.4109,,,-0.269444444,-0.468055556,1,0,0,0,132,132,7,1,geld,images/br_geld.png,images/cb_geld.png,0,,,,,,,,,,,,,,,,,,,,,
,,,,,00114,2023-12-09_23h50.58.309,vbt_B2_day3,2022.2.4,Win32,47.36642668,,,,,,down,0,0.3345,,,-0.269444444,-0.468055556,1,0,0,0,133,133,126,1,kasteel,images/br_kasteel.png,images/cb_kasteel.png,0,,,,,,,,,,,,,,,,,,,,,
,,,,,00114,2023-12-09_23h50.58.309,vbt_B2_day3,2022.2.4,Win32,47.36642668,,,,,,down,0,3.9687,joggen,,-0.269444444,-0.468055556,1,0,0,0,134,134,103,1,joggen,images/br_joggen.png,images/cb_joggen.png,1,,,,,,,,,,,,,,,,,,,,,
,,,,,00114,2023-12-09_23h50.58.309,vbt_B2_day3,2022.2.4,Win32,47.36642668,,,,,,down,0,2.0091,,,-0.269444444,-0.468055556,1,0,0,0,135,135,52,1,wagon,images/br_wagon.png,images/cb_wagon.png,0,,,,,,,,,,,,,,,,,,,,,
,,,,,00114,2023-12-09_23h50.58.309,vbt_B2_day3,2022.2.4,Win32,47.36642668,,,,,,down,0,2.5436,,,-0.269444444,-0.468055556,1,0,0,0,136,136,74,1,graaf,images/br_graaf.png,images/cb_graaf.png,0,,,,,,,,,,,,,,,,,,,,,
,,,,,00114,2023-12-09_23h50.58.309,vbt_B2_day3,2022.2.4,Win32,47.36642668,,,,,,down,0,2.5341,,,-0.269444444,-0.468055556,1,0,0,0,137,137,175,1,heengaan,images/br_heengaan.png,images/cb_heengaan.png,0,,,,,,,,,,,,,,,,,,,,,
,,,,,00114,2023-12-09_23h50.58.309,vbt_B2_day3,2022.2.4,Win32,47.36642668,,,,,,down,0,0.9858,,,-0.269444444,-0.468055556,1,0,0,0,138,138,58,1,tekst,images/br_tekst.png,images/cb_tekst.png,0,,,,,,,,,,,,,,,,,,,,,
,,,,,00114,2023-12-09_23h50.58.309,vbt_B2_day3,2022.2.4,Win32,47.36642668,,,,,,down,0,2.5134,,,-0.269444444,-0.468055556,1,0,0,0,139,139,149,1,redding,images/br_redding.png,images/cb_redding.png,0,,,,,,,,,,,,,,,,,,,,,
,,,,,00114,2023-12-09_23h50.58.309,vbt_B2_day3,2022.2.4,Win32,47.36642668,,,,,,down,0,2.3822,,,-0.269444444,-0.468055556,1,0,0,0,140,140,194,1,driemaal,images/br_driemaal.png,images/cb_driemaal.png,0,,,,,,,,,,,,,,,,,,,,,
,,,,,00114,2023-12-09_23h50.58.309,vbt_B2_day3,2022.2.4,Win32,47.36642668,,,,,,down,0,0.8554,,,-0.269444444,-0.468055556,1,0,0,0,141,141,31,1,poes,images/br_poes.png,images/cb_poes.png,0,,,,,,,,,,,,,,,,,,,,,
,,,,,00114,2023-12-09_23h50.58.309,vbt_B2_day3,2022.2.4,Win32,47.36642668,,,,,,down,0,2.9424,,,-0.269444444,-0.468055556,1,0,0,0,142,142,152,1,afnemen,images/br_afnemen.png,images/cb_afnemen.png,0,,,,,,,,,,,,,,,,,,,,,
,,,,,00114,2023-12-09_23h50.58.309,vbt_B2_day3,2022.2.4,Win32,47.36642668,,,,,,down,0,1.6258,,,-0.269444444,-0.468055556,1,0,0,0,143,143,198,1,bedoelen,images/br_bedoelen.png,images/cb_bedoelen.png,0,,,,,,,,,,,,,,,,,,,,,
,,,,,00114,2023-12-09_23h50.58.309,vbt_B2_day3,2022.2.4,Win32,47.36642668,,,,,,down,0,7.5491,,,-0.269444444,-0.468055556,1,0,0,0,144,144,135,1,gedicht,images/br_gedicht.png,images/cb_gedicht.png,0,,,,,,,,,,,,,,,,,,,,,
,,,,,00114,2023-12-09_23h50.58.309,vbt_B2_day3,2022.2.4,Win32,47.36642668,,,,,,down,0,5.4597,,,-0.269444444,-0.468055556,1,0,0,0,145,145,164,1,anarchie,images/br_anarchie.png,images/cb_anarchie.png,0,,,,,,,,,,,,,,,,,,,,,
,,,,,00114,2023-12-09_23h50.58.309,vbt_B2_day3,2022.2.4,Win32,47.36642668,,,,,,down,0,0.0632,,,-0.269444444,-0.468055556,1,0,0,0,146,146,114,1,vullen,images/br_vullen.png,images/cb_vullen.png,0,,,,,,,,,,,,,,,,,,,,,
,,,,,00114,2023-12-09_23h50.58.309,vbt_B2_day3,2022.2.4,Win32,47.36642668,,,,,,down,0,1.4482,,,-0.269444444,-0.468055556,1,0,0,0,147,147,47,1,kabel,images/br_kabel.png,images/cb_kabel.png,0,,,,,,,,,,,,,,,,,,,,,
,,,,,00114,2023-12-09_23h50.58.309,vbt_B2_day3,2022.2.4,Win32,47.36642668,,,,,,down,0,0.755,,,-0.269444444,-0.468055556,1,0,0,0,148,148,184,1,aandelen,images/br_aandelen.png,images/cb_aandelen.png,0,,,,,,,,,,,,,,,,,,,,,
,,,,,00114,2023-12-09_23h50.58.309,vbt_B2_day3,2022.2.4,Win32,47.36642668,,,,,,down,0,0.8754,,,-0.269444444,-0.468055556,1,0,0,0,149,149,82,1,muziek,images/br_muziek.png,images/cb_muziek.png,0,,,,,,,,,,,,,,,,,,,,,
,,,,,00114,2023-12-09_23h50.58.309,vbt_B2_day3,2022.2.4,Win32,47.36642668,,,,,,down,0,0.0633,,,-0.269444444,-0.468055556,1,0,0,0,150,150,12,1,kust,images/br_kust.png,images/cb_kust.png,0,,,,,,,,,,,,,,,,,,,,,
,,,,,00114,2023-12-09_23h50.58.309,vbt_B2_day3,2022.2.4,Win32,47.36642668,,,,,,down,0,4.0011,,,-0.269444444,-0.468055556,1,0,0,0,151,151,179,1,woestijn,images/br_woestijn.png,images/cb_woestijn.png,0,,,,,,,,,,,,,,,,,,,,,
,,,,,00114,2023-12-09_23h50.58.309,vbt_B2_day3,2022.2.4,Win32,47.36642668,,,,,,down,0,0.9192,,,-0.269444444,-0.468055556,1,0,0,0,152,152,66,1,lever,images/br_lever.png,images/cb_lever.png,0,,,,,,,,,,,,,,,,,,,,,
,,,,,00114,2023-12-09_23h50.58.309,vbt_B2_day3,2022.2.4,Win32,47.36642668,,,,,,down,0,0.3396,,,-0.269444444,-0.468055556,1,0,0,0,153,153,87,1,toeval,images/br_toeval.png,images/cb_toeval.png,0,,,,,,,,,,,,,,,,,,,,,
,,,,,00114,2023-12-09_23h50.58.309,vbt_B2_day3,2022.2.4,Win32,47.36642668,,,,,,down,0,2.6274,legaal,,-0.269444444,-0.468055556,1,0,0,0,154,154,102,1,legaal,images/br_legaal.png,images/cb_legaal.png,1,,,,,,,,,,,,,,,,,,,,,
,,,,,00114,2023-12-09_23h50.58.309,vbt_B2_day3,2022.2.4,Win32,47.36642668,,,,,,down,0,2.3349,,,-0.269444444,-0.468055556,1,0,0,0,155,155,146,1,opkomen,images/br_opkomen.png,images/cb_opkomen.png,0,,,,,,,,,,,,,,,,,,,,,
,,,,,00114,2023-12-09_23h50.58.309,vbt_B2_day3,2022.2.4,Win32,47.36642668,,,,,,down,0,0.5842,,,-0.269444444,-0.468055556,1,0,0,0,156,156,11,1,mode,images/br_mode.png,images/cb_mode.png,0,,,,,,,,,,,,,,,,,,,,,
,,,,,00114,2023-12-09_23h50.58.309,vbt_B2_day3,2022.2.4,Win32,47.36642668,,,,,,down,0,0.6673,,,-0.269444444,-0.468055556,1,0,0,0,157,157,113,1,koppen,images/br_koppen.png,images/cb_koppen.png,0,,,,,,,,,,,,,,,,,,,,,
,,,,,00114,2023-12-09_23h50.58.309,vbt_B2_day3,2022.2.4,Win32,47.36642668,,,,,,down,0,0.4786,,,-0.269444444,-0.468055556,1,0,0,0,158,158,1,1,zaal,images/br_zaal.png,images/cb_zaal.png,0,,,,,,,,,,,,,,,,,,,,,
,,,,,00114,2023-12-09_23h50.58.309,vbt_B2_day3,2022.2.4,Win32,47.36642668,,,,,,down,0,3.8395,,,-0.269444444,-0.468055556,1,0,0,0,159,159,91,1,gezond,images/br_gezond.png,images/cb_gezond.png,0,,,,,,,,,,,,,,,,,,,,,
,,,,,00114,2023-12-09_23h50.58.309,vbt_B2_day3,2022.2.4,Win32,47.36642668,,,,,,down,0,2.3558,,,-0.269444444,-0.468055556,1,0,0,0,160,160,92,1,geheim,images/br_geheim.png,images/cb_geheim.png,0,,,,,,,,,,,,,,,,,,,,,
,,,,,00114,2023-12-09_23h50.58.309,vbt_B2_day3,2022.2.4,Win32,47.36642668,,,,,,down,0,5.9178,,,-0.269444444,-0.468055556,1,0,0,0,161,161,119,1,liefje,images/br_liefje.png,images/cb_liefje.png,0,,,,,,,,,,,,,,,,,,,,,
,,,,,00114,2023-12-09_23h50.58.309,vbt_B2_day3,2022.2.4,Win32,47.36642668,,,,,,down,0,0.2937,,,-0.269444444,-0.468055556,1,0,0,0,162,162,144,1,eetlust,images/br_eetlust.png,images/cb_eetlust.png,0,,,,,,,,,,,,,,,,,,,,,
,,,,,00114,2023-12-09_23h50.58.309,vbt_B2_day3,2022.2.4,Win32,47.36642668,,,,,,down,0,0.6349,,,-0.269444444,-0.468055556,1,0,0,0,163,163,42,1,bleek,images/br_bleek.png,images/cb_bleek.png,0,,,,,,,,,,,,,,,,,,,,,
,,,,,00114,2023-12-09_23h50.58.309,vbt_B2_day3,2022.2.4,Win32,47.36642668,,,,,,down,0,2.3236,,,-0.269444444,-0.468055556,1,0,0,0,164,164,191,1,opheffen,images/br_opheffen.png,images/cb_opheffen.png,0,,,,,,,,,,,,,,,,,,,,,
,,,,,00114,2023-12-09_23h50.58.309,vbt_B2_day3,2022.2.4,Win32,47.36642668,,,,,,down,0,3.9883,,,-0.269444444,-0.468055556,1,0,0,0,165,165,4,1,moes,images/br_moes.png,images/cb_moes.png,0,,,,,,,,,,,,,,,,,,,,,
,,,,,00114,2023-12-09_23h50.58.309,vbt_B2_day3,2022.2.4,Win32,47.36642668,,,,,,down,0,0.3189,,,-0.269444444,-0.468055556,1,0,0,0,166,166,85,1,heilig,images/br_heilig.png,images/cb_heilig.png,0,,,,,,,,,,,,,,,,,,,,,
,,,,,00114,2023-12-09_23h50.58.309,vbt_B2_day3,2022.2.4,Win32,47.36642668,,,,,,down,0,9.5233,,,-0.269444444,-0.468055556,1,0,0,0,167,167,134,1,geliefd,images/br_geliefd.png,images/cb_geliefd.png,0,,,,,,,,,,,,,,,,,,,,,
,,,,,00114,2023-12-09_23h50.58.309,vbt_B2_day3,2022.2.4,Win32,47.36642668,,,,,,down,0,1.0873,,,-0.269444444,-0.468055556,1,0,0,0,168,168,166,1,strikken,images/br_strikken.png,images/cb_strikken.png,0,,,,,,,,,,,,,,,,,,,,,
,,,,,00114,2023-12-09_23h50.58.309,vbt_B2_day3,2022.2.4,Win32,47.36642668,,,,,,down,0,1.3512,,,-0.269444444,-0.468055556,1,0,0,0,169,169,133,1,seizoen,images/br_seizoen.png,images/cb_seizoen.png,0,,,,,,,,,,,,,,,,,,,,,
,,,,,00114,2023-12-09_23h50.58.309,vbt_B2_day3,2022.2.4,Win32,47.36642668,,,,,,down,0,1.6709,,,-0.269444444,-0.468055556,1,0,0,0,170,170,107,1,maling,images/br_maling.png,images/cb_maling.png,0,,,,,,,,,,,,,,,,,,,,,
,,,,,00114,2023-12-09_23h50.58.309,vbt_B2_day3,2022.2.4,Win32,47.36642668,,,,,,down,0,0.2579,,,-0.269444444,-0.468055556,1,0,0,0,171,171,96,1,slagen,images/br_slagen.png,images/cb_slagen.png,0,,,,,,,,,,,,,,,,,,,,,
,,,,,00114,2023-12-09_23h50.58.309,vbt_B2_day3,2022.2.4,Win32,47.36642668,,,,,,down,0,1.8757,zout,,-0.269444444,-0.468055556,1,0,0,0,172,172,23,1,zout,images/br_zout.png,images/cb_zout.png,1,,,,,,,,,,,,,,,,,,,,,
,,,,,00114,2023-12-09_23h50.58.309,vbt_B2_day3,2022.2.4,Win32,47.36642668,,,,,,down,0,0.6695,,,-0.269444444,-0.468055556,1,0,0,0,173,173,28,1,stal,images/br_stal.png,images/cb_stal.png,0,,,,,,,,,,,,,,,,,,,,,
,,,,,00114,2023-12-09_23h50.58.309,vbt_B2_day3,2022.2.4,Win32,47.36642668,,,,,,down,0,0.5078,,,-0.269444444,-0.468055556,1,0,0,0,174,174,148,1,smullen,images/br_smullen.png,images/cb_smullen.png,0,,,,,,,,,,,,,,,,,,,,,
,,,,,00114,2023-12-09_23h50.58.309,vbt_B2_day3,2022.2.4,Win32,47.36642668,,,,,,down,0,6.2943,,,-0.269444444,-0.468055556,1,0,0,0,175,175,156,1,rechten,images/br_rechten.png,images/cb_rechten.png,0,,,,,,,,,,,,,,,,,,,,,
,,,,,00114,2023-12-09_23h50.58.309,vbt_B2_day3,2022.2.4,Win32,47.36642668,,,,,,down,0,0.5226,,,-0.269444444,-0.468055556,1,0,0,0,176,176,150,1,gegeven,images/br_gegeven.png,images/cb_gegeven.png,0,,,,,,,,,,,,,,,,,,,,,
,,,,,00114,2023-12-09_23h50.58.309,vbt_B2_day3,2022.2.4,Win32,47.36642668,,,,,,down,0,0.5839,,,-0.269444444,-0.468055556,1,0,0,0,177,177,19,1,geit,images/br_geit.png,images/cb_geit.png,0,,,,,,,,,,,,,,,,,,,,,
,,,,,00114,2023-12-09_23h50.58.309,vbt_B2_day3,2022.2.4,Win32,47.36642668,,,,,,down,0,1.0135,mist,,-0.269444444,-0.468055556,1,0,0,0,178,178,21,1,mist,images/br_mist.png,images/cb_mist.png,1,,,,,,,,,,,,,,,,,,,,,
,,,,,00114,2023-12-09_23h50.58.309,vbt_B2_day3,2022.2.4,Win32,47.36642668,,,,,,down,0,0.2971,,,-0.269444444,-0.468055556,1,0,0,0,179,179,199,1,beseffen,images/br_beseffen.png,images/cb_beseffen.png,0,,,,,,,,,,,,,,,,,,,,,
,,,,,00114,2023-12-09_23h50.58.309,vbt_B2_day3,2022.2.4,Win32,47.36642668,,,,,,down,0,4.8409,,,-0.269444444,-0.468055556,1,0,0,0,180,180,95,1,vreten,images/br_vreten.png,images/cb_vreten.png,0,,,,,,,,,,,,,,,,,,,,,
,,,,,00114,2023-12-09_23h50.58.309,vbt_B2_day3,2022.2.4,Win32,47.36642668,,,,,,down,0,1.1882,,,-0.269444444,-0.468055556,1,0,0,0,181,181,120,1,klimmen,images/br_klimmen.png,images/cb_klimmen.png,0,,,,,,,,,,,,,,,,,,,,,
,,,,,00114,2023-12-09_23h50.58.309,vbt_B2_day3,2022.2.4,Win32,47.36642668,,,,,,down,0,5.3221,,,-0.269444444,-0.468055556,1,0,0,0,182,182,122,1,waarvan,images/br_waarvan.png,images/cb_waarvan.png,0,,,,,,,,,,,,,,,,,,,,,
,,,,,00114,2023-12-09_23h50.58.309,vbt_B2_day3,2022.2.4,Win32,47.36642668,,,,,,down,0,1.4634,site,,-0.269444444,-0.468055556,1,0,0,0,183,183,20,1,site,images/br_site.png,images/cb_site.png,1,,,,,,,,,,,,,,,,,,,,,
,,,,,00114,2023-12-09_23h50.58.309,vbt_B2_day3,2022.2.4,Win32,47.36642668,,,,,,down,0,2.9318,blijven,,-0.269444444,-0.468055556,1,0,0,0,184,184,140,1,blijven,images/br_blijven.png,images/cb_blijven.png,1,,,,,,,,,,,,,,,,,,,,,
,,,,,00114,2023-12-09_23h50.58.309,vbt_B2_day3,2022.2.4,Win32,47.36642668,,,,,,down,0,3.1182,,,-0.269444444,-0.468055556,1,0,0,0,185,185,123,1,hiervan,images/br_hiervan.png,images/cb_hiervan.png,0,,,,,,,,,,,,,,,,,,,,,
,,,,,00114,2023-12-09_23h50.58.309,vbt_B2_day3,2022.2.4,Win32,47.36642668,,,,,,down,0,7.1139,openbaar,,-0.269444444,-0.468055556,1,0,0,0,186,186,180,1,openbaar,images/br_openbaar.png,images/cb_openbaar.png,1,,,,,,,,,,,,,,,,,,,,,
,,,,,00114,2023-12-09_23h50.58.309,vbt_B2_day3,2022.2.4,Win32,47.36642668,,,,,,down,0,2.756,,,-0.269444444,-0.468055556,1,0,0,0,187,187,27,1,dans,images/br_dans.png,images/cb_dans.png,0,,,,,,,,,,,,,,,,,,,,,
,,,,,00114,2023-12-09_23h50.58.309,vbt_B2_day3,2022.2.4,Win32,47.36642668,,,,,,down,0,3.7145,,,-0.269444444,-0.468055556,1,0,0,0,188,188,108,1,excuus,images/br_excuus.png,images/cb_excuus.png,0,,,,,,,,,,,,,,,,,,,,,
,,,,,00114,2023-12-09_23h50.58.309,vbt_B2_day3,2022.2.4,Win32,47.36642668,,,,,,down,0,17.2721,,,-0.269444444,-0.468055556,1,0,0,0,189,189,178,1,huisdier,images/br_huisdier.png,images/cb_huisdier.png,0,,,,,,,,,,,,,,,,,,,,,
,,,,,00114,2023-12-09_23h50.58.309,vbt_B2_day3,2022.2.4,Win32,47.36642668,,,,,,down,0,2.9879,,,-0.269444444,-0.468055556,1,0,0,0,190,190,83,1,mening,images/br_mening.png,images/cb_mening.png,0,,,,,,,,,,,,,,,,,,,,,
,,,,,00114,2023-12-09_23h50.58.309,vbt_B2_day3,2022.2.4,Win32,47.36642668,,,,,,down,0,4.3143,,,-0.269444444,-0.468055556,1,0,0,0,191,191,3,1,mand,images/br_mand.png,images/cb_mand.png,0,,,,,,,,,,,,,,,,,,,,,
,,,,,00114,2023-12-09_23h50.58.309,vbt_B2_day3,2022.2.4,Win32,47.36642668,,,,,,down,0,0.2105,,,-0.269444444,-0.468055556,1,0,0,0,192,192,64,1,wegen,images/br_wegen.png,images/cb_wegen.png,0,,,,,,,,,,,,,,,,,,,,,
,,,,,00114,2023-12-09_23h50.58.309,vbt_B2_day3,2022.2.4,Win32,47.36642668,,,,,,down,0,0.2112,,,-0.269444444,-0.468055556,1,0,0,0,193,193,17,1,taal,images/br_taal.png,images/cb_taal.png,0,,,,,,,,,,,,,,,,,,,,,
,,,,,00114,2023-12-09_23h50.58.309,vbt_B2_day3,2022.2.4,Win32,47.36642668,,,,,,down,0,0.399,,,-0.269444444,-0.468055556,1,0,0,0,194,194,89,1,slapen,images/br_slapen.png,images/cb_slapen.png,0,,,,,,,,,,,,,,,,,,,,,
,,,,,00114,2023-12-09_23h50.58.309,vbt_B2_day3,2022.2.4,Win32,47.36642668,,,,,,down,0,0.8964,,,-0.269444444,-0.468055556,1,0,0,0,195,195,163,1,schuilen,images/br_schuilen.png,images/cb_schuilen.png,0,,,,,,,,,,,,,,,,,,,,,
,,,,,00114,2023-12-09_23h50.58.309,vbt_B2_day3,2022.2.4,Win32,47.36642668,,,,,,down,0,1.1381,,,-0.269444444,-0.468055556,1,0,0,0,196,196,50,1,stoom,images/br_stoom.png,images/cb_stoom.png,0,,,,,,,,,,,,,,,,,,,,,
,,,,,00114,2023-12-09_23h50.58.309,vbt_B2_day3,2022.2.4,Win32,47.36642668,,,,,,down,0,0.293,,,-0.269444444,-0.468055556,1,0,0,0,197,197,32,1,palm,images/br_palm.png,images/cb_palm.png,0,,,,,,,,,,,,,,,,,,,,,
,,,,,00114,2023-12-09_23h50.58.309,vbt_B2_day3,2022.2.4,Win32,47.36642668,,,,,,down,0,1.8861,,,-0.269444444,-0.468055556,1,0,0,0,198,198,14,1,rijp,images/br_rijp.png,images/cb_rijp.png,0,,,,,,,,,,,,,,,,,,,,,
,,,,,00114,2023-12-09_23h50.58.309,vbt_B2_day3,2022.2.4,Win32,47.36642668,,,,,,down,0,1.9384,,,-0.269444444,-0.468055556,1,0,0,0,199,199,106,1,zingen,images/br_zingen.png,images/cb_zingen.png,0,,,,,,,,,,,,,,,,,,,,,
,,,,,00114,2023-12-09_23h50.58.309,vbt_B2_day3,2022.2.4,Win32,47.36642668,,,,,,,,,,,,,,,,,,,,,,,,,-0.269444444,-0.468055556,1,0,0,,,,,,,,,,,,,,,,
,,,,,00114,2023-12-09_23h50.58.309,vbt_B2_day3,2022.2.4,Win32,47.36642668,,,,,,,,,,,,,,,,,,,,,,,,,,,,,,-0.269444444,-0.468055556,1,0,0,,,,,,,,,,,
,,,,,00114,2023-12-09_23h50.58.309,vbt_B2_day3,2022.2.4,Win32,47.36642668,,,,,,,,,paken,,,,,,,,,,,,paken,images/br_paken.png,images/cb_paken.png,,,,,,,,,,,,-0.269444444,-0.468055556,1,0,0,paken,0,0,0,27,1
,,,,,00114,2023-12-09_23h50.58.309,vbt_B2_day3,2022.2.4,Win32,47.36642668,,,,,,,,,luigeren,,,,,,,,,,,,leugeren,images/br_leugeren.png,images/cb_leugeren.png,,,,,,,,,,,,-0.269444444,-0.468055556,1,0,0,luigeren,0,1,1,37,1
,,,,,00114,2023-12-09_23h50.58.309,vbt_B2_day3,2022.2.4,Win32,47.36642668,,,,,,,,,knie,,,,,,,,,,,,knie,images/br_knie.png,images/cb_knie.png,,,,,,,,,,,,-0.269444444,-0.468055556,1,0,0,knie,0,2,2,0,1
,,,,,00114,2023-12-09_23h50.58.309,vbt_B2_day3,2022.2.4,Win32,47.36642668,,,,,,,,,geluid,,,,,,,,,,,,geluid,images/br_geluid.png,images/cb_geluid.png,,,,,,,,,,,,0.225,-0.197916667,1,0,0,geluid,0,3,3,10,1
,,,,,00114,2023-12-09_23h50.58.309,vbt_B2_day3,2022.2.4,Win32,47.36642668,,,,,,,,,stoom,,,,,,,,,,,,stoom,images/br_stoom.png,images/cb_stoom.png,,,,,,,,,,,,0.505555556,-0.177083333,1,0,0,stoom,0,4,4,6,1
,,,,,00114,2023-12-09_23h50.58.309,vbt_B2_day3,2022.2.4,Win32,47.36642668,,,,,,,,,leek,,,,,,,,,,,,leek,images/br_leek.png,images/cb_leek.png,,,,,,,,,,,,0.505555556,-0.177083333,1,0,0,leek,0,5,5,2,1
,,,,,00114,2023-12-09_23h50.58.309,vbt_B2_day3,2022.2.4,Win32,47.36642668,,,,,,,,,kaas,,,,,,,,,,,,kaas,images/br_kaas.png,images/cb_kaas.png,,,,,,,,,,,,0.505555556,-0.177083333,1,0,0,kaas,0,6,6,42,1
,,,,,00114,2023-12-09_23h50.58.309,vbt_B2_day3,2022.2.4,Win32,47.36642668,,,,,,,,,sultan,,,,,,,,,,,,sultan,images/br_sultan.png,images/cb_sultan.png,,,,,,,,,,,,0.505555556,-0.177083333,1,0,0,sultan,0,7,7,49,1
,,,,,00114,2023-12-09_23h50.58.309,vbt_B2_day3,2022.2.4,Win32,47.36642668,,,,,,,,,beslag,,,,,,,,,,,,beslag,images/br_beslag.png,images/cb_beslag.png,,,,,,,,,,,,0.505555556,-0.177083333,1,0,0,beslag,0,8,8,51,1
,,,,,00114,2023-12-09_23h50.58.309,vbt_B2_day3,2022.2.4,Win32,47.36642668,,,,,,,,,samen,,,,,,,,,,,,samen,images/br_samen.png,images/cb_samen.png,,,,,,,,,,,,0.505555556,-0.177083333,1,0,0,samen,0,9,9,7,1
,,,,,00114,2023-12-09_23h50.58.309,vbt_B2_day3,2022.2.4,Win32,47.36642668,,,,,,,,,steel,,,,,,,,,,,,steel,images/br_steel.png,images/cb_steel.png,,,,,,,,,,,,0.505555556,-0.177083333,1,0,0,steel,0,10,10,4,1
,,,,,00114,2023-12-09_23h50.58.309,vbt_B2_day3,2022.2.4,Win32,47.36642668,,,,,,,,,vlager,,,,,,,,,,,,vlager,images/br_vlager.png,images/cb_vlager.png,,,,,,,,,,,,0.505555556,-0.177083333,1,0,0,vlager,0,11,11,28,1
,,,,,00114,2023-12-09_23h50.58.309,vbt_B2_day3,2022.2.4,Win32,47.36642668,,,,,,,,,dwang,,,,,,,,,,,,dwang,images/br_dwang.png,images/cb_dwang.png,,,,,,,,,,,,0.505555556,-0.177083333,1,0,0,dwang,0,12,12,47,1
,,,,,00114,2023-12-09_23h50.58.309,vbt_B2_day3,2022.2.4,Win32,47.36642668,,,,,,,,,aarzelen,,,,,,,,,,,,aarzelen,images/br_aarzelen.png,images/cb_aarzelen.png,,,,,,,,,,,,0.505555556,-0.177083333,1,0,0,aarzelen,0,13,13,19,1
,,,,,00114,2023-12-09_23h50.58.309,vbt_B2_day3,2022.2.4,Win32,47.36642668,,,,,,,,,bisschop,,,,,,,,,,,,bisschop,images/br_bisschop.png,images/cb_bisschop.png,,,,,,,,,,,,0.505555556,-0.177083333,1,0,0,bisschop,0,14,14,16,1
,,,,,00114,2023-12-09_23h50.58.309,vbt_B2_day3,2022.2.4,Win32,47.36642668,,,,,,,,,boeien,,,,,,,,,,,,boeien,images/br_boeien.png,images/cb_boeien.png,,,,,,,,,,,,0.505555556,-0.177083333,1,0,0,boeien,0,15,15,8,1
,,,,,00114,2023-12-09_23h50.58.309,vbt_B2_day3,2022.2.4,Win32,47.36642668,,,,,,,,,onrecht,,,,,,,,,,,,onrecht,images/br_onrecht.png,images/cb_onrecht.png,,,,,,,,,,,,0.505555556,-0.177083333,1,0,0,onrecht,0,16,16,55,1
,,,,,00114,2023-12-09_23h50.58.309,vbt_B2_day3,2022.2.4,Win32,47.36642668,,,,,,,,,gebod,,,,,,,,,,,,gebod,images/br_gebod.png,images/cb_gebod.png,,,,,,,,,,,,0.505555556,-0.177083333,1,0,0,gebod,0,17,17,45,1
,,,,,00114,2023-12-09_23h50.58.309,vbt_B2_day3,2022.2.4,Win32,47.36642668,,,,,,,,,bepret,,,,,,,,,,,,bevret,images/br_bevret.png,images/cb_bevret.png,,,,,,,,,,,,0.505555556,-0.177083333,1,0,0,bepret,0,18,18,30,1
,,,,,00114,2023-12-09_23h50.58.309,vbt_B2_day3,2022.2.4,Win32,47.36642668,,,,,,,,,kwaas,,,,,,,,,,,,kwaas,images/br_kwaas.png,images/cb_kwaas.png,,,,,,,,,,,,0.505555556,-0.177083333,1,0,0,kwaas,0,19,19,26,1
,,,,,00114,2023-12-09_23h50.58.309,vbt_B2_day3,2022.2.4,Win32,47.36642668,,,,,,,,,uniek,,,,,,,,,,,,uniek,images/br_uniek.png,images/cb_uniek.png,,,,,,,,,,,,0.505555556,-0.177083333,1,0,0,uniek,0,20,20,46,1
,,,,,00114,2023-12-09_23h50.58.309,vbt_B2_day3,2022.2.4,Win32,47.36642668,,,,,,,,,brappen,,,,,,,,,,,,brappen,images/br_brappen.png,images/cb_brappen.png,,,,,,,,,,,,0.505555556,-0.177083333,1,0,0,brappen,0,21,21,35,1
,,,,,00114,2023-12-09_23h50.58.309,vbt_B2_day3,2022.2.4,Win32,47.36642668,,,,,,,,,zone,,,,,,,,,,,,zone,images/br_zone.png,images/cb_zone.png,,,,,,,,,,,,0.505555556,-0.177083333,1,0,0,zone,0,22,22,41,1
,,,,,00114,2023-12-09_23h50.58.309,vbt_B2_day3,2022.2.4,Win32,47.36642668,,,,,,,,,hust,,,,,,,,,,,,hust,images/br_hust.png,images/cb_hust.png,,,,,,,,,,,,0.505555556,-0.177083333,1,0,0,hust,0,23,23,23,1
,,,,,00114,2023-12-09_23h50.58.309,vbt_B2_day3,2022.2.4,Win32,47.36642668,,,,,,,,,verraden,,,,,,,,,,,,verraden,images/br_verraden.png,images/cb_verraden.png,,,,,,,,,,,,0.505555556,-0.177083333,1,0,0,verraden,0,24,24,58,1
,,,,,00114,2023-12-09_23h50.58.309,vbt_B2_day3,2022.2.4,Win32,47.36642668,,,,,,,,,schodel,,,,,,,,,,,,schodel,images/br_schodel.png,images/cb_schodel.png,,,,,,,,,,,,0.505555556,-0.177083333,1,0,0,schodel,0,25,25,33,1
,,,,,00114,2023-12-09_23h50.58.309,vbt_B2_day3,2022.2.4,Win32,47.36642668,,,,,,,,,oprotten,,,,,,,,,,,,oprotten,images/br_oprotten.png,images/cb_oprotten.png,,,,,,,,,,,,0.505555556,-0.177083333,1,0,0,oprotten,0,26,26,17,1
,,,,,00114,2023-12-09_23h50.58.309,vbt_B2_day3,2022.2.4,Win32,47.36642668,,,,,,,,,croo,,,,,,,,,,,,croo,images/br_croo.png,images/cb_croo.png,,,,,,,,,,,,0.505555556,-0.177083333,1,0,0,croo,0,27,27,22,1
,,,,,00114,2023-12-09_23h50.58.309,vbt_B2_day3,2022.2.4,Win32,47.36642668,,,,,,,,,gezond,,,,,,,,,,,,gezond,images/br_gezond.png,images/cb_gezond.png,,,,,,,,,,,,0.505555556,-0.177083333,1,0,0,gezond,0,28,28,11,1
,,,,,00114,2023-12-09_23h50.58.309,vbt_B2_day3,2022.2.4,Win32,47.36642668,,,,,,,,,glijden,,,,,,,,,,,,glijden,images/br_glijden.png,images/cb_glijden.png,,,,,,,,,,,,0.505555556,-0.177083333,1,0,0,glijden,0,29,29,53,1
,,,,,00114,2023-12-09_23h50.58.309,vbt_B2_day3,2022.2.4,Win32,47.36642668,,,,,,,,,makieren,,,,,,,,,,,,makieren,images/br_makieren.png,images/cb_makieren.png,,,,,,,,,,,,0.505555556,-0.177083333,1,0,0,makieren,0,30,30,36,1
,,,,,00114,2023-12-09_23h50.58.309,vbt_B2_day3,2022.2.4,Win32,47.36642668,,,,,,,,,twaaf,,,,,,,,,,,,twaaf,images/br_twaaf.png,images/cb_twaaf.png,,,,,,,,,,,,0.505555556,-0.177083333,1,0,0,twaaf,0,31,31,24,1
,,,,,00114,2023-12-09_23h50.58.309,vbt_B2_day3,2022.2.4,Win32,47.36642668,,,,,,,,,jongelui,,,,,,,,,,,,jongelui,images/br_jongelui.png,images/cb_jongelui.png,,,,,,,,,,,,0.505555556,-0.177083333,1,0,0,jongelui,0,32,32,59,1
,,,,,00114,2023-12-09_23h50.58.309,vbt_B2_day3,2022.2.4,Win32,47.36642668,,,,,,,,,alsof,,,,,,,,,,,,alsof,images/br_alsof.png,images/cb_alsof.png,,,,,,,,,,,,0.505555556,-0.177083333,1,0,0,alsof,0,33,33,44,1
,,,,,00114,2023-12-09_23h50.58.309,vbt_B2_day3,2022.2.4,Win32,47.36642668,,,,,,,,,booien,,,,,,,,,,,,booien,images/br_booien.png,images/cb_booien.png,,,,,,,,,,,,0.505555556,-0.177083333,1,0,0,booien,0,34,34,31,1
,,,,,00114,2023-12-09_23h50.58.309,vbt_B2_day3,2022.2.4,Win32,47.36642668,,,,,,,,,stallen,,,,,,,,,,,,stallen,images/br_stallen.png,images/cb_stallen.png,,,,,,,,,,,,0.505555556,-0.177083333,1,0,0,stallen,0,35,35,52,1
,,,,,00114,2023-12-09_23h50.58.309,vbt_B2_day3,2022.2.4,Win32,47.36642668,,,,,,,,,mode,,,,,,,,,,,,mode,images/br_mode.png,images/cb_mode.png,,,,,,,,,,,,0.505555556,-0.177083333,1,0,0,mode,0,36,36,3,1
,,,,,00114,2023-12-09_23h50.58.309,vbt_B2_day3,2022.2.4,Win32,47.36642668,,,,,,,,,verhaal,,,,,,,,,,,,verhaal,images/br_verhaal.png,images/cb_verhaal.png,,,,,,,,,,,,0.505555556,-0.177083333,1,0,0,verhaal,0,37,37,13,1
,,,,,00114,2023-12-09_23h50.58.309,vbt_B2_day3,2022.2.4,Win32,47.36642668,,,,,,,,,ijvallen,,,,,,,,,,,,invallen,images/br_invallen.png,images/cb_invallen.png,,,,,,,,,,,,0.505555556,-0.177083333,1,0,0,ijvallen,0,38,38,57,1
,,,,,00114,2023-12-09_23h50.58.309,vbt_B2_day3,2022.2.4,Win32,47.36642668,,,,,,,,,opzicht,,,,,,,,,,,,opzicht,images/br_opzicht.png,images/cb_opzicht.png,,,,,,,,,,,,0.505555556,-0.177083333,1,0,0,opzicht,0,39,39,15,1
,,,,,00114,2023-12-09_23h50.58.309,vbt_B2_day3,2022.2.4,Win32,47.36642668,,,,,,,,,leemaken,,,,,,,,,,,,leemaken,images/br_leemaken.png,images/cb_leemaken.png,,,,,,,,,,,,0.505555556,-0.177083333,1,0,0,leemaken,0,40,40,39,1
,,,,,00114,2023-12-09_23h50.58.309,vbt_B2_day3,2022.2.4,Win32,47.36642668,,,,,,,,,slapen,,,,,,,,,,,,slapen,images/br_slapen.png,images/cb_slapen.png,,,,,,,,,,,,0.505555556,-0.177083333,1,0,0,slapen,0,41,41,9,1
,,,,,00114,2023-12-09_23h50.58.309,vbt_B2_day3,2022.2.4,Win32,47.36642668,,,,,,,,,hier,,,,,,,,,,,,hier,images/br_hier.png,images/cb_hier.png,,,,,,,,,,,,0.505555556,-0.177083333,1,0,0,hier,0,42,42,1,1
,,,,,00114,2023-12-09_23h50.58.309,vbt_B2_day3,2022.2.4,Win32,47.36642668,,,,,,,,,uviek,,,,,,,,,,,,uviek,images/br_uviek.png,images/cb_uviek.png,,,,,,,,,,,,0.505555556,-0.177083333,1,0,0,uviek,0,43,43,25,1
,,,,,00114,2023-12-09_23h50.58.309,vbt_B2_day3,2022.2.4,Win32,47.36642668,,,,,,,,,gout,,,,,,,,,,,,gout,images/br_gout.png,images/cb_gout.png,,,,,,,,,,,,0.505555556,-0.177083333,1,0,0,gout,0,44,44,20,1
,,,,,00114,2023-12-09_23h50.58.309,vbt_B2_day3,2022.2.4,Win32,47.36642668,,,,,,,,,mugeek,,,,,,,,,,,,mugeek,images/br_mugeek.png,images/cb_mugeek.png,,,,,,,,,,,,0.505555556,-0.177083333,1,0,0,mugeek,0,45,45,29,1
,,,,,00114,2023-12-09_23h50.58.309,vbt_B2_day3,2022.2.4,Win32,47.36642668,,,,,,,,,kest,,,,,,,,,,,,kest,images/br_kest.png,images/cb_kest.png,,,,,,,,,,,,0.505555556,-0.177083333,1,0,0,kest,0,46,46,21,1
,,,,,00114,2023-12-09_23h50.58.309,vbt_B2_day3,2022.2.4,Win32,47.36642668,,,,,,,,,verhoor,,,,,,,,,,,,verwoor,images/br_verwoor.png,images/cb_verwoor.png,,,,,,,,,,,,0.505555556,-0.177083333,1,0,0,verhoor,0,47,47,32,1
,,,,,00114,2023-12-09_23h50.58.309,vbt_B2_day3,2022.2.4,Win32,47.36642668,,,,,,,,,schatten,,,,,,,,,,,,schatten,images/br_schatten.png,images/cb_schatten.png,,,,,,,,,,,,0.505555556,-0.177083333,1,0,0,schatten,0,48,48,18,1
,,,,,00114,2023-12-09_23h50.58.309,vbt_B2_day3,2022.2.4,Win32,47.36642668,,,,,,,,,eens,,,,,,,,,,,,eens,images/br_eens.png,images/cb_eens.png,,,,,,,,,,,,0.505555556,-0.177083333,1,0,0,eens,0,49,49,40,1
,,,,,00114,2023-12-09_23h50.58.309,vbt_B2_day3,2022.2.4,Win32,47.36642668,,,,,,,,,afbopen,,,,,,,,,,,,afbopen,images/br_afbopen.png,images/cb_afbopen.png,,,,,,,,,,,,0.505555556,-0.177083333,1,0,0,afbopen,0,50,50,34,1
,,,,,00114,2023-12-09_23h50.58.309,vbt_B2_day3,2022.2.4,Win32,47.36642668,,,,,,,,,opzitten,,,,,,,,,,,,opzetten,images/br_opzetten.png,images/cb_opzetten.png,,,,,,,,,,,,0.505555556,-0.177083333,1,0,0,opzitten,0,51,51,56,1
,,,,,00114,2023-12-09_23h50.58.309,vbt_B2_day3,2022.2.4,Win32,47.36642668,,,,,,,,,prikken,,,,,,,,,,,,prikken,images/br_prikken.png,images/cb_prikken.png,,,,,,,,,,,,0.505555556,-0.177083333,1,0,0,prikken,0,52,52,12,1
,,,,,00114,2023-12-09_23h50.58.309,vbt_B2_day3,2022.2.4,Win32,47.36642668,,,,,,,,,pijhard,,,,,,,,,,,,keihard,images/br_keihard.png,images/cb_keihard.png,,,,,,,,,,,,0.505555556,-0.177083333,1,0,0,pijhard,0,53,53,14,1
,,,,,00114,2023-12-09_23h50.58.309,vbt_B2_day3,2022.2.4,Win32,47.36642668,,,,,,,,,stikken,,,,,,,,,,,,stikken,images/br_stikken.png,images/cb_stikken.png,,,,,,,,,,,,0.505555556,-0.177083333,1,0,0,stikken,0,54,54,54,1
,,,,,00114,2023-12-09_23h50.58.309,vbt_B2_day3,2022.2.4,Win32,47.36642668,,,,,,,,,sluier,,,,,,,,,,,,sluier,images/br_sluier.png,images/cb_sluier.png,,,,,,,,,,,,0.505555556,-0.177083333,1,0,0,sluier,0,55,55,50,1
,,,,,00114,2023-12-09_23h50.58.309,vbt_B2_day3,2022.2.4,Win32,47.36642668,,,,,,,,,theeting,,,,,,,,,,,,theeting,images/br_theeting.png,images/cb_theeting.png,,,,,,,,,,,,0.505555556,-0.177083333,1,0,0,theeting,0,56,56,38,1
,,,,,00114,2023-12-09_23h50.58.309,vbt_B2_day3,2022.2.4,Win32,47.36642668,,,,,,,,,hint,,,,,,,,,,,,hint,images/br_hint.png,images/cb_hint.png,,,,,,,,,,,,0.505555556,-0.177083333,1,0,0,hint,0,57,57,43,1
,,,,,00114,2023-12-09_23h50.58.309,vbt_B2_day3,2022.2.4,Win32,47.36642668,,,,,,,,,begrip,,,,,,,,,,,,begrip,images/br_begrip.png,images/cb_begrip.png,,,,,,,,,,,,0.505555556,-0.177083333,1,0,0,begrip,0,58,58,48,1
,,,,,00114,2023-12-09_23h50.58.309,vbt_B2_day3,2022.2.4,Win32,47.36642668,,,,,,,,,laken,,,,,,,,,,,,laken,images/br_laken.png,images/cb_laken.png,,,,,,,,,,,,0.505555556,-0.177083333,1,0,0,laken,0,59,59,5,1
,,,,,00114,2023-12-09_23h50.58.309,vbt_B2_day3,2022.2.4,Win32,47.36642668,,,,,,,,,,,,,,,,,,,,,,,,,,,,,,,,,,,,,,,,,,,,,
