welcome_mouse.x,welcome_mouse.y,welcome_mouse.leftButton,welcome_mouse.midButton,welcome_mouse.rightButton,"ID",date,expName,psychopyVersion,OS,frameRate,trainInstr_mouse.x,trainInstr_mouse.y,trainInstr_mouse.leftButton,trainInstr_mouse.midButton,trainInstr_mouse.rightButton,translation_key.keys,translation_key.corr,translation_key.rt,word_rsp.text,trWrd_mouse.x,trWrd_mouse.y,trWrd_mouse.leftButton,trWrd_mouse.midButton,trWrd_mouse.rightButton,train_loop.thisRepN,train_loop.thisTrialN,train_loop.thisN,train_loop.thisIndex,train_loop.ran,nlWrd,brWrd,cbWrd,test,testResp,mouse.x,mouse.y,mouse.leftButton,mouse.midButton,mouse.rightButton,testInstr_mouse.x,testInstr_mouse.y,testInstr_mouse.leftButton,testInstr_mouse.midButton,testInstr_mouse.rightButton,test_mouse.x,test_mouse.y,test_mouse.leftButton,test_mouse.midButton,test_mouse.rightButton,test_response.text,test_loop.thisRepN,test_loop.thisTrialN,test_loop.thisN,test_loop.thisIndex,test_loop.ran
-0.16851849,-0.235185199,1,0,0,00024,2023-09-27_14h47.49.936,vbt_B2_day3,2022.2.4,Win32,59.95563283,,,,,,,,,,,,,,,,,,,,,,,,,,,,,,,,,,,,,,,,,,,,,
,,,,,00024,2023-09-27_14h47.49.936,vbt_B2_day3,2022.2.4,Win32,59.95563283,-0.16851849,-0.235185199,1,0,0,,,,,,,,,,,,,,,,,,,,,,,,,,,,,,,,,,,,,,,,
,,,,,00024,2023-09-27_14h47.49.936,vbt_B2_day3,2022.2.4,Win32,59.95563283,,,,,,down,0,1.2399,,-0.16851849,-0.235185199,1,0,0,0,0,0,50,1,stoom,images/br_stoom.png,images/cb_stoom.png,0,,,,,,,,,,,,,,,,,,,,,,
,,,,,00024,2023-09-27_14h47.49.936,vbt_B2_day3,2022.2.4,Win32,59.95563283,,,,,,down,0,5.4725,,-0.16851849,-0.235185199,1,0,0,0,1,1,162,1,uitdelen,images/br_uitdelen.png,images/cb_uitdelen.png,0,,,,,,,,,,,,,,,,,,,,,,
,,,,,00024,2023-09-27_14h47.49.936,vbt_B2_day3,2022.2.4,Win32,59.95563283,,,,,,down,0,1.316900002,,-0.16851849,-0.235185199,1,0,0,0,2,2,148,1,smullen,images/br_smullen.png,images/cb_smullen.png,0,,,,,,,,,,,,,,,,,,,,,,
,,,,,00024,2023-09-27_14h47.49.936,vbt_B2_day3,2022.2.4,Win32,59.95563283,,,,,,down,0,2.3171,,-0.16851849,-0.235185199,1,0,0,0,3,3,21,1,mist,images/br_mist.png,images/cb_mist.png,1,mist,,,,,,,,,,,,,,,,,,,,,
,,,,,00024,2023-09-27_14h47.49.936,vbt_B2_day3,2022.2.4,Win32,59.95563283,,,,,,down,0,3.356799999,,-0.16851849,-0.235185199,1,0,0,0,4,4,142,1,snuiven,images/br_snuiven.png,images/cb_snuiven.png,1,snuiven,,,,,,,,,,,,,,,,,,,,,
,,,,,00024,2023-09-27_14h47.49.936,vbt_B2_day3,2022.2.4,Win32,59.95563283,,,,,,down,0,8.4821,,-0.16851849,-0.235185199,1,0,0,0,5,5,123,1,hiervan,images/br_hiervan.png,images/cb_hiervan.png,0,,,,,,,,,,,,,,,,,,,,,,
,,,,,00024,2023-09-27_14h47.49.936,vbt_B2_day3,2022.2.4,Win32,59.95563283,,,,,,down,0,2.1159,,-0.16851849,-0.235185199,1,0,0,0,6,6,78,1,leren,images/br_leren.png,images/cb_leren.png,0,,,,,,,,,,,,,,,,,,,,,,
,,,,,00024,2023-09-27_14h47.49.936,vbt_B2_day3,2022.2.4,Win32,59.95563283,,,,,,down,0,0.687,,-0.16851849,-0.235185199,1,0,0,0,7,7,8,1,knie,images/br_knie.png,images/cb_knie.png,0,,,,,,,,,,,,,,,,,,,,,,
,,,,,00024,2023-09-27_14h47.49.936,vbt_B2_day3,2022.2.4,Win32,59.95563283,,,,,,down,0,10.4396,,-0.16851849,-0.235185199,1,0,0,0,8,8,193,1,weeshuis,images/br_weeshuis.png,images/cb_weeshuis.png,0,,,,,,,,,,,,,,,,,,,,,,
,,,,,00024,2023-09-27_14h47.49.936,vbt_B2_day3,2022.2.4,Win32,59.95563283,,,,,,down,0,12.371,,-0.16851849,-0.235185199,1,0,0,0,9,9,187,1,opkijken,images/br_opkijken.png,images/cb_opkijken.png,0,,,,,,,,,,,,,,,,,,,,,,
,,,,,00024,2023-09-27_14h47.49.936,vbt_B2_day3,2022.2.4,Win32,59.95563283,,,,,,down,0,1.1691,,-0.16851849,-0.235185199,1,0,0,0,10,10,85,1,heilig,images/br_heilig.png,images/cb_heilig.png,0,,,,,,,,,,,,,,,,,,,,,,
,,,,,00024,2023-09-27_14h47.49.936,vbt_B2_day3,2022.2.4,Win32,59.95563283,,,,,,down,0,7.316299999,,-0.175925926,-0.224074116,1,0,0,0,11,11,177,1,maaltijd,images/br_maaltijd.png,images/cb_maaltijd.png,0,,,,,,,,,,,,,,,,,,,,,,
,,,,,00024,2023-09-27_14h47.49.936,vbt_B2_day3,2022.2.4,Win32,59.95563283,,,,,,down,0,2.518900002,,-0.175925926,-0.224074116,1,0,0,0,12,12,102,1,legaal,images/br_legaal.png,images/cb_legaal.png,1,legaal,,,,,,,,,,,,,,,,,,,,,
,,,,,00024,2023-09-27_14h47.49.936,vbt_B2_day3,2022.2.4,Win32,59.95563283,,,,,,down,0,1.200700001,,-0.175925926,-0.224074116,1,0,0,0,13,13,48,1,steel,images/br_steel.png,images/cb_steel.png,0,,,,,,,,,,,,,,,,,,,,,,
,,,,,00024,2023-09-27_14h47.49.936,vbt_B2_day3,2022.2.4,Win32,59.95563283,,,,,,down,0,5.582699999,,-0.176851838,-0.246296282,1,0,0,0,14,14,181,1,toegeven,images/br_toegeven.png,images/cb_toegeven.png,1,toegeven,,,,,,,,,,,,,,,,,,,,,
,,,,,00024,2023-09-27_14h47.49.936,vbt_B2_day3,2022.2.4,Win32,59.95563283,,,,,,down,0,3.319599998,,-0.176851838,-0.246296282,1,0,0,0,15,15,66,1,lever,images/br_lever.png,images/cb_lever.png,0,,,,,,,,,,,,,,,,,,,,,,
,,,,,00024,2023-09-27_14h47.49.936,vbt_B2_day3,2022.2.4,Win32,59.95563283,,,,,,down,0,2.087199999,,-0.176851838,-0.246296282,1,0,0,0,16,16,56,1,traag,images/br_traag.png,images/cb_traag.png,0,,,,,,,,,,,,,,,,,,,,,,
,,,,,00024,2023-09-27_14h47.49.936,vbt_B2_day3,2022.2.4,Win32,59.95563283,,,,,,down,0,7.089299999,,-0.176851838,-0.246296282,1,0,0,0,17,17,135,1,gedicht,images/br_gedicht.png,images/cb_gedicht.png,0,,,,,,,,,,,,,,,,,,,,,,
,,,,,00024,2023-09-27_14h47.49.936,vbt_B2_day3,2022.2.4,Win32,59.95563283,,,,,,down,0,13.2989,,-0.176851838,-0.246296282,1,0,0,0,18,18,98,1,kreeft,images/br_kreeft.png,images/cb_kreeft.png,0,,,,,,,,,,,,,,,,,,,,,,
,,,,,00024,2023-09-27_14h47.49.936,vbt_B2_day3,2022.2.4,Win32,59.95563283,,,,,,down,0,2.3249,,-0.176851838,-0.246296282,1,0,0,0,19,19,132,1,grappen,images/br_grappen.png,images/cb_grappen.png,0,,,,,,,,,,,,,,,,,,,,,,
,,,,,00024,2023-09-27_14h47.49.936,vbt_B2_day3,2022.2.4,Win32,59.95563283,,,,,,down,0,8.038400002,,-0.176851838,-0.246296282,1,0,0,0,20,20,70,1,ijdel,images/br_ijdel.png,images/cb_ijdel.png,0,,,,,,,,,,,,,,,,,,,,,,
,,,,,00024,2023-09-27_14h47.49.936,vbt_B2_day3,2022.2.4,Win32,59.95563283,,,,,,down,0,5.045,,-0.176851838,-0.246296282,1,0,0,0,21,21,63,1,flirt,images/br_flirt.png,images/cb_flirt.png,1,flirt,,,,,,,,,,,,,,,,,,,,,
,,,,,00024,2023-09-27_14h47.49.936,vbt_B2_day3,2022.2.4,Win32,59.95563283,,,,,,down,0,7.5219,,-0.176851838,-0.246296282,1,0,0,0,22,22,190,1,goedkoop,images/br_goedkoop.png,images/cb_goedkoop.png,0,,,,,,,,,,,,,,,,,,,,,,
,,,,,00024,2023-09-27_14h47.49.936,vbt_B2_day3,2022.2.4,Win32,59.95563283,,,,,,down,0,1.7334,,-0.176851838,-0.246296282,1,0,0,0,23,23,139,1,stiekem,images/br_stiekem.png,images/cb_stiekem.png,0,,,,,,,,,,,,,,,,,,,,,,
,,,,,00024,2023-09-27_14h47.49.936,vbt_B2_day3,2022.2.4,Win32,59.95563283,,,,,,down,0,2.634,,-0.176851838,-0.246296282,1,0,0,0,24,24,64,1,wegen,images/br_wegen.png,images/cb_wegen.png,0,,,,,,,,,,,,,,,,,,,,,,
,,,,,00024,2023-09-27_14h47.49.936,vbt_B2_day3,2022.2.4,Win32,59.95563283,,,,,,down,0,12.1818,,-0.176851838,-0.246296282,1,0,0,0,25,25,183,1,getuigen,images/br_getuigen.png,images/cb_getuigen.png,1,getuigen,,,,,,,,,,,,,,,,,,,,,
,,,,,00024,2023-09-27_14h47.49.936,vbt_B2_day3,2022.2.4,Win32,59.95563283,,,,,,down,0,31.3309,,0.05740745,-0.172222208,1,0,0,0,26,26,51,1,samen,images/br_samen.png,images/cb_samen.png,0,,,,,,,,,,,,,,,,,,,,,,
,,,,,00024,2023-09-27_14h47.49.936,vbt_B2_day3,2022.2.4,Win32,59.95563283,,,,,,down,0,4.228599998,,0.05740745,-0.173148191,1,0,0,0,27,27,143,1,hechten,images/br_hechten.png,images/cb_hechten.png,1,hechten,,,,,,,,,,,,,,,,,,,,,
,,,,,00024,2023-09-27_14h47.49.936,vbt_B2_day3,2022.2.4,Win32,59.95563283,,,,,,down,0,4.1676,,0.05740745,-0.173148191,1,0,0,0,28,28,119,1,liefje,images/br_liefje.png,images/cb_liefje.png,0,,,,,,,,,,,,,,,,,,,,,,
,,,,,00024,2023-09-27_14h47.49.936,vbt_B2_day3,2022.2.4,Win32,59.95563283,,,,,,down,0,46.6711,,0.05740745,-0.173148191,1,0,0,0,29,29,17,1,taal,images/br_taal.png,images/cb_taal.png,0,,,,,,,,,,,,,,,,,,,,,,
,,,,,00024,2023-09-27_14h47.49.936,vbt_B2_day3,2022.2.4,Win32,59.95563283,,,,,,down,0,0.782299999,,0.05740745,-0.188888903,1,0,0,0,30,30,49,1,laken,images/br_laken.png,images/cb_laken.png,0,,,,,,,,,,,,,,,,,,,,,,
,,,,,00024,2023-09-27_14h47.49.936,vbt_B2_day3,2022.2.4,Win32,59.95563283,,,,,,down,0,1.551,,0.05740745,-0.188888903,1,0,0,0,31,31,87,1,toeval,images/br_toeval.png,images/cb_toeval.png,0,,,,,,,,,,,,,,,,,,,,,,
,,,,,00024,2023-09-27_14h47.49.936,vbt_B2_day3,2022.2.4,Win32,59.95563283,,,,,,down,0,3.1665,,0.05740745,-0.188888903,1,0,0,0,32,32,110,1,zuster,images/br_zuster.png,images/cb_zuster.png,0,,,,,,,,,,,,,,,,,,,,,,
,,,,,00024,2023-09-27_14h47.49.936,vbt_B2_day3,2022.2.4,Win32,59.95563283,,,,,,down,0,4.2026,,0.108333376,-0.124074088,1,0,0,0,33,33,22,1,stof,images/br_stof.png,images/cb_stof.png,1,stof,,,,,,,,,,,,,,,,,,,,,
,,,,,00024,2023-09-27_14h47.49.936,vbt_B2_day3,2022.2.4,Win32,59.95563283,,,,,,down,0,4.600299999,,0.108333376,-0.124074088,1,0,0,0,34,34,170,1,schatten,images/br_schatten.png,images/cb_schatten.png,0,,,,,,,,,,,,,,,,,,,,,,
,,,,,00024,2023-09-27_14h47.49.936,vbt_B2_day3,2022.2.4,Win32,59.95563283,,,,,,down,0,1.7835,,0.134259259,-0.132407436,1,0,0,0,35,35,152,1,afnemen,images/br_afnemen.png,images/cb_afnemen.png,0,,,,,,,,,,,,,,,,,,,,,,
,,,,,00024,2023-09-27_14h47.49.936,vbt_B2_day3,2022.2.4,Win32,59.95563283,,,,,,down,0,1.384,,0.134259259,-0.132407436,1,0,0,0,36,36,9,1,hier,images/br_hier.png,images/cb_hier.png,0,,,,,,,,,,,,,,,,,,,,,,
,,,,,00024,2023-09-27_14h47.49.936,vbt_B2_day3,2022.2.4,Win32,59.95563283,,,,,,down,0,3.573200001,,0.134259259,-0.132407436,1,0,0,0,37,37,121,1,twijfel,images/br_twijfel.png,images/cb_twijfel.png,0,,,,,,,,,,,,,,,,,,,,,,
,,,,,00024,2023-09-27_14h47.49.936,vbt_B2_day3,2022.2.4,Win32,59.95563283,,,,,,down,0,6.5614,,0.134259259,-0.132407436,1,0,0,0,38,38,34,1,vorm,images/br_vorm.png,images/cb_vorm.png,0,,,,,,,,,,,,,,,,,,,,,,
,,,,,00024,2023-09-27_14h47.49.936,vbt_B2_day3,2022.2.4,Win32,59.95563283,,,,,,down,0,5.816,,0.134259259,-0.132407436,1,0,0,0,39,39,180,1,openbaar,images/br_openbaar.png,images/cb_openbaar.png,1,openbaar,,,,,,,,,,,,,,,,,,,,,
,,,,,00024,2023-09-27_14h47.49.936,vbt_B2_day3,2022.2.4,Win32,59.95563283,,,,,,down,0,2.702800001,,0.134259259,-0.132407436,1,0,0,0,40,40,108,1,excuus,images/br_excuus.png,images/cb_excuus.png,0,,,,,,,,,,,,,,,,,,,,,,
,,,,,00024,2023-09-27_14h47.49.936,vbt_B2_day3,2022.2.4,Win32,59.95563283,,,,,,down,0,7.132400002,,0.126851894,-0.132407436,1,0,0,0,41,41,159,1,sufferd,images/br_sufferd.png,images/cb_sufferd.png,0,,,,,,,,,,,,,,,,,,,,,,
,,,,,00024,2023-09-27_14h47.49.936,vbt_B2_day3,2022.2.4,Win32,59.95563283,,,,,,down,0,12.0861,,0.126851894,-0.132407436,1,0,0,0,42,42,31,1,poes,images/br_poes.png,images/cb_poes.png,0,,,,,,,,,,,,,,,,,,,,,,
,,,,,00024,2023-09-27_14h47.49.936,vbt_B2_day3,2022.2.4,Win32,59.95563283,,,,,,down,0,25.3003,,0.126851894,-0.132407436,1,0,0,0,43,43,147,1,komisch,images/br_komisch.png,images/cb_komisch.png,0,,,,,,,,,,,,,,,,,,,,,,
,,,,,00024,2023-09-27_14h47.49.936,vbt_B2_day3,2022.2.4,Win32,59.95563283,,,,,,down,0,5.9374,,0.126851894,-0.132407436,1,0,0,0,44,44,69,1,waken,images/br_waken.png,images/cb_waken.png,0,,,,,,,,,,,,,,,,,,,,,,
,,,,,00024,2023-09-27_14h47.49.936,vbt_B2_day3,2022.2.4,Win32,59.95563283,,,,,,down,0,0.154400002,,0.126851894,-0.132407436,1,0,0,0,45,45,5,1,blad,images/br_blad.png,images/cb_blad.png,0,,,,,,,,,,,,,,,,,,,,,,
,,,,,00024,2023-09-27_14h47.49.936,vbt_B2_day3,2022.2.4,Win32,59.95563283,,,,,,down,0,2.0256,,0.126851894,-0.132407436,1,0,0,0,46,46,146,1,opkomen,images/br_opkomen.png,images/cb_opkomen.png,0,,,,,,,,,,,,,,,,,,,,,,
,,,,,00024,2023-09-27_14h47.49.936,vbt_B2_day3,2022.2.4,Win32,59.95563283,,,,,,down,0,1.135700001,,0.126851894,-0.132407436,1,0,0,0,47,47,68,1,schat,images/br_schat.png,images/cb_schat.png,0,,,,,,,,,,,,,,,,,,,,,,
,,,,,00024,2023-09-27_14h47.49.936,vbt_B2_day3,2022.2.4,Win32,59.95563283,,,,,,down,0,4.8395,,0.126851894,-0.132407436,1,0,0,0,48,48,129,1,verhaal,images/br_verhaal.png,images/cb_verhaal.png,0,,,,,,,,,,,,,,,,,,,,,,
,,,,,00024,2023-09-27_14h47.49.936,vbt_B2_day3,2022.2.4,Win32,59.95563283,,,,,,down,0,1.600300001,,0.126851894,-0.132407436,1,0,0,0,49,49,29,1,baas,images/br_baas.png,images/cb_baas.png,0,,,,,,,,,,,,,,,,,,,,,,
,,,,,00024,2023-09-27_14h47.49.936,vbt_B2_day3,2022.2.4,Win32,59.95563283,,,,,,down,0,6.182299999,,0.126851894,-0.132407436,1,0,0,0,50,50,52,1,wagon,images/br_wagon.png,images/cb_wagon.png,0,,,,,,,,,,,,,,,,,,,,,,
,,,,,00024,2023-09-27_14h47.49.936,vbt_B2_day3,2022.2.4,Win32,59.95563283,,,,,,down,0,4.2699,,0.126851894,-0.132407436,1,0,0,0,51,51,6,1,diep,images/br_diep.png,images/cb_diep.png,0,,,,,,,,,,,,,,,,,,,,,,
,,,,,00024,2023-09-27_14h47.49.936,vbt_B2_day3,2022.2.4,Win32,59.95563283,,,,,,down,0,7.8335,,0.126851894,-0.132407436,1,0,0,0,52,52,188,1,strekken,images/br_strekken.png,images/cb_strekken.png,0,,,,,,,,,,,,,,,,,,,,,,
,,,,,00024,2023-09-27_14h47.49.936,vbt_B2_day3,2022.2.4,Win32,59.95563283,,,,,,down,0,6.6189,,0.126851894,-0.132407436,1,0,0,0,53,53,59,1,kring,images/br_kring.png,images/cb_kring.png,0,,,,,,,,,,,,,,,,,,,,,,
,,,,,00024,2023-09-27_14h47.49.936,vbt_B2_day3,2022.2.4,Win32,59.95563283,,,,,,down,0,1.100700001,,0.126851894,-0.132407436,1,0,0,0,54,54,115,1,kleren,images/br_kleren.png,images/cb_kleren.png,0,,,,,,,,,,,,,,,,,,,,,,
,,,,,00024,2023-09-27_14h47.49.936,vbt_B2_day3,2022.2.4,Win32,59.95563283,,,,,,down,0,1.6699,,0.126851894,-0.132407436,1,0,0,0,55,55,96,1,slagen,images/br_slagen.png,images/cb_slagen.png,0,,,,,,,,,,,,,,,,,,,,,,
,,,,,00024,2023-09-27_14h47.49.936,vbt_B2_day3,2022.2.4,Win32,59.95563283,,,,,,down,0,3.397700001,,0.126851894,-0.132407436,1,0,0,0,56,56,158,1,innemen,images/br_innemen.png,images/cb_innemen.png,0,,,,,,,,,,,,,,,,,,,,,,
,,,,,00024,2023-09-27_14h47.49.936,vbt_B2_day3,2022.2.4,Win32,59.95563283,,,,,,down,0,5.7324,,0.126851894,-0.132407436,1,0,0,0,57,57,33,1,vlek,images/br_vlek.png,images/cb_vlek.png,0,,,,,,,,,,,,,,,,,,,,,,
,,,,,00024,2023-09-27_14h47.49.936,vbt_B2_day3,2022.2.4,Win32,59.95563283,,,,,,down,0,6.0169,,0.138888889,-0.138888889,1,0,0,0,58,58,182,1,bijkomen,images/br_bijkomen.png,images/cb_bijkomen.png,1,bijkomen,,,,,,,,,,,,,,,,,,,,,
,,,,,00024,2023-09-27_14h47.49.936,vbt_B2_day3,2022.2.4,Win32,59.95563283,,,,,,down,0,1.136799999,,0.138888889,-0.138888889,1,0,0,0,59,59,137,1,trekker,images/br_trekker.png,images/cb_trekker.png,0,,,,,,,,,,,,,,,,,,,,,,
,,,,,00024,2023-09-27_14h47.49.936,vbt_B2_day3,2022.2.4,Win32,59.95563283,,,,,,down,0,20.1832,,0.138888889,-0.138888889,1,0,0,0,60,60,60,1,jasje,images/br_jasje.png,images/cb_jasje.png,1,jasje,,,,,,,,,,,,,,,,,,,,,
,,,,,00024,2023-09-27_14h47.49.936,vbt_B2_day3,2022.2.4,Win32,59.95563283,,,,,,down,0,3.616,,0.138888889,-0.138888889,1,0,0,0,61,61,186,1,voorraad,images/br_voorraad.png,images/cb_voorraad.png,0,,,,,,,,,,,,,,,,,,,,,,
,,,,,00024,2023-09-27_14h47.49.936,vbt_B2_day3,2022.2.4,Win32,59.95563283,,,,,,down,0,8.251199999,,0.138888889,-0.138888889,1,0,0,0,62,62,12,1,kust,images/br_kust.png,images/cb_kust.png,0,,,,,,,,,,,,,,,,,,,,,,
,,,,,00024,2023-09-27_14h47.49.936,vbt_B2_day3,2022.2.4,Win32,59.95563283,,,,,,down,0,20.2317,,0.138888889,-0.138888889,1,0,0,0,63,63,127,1,doodmoe,images/br_doodmoe.png,images/cb_doodmoe.png,0,,,,,,,,,,,,,,,,,,,,,,
,,,,,00024,2023-09-27_14h47.49.936,vbt_B2_day3,2022.2.4,Win32,59.95563283,,,,,,down,0,0.4579,,0.138888889,-0.138888889,1,0,0,0,64,64,57,1,steek,images/br_steek.png,images/cb_steek.png,0,,,,,,,,,,,,,,,,,,,,,,
,,,,,00024,2023-09-27_14h47.49.936,vbt_B2_day3,2022.2.4,Win32,59.95563283,,,,,,down,0,6.9011,,0.138888889,-0.138888889,1,0,0,0,65,65,76,1,afval,images/br_afval.png,images/cb_afval.png,0,,,,,,,,,,,,,,,,,,,,,,
,,,,,00024,2023-09-27_14h47.49.936,vbt_B2_day3,2022.2.4,Win32,59.95563283,,,,,,down,0,8.482300001,,0.138888889,-0.138888889,1,0,0,0,66,66,178,1,huisdier,images/br_huisdier.png,images/cb_huisdier.png,0,,,,,,,,,,,,,,,,,,,,,,
,,,,,00024,2023-09-27_14h47.49.936,vbt_B2_day3,2022.2.4,Win32,59.95563283,,,,,,down,0,2.4384,,0.138888889,-0.138888889,1,0,0,0,67,67,58,1,tekst,images/br_tekst.png,images/cb_tekst.png,0,,,,,,,,,,,,,,,,,,,,,,
,,,,,00024,2023-09-27_14h47.49.936,vbt_B2_day3,2022.2.4,Win32,59.95563283,,,,,,down,0,4.8009,,0.138888889,-0.138888889,1,0,0,0,68,68,198,1,bedoelen,images/br_bedoelen.png,images/cb_bedoelen.png,0,,,,,,,,,,,,,,,,,,,,,,
,,,,,00024,2023-09-27_14h47.49.936,vbt_B2_day3,2022.2.4,Win32,59.95563283,,,,,,down,0,2.1266,,0.138888889,-0.138888889,1,0,0,0,69,69,124,1,bloeien,images/br_bloeien.png,images/cb_bloeien.png,0,,,,,,,,,,,,,,,,,,,,,,
,,,,,00024,2023-09-27_14h47.49.936,vbt_B2_day3,2022.2.4,Win32,59.95563283,,,,,,down,0,8.435,,0.150000042,-0.138888889,1,0,0,0,70,70,194,1,driemaal,images/br_driemaal.png,images/cb_driemaal.png,0,,,,,,,,,,,,,,,,,,,,,,
,,,,,00024,2023-09-27_14h47.49.936,vbt_B2_day3,2022.2.4,Win32,59.95563283,,,,,,down,0,26.8139,,0.138888889,-0.157407407,1,0,0,0,71,71,0,1,slak,images/br_slak.png,images/cb_slak.png,0,,,,,,,,,,,,,,,,,,,,,,
,,,,,00024,2023-09-27_14h47.49.936,vbt_B2_day3,2022.2.4,Win32,59.95563283,,,,,,down,0,6.372300001,,0.136111153,-0.175925926,1,0,0,0,72,72,161,1,attentie,images/br_attentie.png,images/cb_attentie.png,0,,,,,,,,,,,,,,,,,,,,,,
,,,,,00024,2023-09-27_14h47.49.936,vbt_B2_day3,2022.2.4,Win32,59.95563283,,,,,,down,0,0.9831,,0.136111153,-0.175925926,1,0,0,0,73,73,10,1,leek,images/br_leek.png,images/cb_leek.png,0,,,,,,,,,,,,,,,,,,,,,,
,,,,,00024,2023-09-27_14h47.49.936,vbt_B2_day3,2022.2.4,Win32,59.95563283,,,,,,down,0,12.719,,0.136111153,-0.175925926,1,0,0,0,74,74,131,1,opzicht,images/br_opzicht.png,images/cb_opzicht.png,0,,,,,,,,,,,,,,,,,,,,,,
,,,,,00024,2023-09-27_14h47.49.936,vbt_B2_day3,2022.2.4,Win32,59.95563283,,,,,,down,0,12.7178,,0.136111153,-0.175925926,1,0,0,0,75,75,30,1,uien,images/br_uien.png,images/cb_uien.png,0,,,,,,,,,,,,,,,,,,,,,,
,,,,,00024,2023-09-27_14h47.49.936,vbt_B2_day3,2022.2.4,Win32,59.95563283,,,,,,down,0,4.1361,,0.136111153,-0.175925926,1,0,0,0,76,76,118,1,vinger,images/br_vinger.png,images/cb_vinger.png,0,,,,,,,,,,,,,,,,,,,,,,
,,,,,00024,2023-09-27_14h47.49.936,vbt_B2_day3,2022.2.4,Win32,59.95563283,,,,,,down,0,8.650199999,,0.136111153,-0.175925926,1,0,0,0,77,77,199,1,beseffen,images/br_beseffen.png,images/cb_beseffen.png,0,,,,,,,,,,,,,,,,,,,,,,
,,,,,00024,2023-09-27_14h47.49.936,vbt_B2_day3,2022.2.4,Win32,59.95563283,,,,,,down,0,5.732799999,,-0.216666681,-0.145370413,1,0,0,0,78,78,43,1,klauw,images/br_klauw.png,images/cb_klauw.png,0,,,,,,,,,,,,,,,,,,,,,,
,,,,,00024,2023-09-27_14h47.49.936,vbt_B2_day3,2022.2.4,Win32,59.95563283,,,,,,down,0,1.467,,-0.216666681,-0.145370413,1,0,0,0,79,79,154,1,aflopen,images/br_aflopen.png,images/cb_aflopen.png,0,,,,,,,,,,,,,,,,,,,,,,
,,,,,00024,2023-09-27_14h47.49.936,vbt_B2_day3,2022.2.4,Win32,59.95563283,,,,,,down,0,0.585900002,,-0.216666681,-0.145370413,1,0,0,0,80,80,41,1,maken,images/br_maken.png,images/cb_maken.png,0,,,,,,,,,,,,,,,,,,,,,,
,,,,,00024,2023-09-27_14h47.49.936,vbt_B2_day3,2022.2.4,Win32,59.95563283,,,,,,down,0,1.5166,,-0.216666681,-0.145370413,1,0,0,0,81,81,86,1,woning,images/br_woning.png,images/cb_woning.png,0,,,,,,,,,,,,,,,,,,,,,,
,,,,,00024,2023-09-27_14h47.49.936,vbt_B2_day3,2022.2.4,Win32,59.95563283,,,,,,down,0,0.2621,,-0.216666681,-0.145370413,1,0,0,0,82,82,16,1,ziek,images/br_ziek.png,images/cb_ziek.png,0,,,,,,,,,,,,,,,,,,,,,,
,,,,,00024,2023-09-27_14h47.49.936,vbt_B2_day3,2022.2.4,Win32,59.95563283,,,,,,down,0,3.920299999,,-0.216666681,-0.145370413,1,0,0,0,83,83,95,1,vreten,images/br_vreten.png,images/cb_vreten.png,0,,,,,,,,,,,,,,,,,,,,,,
,,,,,00024,2023-09-27_14h47.49.936,vbt_B2_day3,2022.2.4,Win32,59.95563283,,,,,,down,0,2.569400002,,-0.216666681,-0.145370413,1,0,0,0,84,84,89,1,slapen,images/br_slapen.png,images/cb_slapen.png,0,,,,,,,,,,,,,,,,,,,,,,
,,,,,00024,2023-09-27_14h47.49.936,vbt_B2_day3,2022.2.4,Win32,59.95563283,,,,,,down,0,5.186799999,,-0.209259245,-0.145370413,1,0,0,0,85,85,126,1,kasteel,images/br_kasteel.png,images/cb_kasteel.png,0,,,,,,,,,,,,,,,,,,,,,,
,,,,,00024,2023-09-27_14h47.49.936,vbt_B2_day3,2022.2.4,Win32,59.95563283,,,,,,down,0,6.287199999,,-0.209259245,-0.145370413,1,0,0,0,86,86,155,1,gerucht,images/br_gerucht.png,images/cb_gerucht.png,0,,,,,,,,,,,,,,,,,,,,,,
,,,,,00024,2023-09-27_14h47.49.936,vbt_B2_day3,2022.2.4,Win32,59.95563283,,,,,,down,0,6.538400002,,-0.209259245,-0.145370413,1,0,0,0,87,87,38,1,baai,images/br_baai.png,images/cb_baai.png,0,,,,,,,,,,,,,,,,,,,,,,
,,,,,00024,2023-09-27_14h47.49.936,vbt_B2_day3,2022.2.4,Win32,59.95563283,,,,,,down,0,2.335700001,,-0.209259245,-0.145370413,1,0,0,0,88,88,74,1,graaf,images/br_graaf.png,images/cb_graaf.png,0,,,,,,,,,,,,,,,,,,,,,,
,,,,,00024,2023-09-27_14h47.49.936,vbt_B2_day3,2022.2.4,Win32,59.95563283,,,,,,down,0,5.026799999,,-0.209259245,-0.145370413,1,0,0,0,89,89,11,1,mode,images/br_mode.png,images/cb_mode.png,0,,,,,,,,,,,,,,,,,,,,,,
,,,,,00024,2023-09-27_14h47.49.936,vbt_B2_day3,2022.2.4,Win32,59.95563283,,,,,,down,0,0.8595,,-0.196296268,-0.154629672,1,0,0,0,90,90,160,1,daarheen,images/br_daarheen.png,images/cb_daarheen.png,0,,,,,,,,,,,,,,,,,,,,,,
,,,,,00024,2023-09-27_14h47.49.936,vbt_B2_day3,2022.2.4,Win32,59.95563283,,,,,,down,0,1.4229,,-0.196296268,-0.154629672,1,0,0,0,91,91,19,1,geit,images/br_geit.png,images/cb_geit.png,0,,,,,,,,,,,,,,,,,,,,,,
,,,,,00024,2023-09-27_14h47.49.936,vbt_B2_day3,2022.2.4,Win32,59.95563283,,,,,,down,0,2.9171,,-0.196296268,-0.154629672,1,0,0,0,92,92,120,1,klimmen,images/br_klimmen.png,images/cb_klimmen.png,0,,,,,,,,,,,,,,,,,,,,,,
,,,,,00024,2023-09-27_14h47.49.936,vbt_B2_day3,2022.2.4,Win32,59.95563283,,,,,,down,0,2.260200001,,-0.196296268,-0.154629672,1,0,0,0,93,93,15,1,soda,images/br_soda.png,images/cb_soda.png,0,,,,,,,,,,,,,,,,,,,,,,
,,,,,00024,2023-09-27_14h47.49.936,vbt_B2_day3,2022.2.4,Win32,59.95563283,,,,,,down,0,1.7349,,-0.196296268,-0.154629672,1,0,0,0,94,94,47,1,kabel,images/br_kabel.png,images/cb_kabel.png,0,,,,,,,,,,,,,,,,,,,,,,
,,,,,00024,2023-09-27_14h47.49.936,vbt_B2_day3,2022.2.4,Win32,59.95563283,,,,,,down,0,2.8945,,-0.196296268,-0.154629672,1,0,0,0,95,95,23,1,zout,images/br_zout.png,images/cb_zout.png,1,zout,,,,,,,,,,,,,,,,,,,,,
,,,,,00024,2023-09-27_14h47.49.936,vbt_B2_day3,2022.2.4,Win32,59.95563283,,,,,,down,0,0.611,,-0.187037009,-0.155555584,1,0,0,0,96,96,171,1,aarzelen,images/br_aarzelen.png,images/cb_aarzelen.png,0,,,,,,,,,,,,,,,,,,,,,,
,,,,,00024,2023-09-27_14h47.49.936,vbt_B2_day3,2022.2.4,Win32,59.95563283,,,,,,down,0,0.3335,,-0.187037009,-0.155555584,1,0,0,0,97,97,53,1,baron,images/br_baron.png,images/cb_baron.png,0,,,,,,,,,,,,,,,,,,,,,,
,,,,,00024,2023-09-27_14h47.49.936,vbt_B2_day3,2022.2.4,Win32,59.95563283,,,,,,down,0,3.500700001,,-0.187037009,-0.155555584,1,0,0,0,98,98,79,1,nodig,images/br_nodig.png,images/cb_nodig.png,0,,,,,,,,,,,,,,,,,,,,,,
,,,,,00024,2023-09-27_14h47.49.936,vbt_B2_day3,2022.2.4,Win32,59.95563283,,,,,,down,0,2.0365,,-0.187037009,-0.155555584,1,0,0,0,99,99,133,1,seizoen,images/br_seizoen.png,images/cb_seizoen.png,0,,,,,,,,,,,,,,,,,,,,,,
,,,,,00024,2023-09-27_14h47.49.936,vbt_B2_day3,2022.2.4,Win32,59.95563283,,,,,,down,0,1.9169,,-0.185185185,-0.175925926,1,0,0,0,100,100,191,1,opheffen,images/br_opheffen.png,images/cb_opheffen.png,0,,,,,,,,,,,,,,,,,,,,,,
,,,,,00024,2023-09-27_14h47.49.936,vbt_B2_day3,2022.2.4,Win32,59.95563283,,,,,,down,0,2.240300001,,-0.184259273,-0.175000014,1,0,0,0,101,101,73,1,volop,images/br_volop.png,images/cb_volop.png,0,,,,,,,,,,,,,,,,,,,,,,
,,,,,00024,2023-09-27_14h47.49.936,vbt_B2_day3,2022.2.4,Win32,59.95563283,,,,,,down,0,4.566699999,,-0.184259273,-0.175000014,1,0,0,0,102,102,65,1,parel,images/br_parel.png,images/cb_parel.png,0,,,,,,,,,,,,,,,,,,,,,,
,,,,,00024,2023-09-27_14h47.49.936,vbt_B2_day3,2022.2.4,Win32,59.95563283,,,,,,down,0,3.1711,,-0.184259273,-0.175000014,1,0,0,0,103,103,109,1,totaal,images/br_totaal.png,images/cb_totaal.png,0,,,,,,,,,,,,,,,,,,,,,,
,,,,,00024,2023-09-27_14h47.49.936,vbt_B2_day3,2022.2.4,Win32,59.95563283,,,,,,down,0,0.517799999,,-0.184259273,-0.175000014,1,0,0,0,104,104,28,1,stal,images/br_stal.png,images/cb_stal.png,0,,,,,,,,,,,,,,,,,,,,,,
,,,,,00024,2023-09-27_14h47.49.936,vbt_B2_day3,2022.2.4,Win32,59.95563283,,,,,,down,0,4.999299999,,-0.184259273,-0.175000014,1,0,0,0,105,105,156,1,rechten,images/br_rechten.png,images/cb_rechten.png,0,,,,,,,,,,,,,,,,,,,,,,
,,,,,00024,2023-09-27_14h47.49.936,vbt_B2_day3,2022.2.4,Win32,59.95563283,,,,,,down,0,5.869,,-0.184259273,-0.175000014,1,0,0,0,106,106,61,1,groen,images/br_groen.png,images/cb_groen.png,1,groen,,,,,,,,,,,,,,,,,,,,,
,,,,,00024,2023-09-27_14h47.49.936,vbt_B2_day3,2022.2.4,Win32,59.95563283,,,,,,down,0,10.3664,,-0.184259273,-0.175000014,1,0,0,0,107,107,37,1,mijn,images/br_mijn.png,images/cb_mijn.png,0,,,,,,,,,,,,,,,,,,,,,,
,,,,,00024,2023-09-27_14h47.49.936,vbt_B2_day3,2022.2.4,Win32,59.95563283,,,,,,down,0,0.602599998,,-0.184259273,-0.175000014,1,0,0,0,108,108,113,1,koppen,images/br_koppen.png,images/cb_koppen.png,0,,,,,,,,,,,,,,,,,,,,,,
,,,,,00024,2023-09-27_14h47.49.936,vbt_B2_day3,2022.2.4,Win32,59.95563283,,,,,,down,0,2.282699999,,-0.184259273,-0.175000014,1,0,0,0,109,109,75,1,snoep,images/br_snoep.png,images/cb_snoep.png,0,,,,,,,,,,,,,,,,,,,,,,
,,,,,00024,2023-09-27_14h47.49.936,vbt_B2_day3,2022.2.4,Win32,59.95563283,,,,,,down,0,7.815299999,,-0.184259273,-0.175000014,1,0,0,0,110,110,175,1,heengaan,images/br_heengaan.png,images/cb_heengaan.png,0,,,,,,,,,,,,,,,,,,,,,,
,,,,,00024,2023-09-27_14h47.49.936,vbt_B2_day3,2022.2.4,Win32,59.95563283,,,,,,down,0,1.822799999,,-0.184259273,-0.175000014,1,0,0,0,111,111,189,1,aanraden,images/br_aanraden.png,images/cb_aanraden.png,0,,,,,,,,,,,,,,,,,,,,,,
,,,,,00024,2023-09-27_14h47.49.936,vbt_B2_day3,2022.2.4,Win32,59.95563283,,,,,,down,0,19.5726,,-0.184259273,-0.175000014,1,0,0,0,112,112,141,1,knielen,images/br_knielen.png,images/cb_knielen.png,1,knielen,,,,,,,,,,,,,,,,,,,,,
,,,,,00024,2023-09-27_14h47.49.936,vbt_B2_day3,2022.2.4,Win32,59.95563283,,,,,,down,0,34.0141,,-0.184259273,-0.175000014,1,0,0,0,113,113,176,1,techniek,images/br_techniek.png,images/cb_techniek.png,0,,,,,,,,,,,,,,,,,,,,,,
,,,,,00024,2023-09-27_14h47.49.936,vbt_B2_day3,2022.2.4,Win32,59.95563283,,,,,,down,0,26.5836,,-0.184259273,-0.175000014,1,0,0,0,114,114,104,1,zweven,images/br_zweven.png,images/cb_zweven.png,0,,,,,,,,,,,,,,,,,,,,,,
,,,,,00024,2023-09-27_14h47.49.936,vbt_B2_day3,2022.2.4,Win32,59.95563283,,,,,,down,0,13.0379,,-0.184259273,-0.175000014,1,0,0,0,115,115,106,1,zingen,images/br_zingen.png,images/cb_zingen.png,0,,,,,,,,,,,,,,,,,,,,,,
,,,,,00024,2023-09-27_14h47.49.936,vbt_B2_day3,2022.2.4,Win32,59.95563283,,,,,,down,0,1.5574,,-0.184259273,-0.175000014,1,0,0,0,116,116,72,1,strak,images/br_strak.png,images/cb_strak.png,0,,,,,,,,,,,,,,,,,,,,,,
,,,,,00024,2023-09-27_14h47.49.936,vbt_B2_day3,2022.2.4,Win32,59.95563283,,,,,,down,0,4.468799999,,-0.184259273,-0.175000014,1,0,0,0,117,117,3,1,mand,images/br_mand.png,images/cb_mand.png,0,,,,,,,,,,,,,,,,,,,,,,
,,,,,00024,2023-09-27_14h47.49.936,vbt_B2_day3,2022.2.4,Win32,59.95563283,,,,,,down,0,6.688799999,,-0.184259273,-0.175000014,1,0,0,0,118,118,165,1,feestdag,images/br_feestdag.png,images/cb_feestdag.png,0,,,,,,,,,,,,,,,,,,,,,,
,,,,,00024,2023-09-27_14h47.49.936,vbt_B2_day3,2022.2.4,Win32,59.95563283,,,,,,down,0,9.9676,,-0.184259273,-0.175000014,1,0,0,0,119,119,145,1,invloed,images/br_invloed.png,images/cb_invloed.png,0,,,,,,,,,,,,,,,,,,,,,,
,,,,,00024,2023-09-27_14h47.49.936,vbt_B2_day3,2022.2.4,Win32,59.95563283,,,,,,down,0,14.95,,-0.17314812,-0.179629644,1,0,0,0,120,120,164,1,anarchie,images/br_anarchie.png,images/cb_anarchie.png,0,,,,,,,,,,,,,,,,,,,,,,
,,,,,00024,2023-09-27_14h47.49.936,vbt_B2_day3,2022.2.4,Win32,59.95563283,,,,,,down,0,4.634,,-0.162962949,-0.185185185,1,0,0,0,121,121,184,1,aandelen,images/br_aandelen.png,images/cb_aandelen.png,0,,,,,,,,,,,,,,,,,,,,,,
,,,,,00024,2023-09-27_14h47.49.936,vbt_B2_day3,2022.2.4,Win32,59.95563283,,,,,,down,0,4.6779,,-0.162962949,-0.185185185,1,0,0,0,122,122,169,1,oprotten,images/br_oprotten.png,images/cb_oprotten.png,0,,,,,,,,,,,,,,,,,,,,,,
,,,,,00024,2023-09-27_14h47.49.936,vbt_B2_day3,2022.2.4,Win32,59.95563283,,,,,,down,0,1.666299999,,-0.162962949,-0.185185185,1,0,0,0,123,123,150,1,gegeven,images/br_gegeven.png,images/cb_gegeven.png,0,,,,,,,,,,,,,,,,,,,,,,
,,,,,00024,2023-09-27_14h47.49.936,vbt_B2_day3,2022.2.4,Win32,59.95563283,,,,,,down,0,0.805799999,,-0.162962949,-0.185185185,1,0,0,0,124,124,151,1,aanzoek,images/br_aanzoek.png,images/cb_aanzoek.png,0,,,,,,,,,,,,,,,,,,,,,,
,,,,,00024,2023-09-27_14h47.49.936,vbt_B2_day3,2022.2.4,Win32,59.95563283,,,,,,down,0,4.167299999,,-0.162962949,-0.185185185,1,0,0,0,125,125,90,1,geluid,images/br_geluid.png,images/cb_geluid.png,0,,,,,,,,,,,,,,,,,,,,,,
,,,,,00024,2023-09-27_14h47.49.936,vbt_B2_day3,2022.2.4,Win32,59.95563283,,,,,,down,0,8.4351,,-0.162962949,-0.185185185,1,0,0,0,126,126,7,1,geld,images/br_geld.png,images/cb_geld.png,0,,,,,,,,,,,,,,,,,,,,,,
,,,,,00024,2023-09-27_14h47.49.936,vbt_B2_day3,2022.2.4,Win32,59.95563283,,,,,,down,0,6.2486,,-0.162962949,-0.185185185,1,0,0,0,127,127,111,1,ticket,images/br_ticket.png,images/cb_ticket.png,0,,,,,,,,,,,,,,,,,,,,,,
,,,,,00024,2023-09-27_14h47.49.936,vbt_B2_day3,2022.2.4,Win32,59.95563283,,,,,,down,0,4.610699999,,-0.162962949,-0.185185185,1,0,0,0,128,128,157,1,uitlaat,images/br_uitlaat.png,images/cb_uitlaat.png,0,,,,,,,,,,,,,,,,,,,,,,
,,,,,00024,2023-09-27_14h47.49.936,vbt_B2_day3,2022.2.4,Win32,59.95563283,,,,,,down,0,13.398,,-0.157407407,-0.185185185,1,0,0,0,129,129,67,1,zwart,images/br_zwart.png,images/cb_zwart.png,0,,,,,,,,,,,,,,,,,,,,,,
,,,,,00024,2023-09-27_14h47.49.936,vbt_B2_day3,2022.2.4,Win32,59.95563283,,,,,,down,0,0.5071,,-0.160185143,-0.196296339,1,0,0,0,130,130,196,1,nakijken,images/br_nakijken.png,images/cb_nakijken.png,0,,,,,,,,,,,,,,,,,,,,,,
,,,,,00024,2023-09-27_14h47.49.936,vbt_B2_day3,2022.2.4,Win32,59.95563283,,,,,,down,0,0.8715,,-0.160185143,-0.196296339,1,0,0,0,131,131,105,1,wijlen,images/br_wijlen.png,images/cb_wijlen.png,0,,,,,,,,,,,,,,,,,,,,,,
,,,,,00024,2023-09-27_14h47.49.936,vbt_B2_day3,2022.2.4,Win32,59.95563283,,,,,,down,0,0.4521,,-0.160185143,-0.196296339,1,0,0,0,132,132,77,1,woede,images/br_woede.png,images/cb_woede.png,0,,,,,,,,,,,,,,,,,,,,,,
,,,,,00024,2023-09-27_14h47.49.936,vbt_B2_day3,2022.2.4,Win32,59.95563283,,,,,,down,0,2.050599998,,-0.136111083,-0.208333333,1,0,0,0,133,133,27,1,dans,images/br_dans.png,images/cb_dans.png,0,,,,,,,,,,,,,,,,,,,,,,
,,,,,00024,2023-09-27_14h47.49.936,vbt_B2_day3,2022.2.4,Win32,59.95563283,,,,,,down,0,0.1951,,-0.136111083,-0.208333333,1,0,0,0,134,134,13,1,kaal,images/br_kaal.png,images/cb_kaal.png,0,,,,,,,,,,,,,,,,,,,,,,
,,,,,00024,2023-09-27_14h47.49.936,vbt_B2_day3,2022.2.4,Win32,59.95563283,,,,,,down,0,0.2629,,-0.136111083,-0.208333333,1,0,0,0,135,135,55,1,praat,images/br_praat.png,images/cb_praat.png,0,,,,,,,,,,,,,,,,,,,,,,
,,,,,00024,2023-09-27_14h47.49.936,vbt_B2_day3,2022.2.4,Win32,59.95563283,,,,,,down,0,0.389199999,,-0.136111083,-0.208333333,1,0,0,0,136,136,112,1,lukken,images/br_lukken.png,images/cb_lukken.png,0,,,,,,,,,,,,,,,,,,,,,,
,,,,,00024,2023-09-27_14h47.49.936,vbt_B2_day3,2022.2.4,Win32,59.95563283,,,,,,down,0,2.5344,,-0.136111083,-0.208333333,1,0,0,0,137,137,144,1,eetlust,images/br_eetlust.png,images/cb_eetlust.png,0,,,,,,,,,,,,,,,,,,,,,,
,,,,,00024,2023-09-27_14h47.49.936,vbt_B2_day3,2022.2.4,Win32,59.95563283,,,,,,down,0,9.401699999,,-0.136111083,-0.208333333,1,0,0,0,138,138,130,1,keihard,images/br_keihard.png,images/cb_keihard.png,0,,,,,,,,,,,,,,,,,,,,,,
,,,,,00024,2023-09-27_14h47.49.936,vbt_B2_day3,2022.2.4,Win32,59.95563283,,,,,,down,0,81.1254,,-0.136111083,-0.208333333,1,0,0,0,139,139,42,1,bleek,images/br_bleek.png,images/cb_bleek.png,0,,,,,,,,,,,,,,,,,,,,,,
,,,,,00024,2023-09-27_14h47.49.936,vbt_B2_day3,2022.2.4,Win32,59.95563283,,,,,,down,0,6.823700001,,-0.106481481,-0.180555556,1,0,0,0,140,140,100,1,geduld,images/br_geduld.png,images/cb_geduld.png,1,geduld,,,,,,,,,,,,,,,,,,,,,
,,,,,00024,2023-09-27_14h47.49.936,vbt_B2_day3,2022.2.4,Win32,59.95563283,,,,,,down,0,4.2509,,-0.24537037,-0.329629616,1,0,0,0,141,141,40,1,schep,images/br_schep.png,images/cb_schep.png,0,,,,,,,,,,,,,,,,,,,,,,
,,,,,00024,2023-09-27_14h47.49.936,vbt_B2_day3,2022.2.4,Win32,59.95563283,,,,,,down,0,1.318199999,,-0.24537037,-0.329629616,1,0,0,0,142,142,35,1,lust,images/br_lust.png,images/cb_lust.png,0,,,,,,,,,,,,,,,,,,,,,,
,,,,,00024,2023-09-27_14h47.49.936,vbt_B2_day3,2022.2.4,Win32,59.95563283,,,,,,down,0,3.4024,,-0.24537037,-0.329629616,1,0,0,0,143,143,83,1,mening,images/br_mening.png,images/cb_mening.png,0,,,,,,,,,,,,,,,,,,,,,,
,,,,,00024,2023-09-27_14h47.49.936,vbt_B2_day3,2022.2.4,Win32,59.95563283,,,,,,down,0,2.950900002,,-0.24537037,-0.329629616,1,0,0,0,144,144,163,1,schuilen,images/br_schuilen.png,images/cb_schuilen.png,0,,,,,,,,,,,,,,,,,,,,,,
,,,,,00024,2023-09-27_14h47.49.936,vbt_B2_day3,2022.2.4,Win32,59.95563283,,,,,,down,0,2.293199999,,-0.238888847,-0.325925968,1,0,0,0,145,145,62,1,knaap,images/br_knaap.png,images/cb_knaap.png,1,knaap,,,,,,,,,,,,,,,,,,,,,
,,,,,00024,2023-09-27_14h47.49.936,vbt_B2_day3,2022.2.4,Win32,59.95563283,,,,,,down,0,0.153299999,,-0.231481481,-0.33148151,1,0,0,0,146,146,39,1,laag,images/br_laag.png,images/cb_laag.png,0,,,,,,,,,,,,,,,,,,,,,,
,,,,,00024,2023-09-27_14h47.49.936,vbt_B2_day3,2022.2.4,Win32,59.95563283,,,,,,down,0,3.2851,,-0.236111111,-0.329629616,1,0,0,0,147,147,103,1,joggen,images/br_joggen.png,images/cb_joggen.png,1,joggen,,,,,,,,,,,,,,,,,,,,,
,,,,,00024,2023-09-27_14h47.49.936,vbt_B2_day3,2022.2.4,Win32,59.95563283,,,,,,down,0,6.6865,,-0.236111111,-0.329629616,1,0,0,0,148,148,54,1,gebit,images/br_gebit.png,images/cb_gebit.png,0,,,,,,,,,,,,,,,,,,,,,,
,,,,,00024,2023-09-27_14h47.49.936,vbt_B2_day3,2022.2.4,Win32,59.95563283,,,,,,down,0,2.784199999,,-0.236111111,-0.329629616,1,0,0,0,149,149,138,1,akkoord,images/br_akkoord.png,images/cb_akkoord.png,0,,,,,,,,,,,,,,,,,,,,,,
,,,,,00024,2023-09-27_14h47.49.936,vbt_B2_day3,2022.2.4,Win32,59.95563283,,,,,,down,0,2.7854,,-0.236111111,-0.329629616,1,0,0,0,150,150,136,1,waarbij,images/br_waarbij.png,images/cb_waarbij.png,0,,,,,,,,,,,,,,,,,,,,,,
,,,,,00024,2023-09-27_14h47.49.936,vbt_B2_day3,2022.2.4,Win32,59.95563283,,,,,,down,0,2.886200001,,-0.236111111,-0.329629616,1,0,0,0,151,151,45,1,piste,images/br_piste.png,images/cb_piste.png,0,,,,,,,,,,,,,,,,,,,,,,
,,,,,00024,2023-09-27_14h47.49.936,vbt_B2_day3,2022.2.4,Win32,59.95563283,,,,,,down,0,5.057200001,,-0.236111111,-0.329629616,1,0,0,0,152,152,107,1,maling,images/br_maling.png,images/cb_maling.png,0,,,,,,,,,,,,,,,,,,,,,,
,,,,,00024,2023-09-27_14h47.49.936,vbt_B2_day3,2022.2.4,Win32,59.95563283,,,,,,down,0,7.567299999,,-0.236111111,-0.329629616,1,0,0,0,153,153,46,1,jagen,images/br_jagen.png,images/cb_jagen.png,0,,,,,,,,,,,,,,,,,,,,,,
,,,,,00024,2023-09-27_14h47.49.936,vbt_B2_day3,2022.2.4,Win32,59.95563283,,,,,,down,0,4.8974,,-0.236111111,-0.329629616,1,0,0,0,154,154,116,1,besmet,images/br_besmet.png,images/cb_besmet.png,0,,,,,,,,,,,,,,,,,,,,,,
,,,,,00024,2023-09-27_14h47.49.936,vbt_B2_day3,2022.2.4,Win32,59.95563283,,,,,,down,0,2.8609,,-0.27407406,-0.34629631,1,0,0,0,155,155,88,1,boeien,images/br_boeien.png,images/cb_boeien.png,0,,,,,,,,,,,,,,,,,,,,,,
,,,,,00024,2023-09-27_14h47.49.936,vbt_B2_day3,2022.2.4,Win32,59.95563283,,,,,,down,0,6.040799999,,-0.27407406,-0.34629631,1,0,0,0,156,156,122,1,waarvan,images/br_waarvan.png,images/cb_waarvan.png,0,,,,,,,,,,,,,,,,,,,,,,
,,,,,00024,2023-09-27_14h47.49.936,vbt_B2_day3,2022.2.4,Win32,59.95563283,,,,,,down,0,4.5834,,-0.27407406,-0.34629631,1,0,0,0,157,157,173,1,apparaat,images/br_apparaat.png,images/cb_apparaat.png,0,,,,,,,,,,,,,,,,,,,,,,
,,,,,00024,2023-09-27_14h47.49.936,vbt_B2_day3,2022.2.4,Win32,59.95563283,,,,,,down,0,13.334,,-0.27407406,-0.34629631,1,0,0,0,158,158,128,1,prikken,images/br_prikken.png,images/cb_prikken.png,0,,,,,,,,,,,,,,,,,,,,,,
,,,,,00024,2023-09-27_14h47.49.936,vbt_B2_day3,2022.2.4,Win32,59.95563283,,,,,,down,0,6.0505,,-0.27407406,-0.34629631,1,0,0,0,159,159,174,1,stemming,images/br_stemming.png,images/cb_stemming.png,0,,,,,,,,,,,,,,,,,,,,,,
,,,,,00024,2023-09-27_14h47.49.936,vbt_B2_day3,2022.2.4,Win32,59.95563283,,,,,,down,0,4.1525,,-0.274999972,-0.376851894,1,0,0,0,160,160,25,1,plek,images/br_plek.png,images/cb_plek.png,0,,,,,,,,,,,,,,,,,,,,,,
,,,,,00024,2023-09-27_14h47.49.936,vbt_B2_day3,2022.2.4,Win32,59.95563283,,,,,,down,0,2.1179,,-0.274999972,-0.376851894,1,0,0,0,161,161,24,1,jurk,images/br_jurk.png,images/cb_jurk.png,0,,,,,,,,,,,,,,,,,,,,,,
,,,,,00024,2023-09-27_14h47.49.936,vbt_B2_day3,2022.2.4,Win32,59.95563283,,,,,,down,0,4.919,,-0.274999972,-0.376851894,1,0,0,0,162,162,94,1,oceaan,images/br_oceaan.png,images/cb_oceaan.png,0,,,,,,,,,,,,,,,,,,,,,,
,,,,,00024,2023-09-27_14h47.49.936,vbt_B2_day3,2022.2.4,Win32,59.95563283,,,,,,down,0,12.4171,,-0.274999972,-0.376851894,1,0,0,0,163,163,71,1,bever,images/br_bever.png,images/cb_bever.png,0,,,,,,,,,,,,,,,,,,,,,,
,,,,,00024,2023-09-27_14h47.49.936,vbt_B2_day3,2022.2.4,Win32,59.95563283,,,,,,down,0,8.083099998,,-0.26944443,-0.376851894,1,0,0,0,164,164,167,1,eenhoorn,images/br_eenhoorn.png,images/cb_eenhoorn.png,0,,,,,,,,,,,,,,,,,,,,,,
,,,,,00024,2023-09-27_14h47.49.936,vbt_B2_day3,2022.2.4,Win32,59.95563283,,,,,,down,0,2.885400002,,-0.26944443,-0.376851894,1,0,0,0,165,165,192,1,schaamte,images/br_schaamte.png,images/cb_schaamte.png,0,,,,,,,,,,,,,,,,,,,,,,
,,,,,00024,2023-09-27_14h47.49.936,vbt_B2_day3,2022.2.4,Win32,59.95563283,,,,,,down,0,1.068200001,,-0.26944443,-0.376851894,1,0,0,0,166,166,4,1,moes,images/br_moes.png,images/cb_moes.png,0,,,,,,,,,,,,,,,,,,,,,,
,,,,,00024,2023-09-27_14h47.49.936,vbt_B2_day3,2022.2.4,Win32,59.95563283,,,,,,down,0,5.894199999,,-0.26944443,-0.376851894,1,0,0,0,167,167,185,1,mijnheer,images/br_mijnheer.png,images/cb_mijnheer.png,0,,,,,,,,,,,,,,,,,,,,,,
,,,,,00024,2023-09-27_14h47.49.936,vbt_B2_day3,2022.2.4,Win32,59.95563283,,,,,,down,0,4.767300001,,-0.26944443,-0.376851894,1,0,0,0,168,168,99,1,koffie,images/br_koffie.png,images/cb_koffie.png,0,,,,,,,,,,,,,,,,,,,,,,
,,,,,00024,2023-09-27_14h47.49.936,vbt_B2_day3,2022.2.4,Win32,59.95563283,,,,,,down,0,12.9691,,-0.26944443,-0.376851894,1,0,0,0,169,169,84,1,lokken,images/br_lokken.png,images/cb_lokken.png,0,,,,,,,,,,,,,,,,,,,,,,
,,,,,00024,2023-09-27_14h47.49.936,vbt_B2_day3,2022.2.4,Win32,59.95563283,,,,,,down,0,0.3004,,-0.26944443,-0.376851894,1,0,0,0,170,170,125,1,aanzien,images/br_aanzien.png,images/cb_aanzien.png,0,,,,,,,,,,,,,,,,,,,,,,
,,,,,00024,2023-09-27_14h47.49.936,vbt_B2_day3,2022.2.4,Win32,59.95563283,,,,,,down,0,2.783799999,,-0.26944443,-0.376851894,1,0,0,0,171,171,80,1,kanjer,images/br_kanjer.png,images/cb_kanjer.png,0,,,,,,,,,,,,,,,,,,,,,,
,,,,,00024,2023-09-27_14h47.49.936,vbt_B2_day3,2022.2.4,Win32,59.95563283,,,,,,down,0,8.8665,,-0.26944443,-0.376851894,1,0,0,0,172,172,134,1,geliefd,images/br_geliefd.png,images/cb_geliefd.png,0,,,,,,,,,,,,,,,,,,,,,,
,,,,,00024,2023-09-27_14h47.49.936,vbt_B2_day3,2022.2.4,Win32,59.95563283,,,,,,down,0,6.171200001,,-0.26944443,-0.376851894,1,0,0,0,173,173,168,1,bisschop,images/br_bisschop.png,images/cb_bisschop.png,0,,,,,,,,,,,,,,,,,,,,,,
,,,,,00024,2023-09-27_14h47.49.936,vbt_B2_day3,2022.2.4,Win32,59.95563283,,,,,,down,0,8.684,,-0.26944443,-0.376851894,1,0,0,0,174,174,172,1,weigeren,images/br_weigeren.png,images/cb_weigeren.png,0,,,,,,,,,,,,,,,,,,,,,,
,,,,,00024,2023-09-27_14h47.49.936,vbt_B2_day3,2022.2.4,Win32,59.95563283,,,,,,down,0,1.1684,,-0.26944443,-0.366666653,1,0,0,0,175,175,44,1,flits,images/br_flits.png,images/cb_flits.png,0,,,,,,,,,,,,,,,,,,,,,,
,,,,,00024,2023-09-27_14h47.49.936,vbt_B2_day3,2022.2.4,Win32,59.95563283,,,,,,down,0,3.947299999,,-0.26944443,-0.366666653,1,0,0,0,176,176,114,1,vullen,images/br_vullen.png,images/cb_vullen.png,0,,,,,,,,,,,,,,,,,,,,,,
,,,,,00024,2023-09-27_14h47.49.936,vbt_B2_day3,2022.2.4,Win32,59.95563283,,,,,,down,0,4.1624,,-0.26944443,-0.366666653,1,0,0,0,177,177,91,1,gezond,images/br_gezond.png,images/cb_gezond.png,0,,,,,,,,,,,,,,,,,,,,,,
,,,,,00024,2023-09-27_14h47.49.936,vbt_B2_day3,2022.2.4,Win32,59.95563283,,,,,,down,0,0.434900002,,-0.26944443,-0.366666653,1,0,0,0,178,178,2,1,jaar,images/br_jaar.png,images/cb_jaar.png,0,,,,,,,,,,,,,,,,,,,,,,
,,,,,00024,2023-09-27_14h47.49.936,vbt_B2_day3,2022.2.4,Win32,59.95563283,,,,,,down,0,0.0844,,-0.26944443,-0.366666653,1,0,0,0,179,179,1,1,zaal,images/br_zaal.png,images/cb_zaal.png,0,,,,,,,,,,,,,,,,,,,,,,
,,,,,00024,2023-09-27_14h47.49.936,vbt_B2_day3,2022.2.4,Win32,59.95563283,,,,,,down,0,5.6131,,-0.26944443,-0.366666653,1,0,0,0,180,180,197,1,spanning,images/br_spanning.png,images/cb_spanning.png,0,,,,,,,,,,,,,,,,,,,,,,
,,,,,00024,2023-09-27_14h47.49.936,vbt_B2_day3,2022.2.4,Win32,59.95563283,,,,,,down,0,0.420299999,,-0.26944443,-0.366666653,1,0,0,0,181,181,32,1,palm,images/br_palm.png,images/cb_palm.png,0,,,,,,,,,,,,,,,,,,,,,,
,,,,,00024,2023-09-27_14h47.49.936,vbt_B2_day3,2022.2.4,Win32,59.95563283,,,,,,down,0,3.4845,,-0.26944443,-0.366666653,1,0,0,0,182,182,101,1,staren,images/br_staren.png,images/cb_staren.png,1,staren,,,,,,,,,,,,,,,,,,,,,
,,,,,00024,2023-09-27_14h47.49.936,vbt_B2_day3,2022.2.4,Win32,59.95563283,,,,,,down,0,1.050799999,,-0.26944443,-0.366666653,1,0,0,0,183,183,36,1,vuur,images/br_vuur.png,images/cb_vuur.png,0,,,,,,,,,,,,,,,,,,,,,,
,,,,,00024,2023-09-27_14h47.49.936,vbt_B2_day3,2022.2.4,Win32,59.95563283,,,,,,down,0,4.5516,,-0.26944443,-0.366666653,1,0,0,0,184,184,14,1,rijp,images/br_rijp.png,images/cb_rijp.png,0,,,,,,,,,,,,,,,,,,,,,,
,,,,,00024,2023-09-27_14h47.49.936,vbt_B2_day3,2022.2.4,Win32,59.95563283,,,,,,down,0,3.371299999,,-0.26944443,-0.366666653,1,0,0,0,185,185,149,1,redding,images/br_redding.png,images/cb_redding.png,0,,,,,,,,,,,,,,,,,,,,,,
,,,,,00024,2023-09-27_14h47.49.936,vbt_B2_day3,2022.2.4,Win32,59.95563283,,,,,,down,0,1.728199999,,-0.26944443,-0.366666653,1,0,0,0,186,186,20,1,site,images/br_site.png,images/cb_site.png,1,site,,,,,,,,,,,,,,,,,,,,,
,,,,,00024,2023-09-27_14h47.49.936,vbt_B2_day3,2022.2.4,Win32,59.95563283,,,,,,down,0,4.067799999,,-0.26944443,-0.366666653,1,0,0,0,187,187,93,1,waarop,images/br_waarop.png,images/cb_waarop.png,0,,,,,,,,,,,,,,,,,,,,,,
,,,,,00024,2023-09-27_14h47.49.936,vbt_B2_day3,2022.2.4,Win32,59.95563283,,,,,,down,0,1.368699999,,-0.259259259,-0.365740741,1,0,0,0,188,188,97,1,loyaal,images/br_loyaal.png,images/cb_loyaal.png,0,,,,,,,,,,,,,,,,,,,,,,
,,,,,00024,2023-09-27_14h47.49.936,vbt_B2_day3,2022.2.4,Win32,59.95563283,,,,,,down,0,12.3569,,-0.259259259,-0.365740741,1,0,0,0,189,189,195,1,middelen,images/br_middelen.png,images/cb_middelen.png,0,,,,,,,,,,,,,,,,,,,,,,
,,,,,00024,2023-09-27_14h47.49.936,vbt_B2_day3,2022.2.4,Win32,59.95563283,,,,,,down,0,0.4686,,-0.259259259,-0.365740741,1,0,0,0,190,190,18,1,blik,images/br_blik.png,images/cb_blik.png,0,,,,,,,,,,,,,,,,,,,,,,
,,,,,00024,2023-09-27_14h47.49.936,vbt_B2_day3,2022.2.4,Win32,59.95563283,,,,,,down,0,10.4828,,-0.256481453,-0.365740741,1,0,0,0,191,191,179,1,woestijn,images/br_woestijn.png,images/cb_woestijn.png,0,,,,,,,,,,,,,,,,,,,,,,
,,,,,00024,2023-09-27_14h47.49.936,vbt_B2_day3,2022.2.4,Win32,59.95563283,,,,,,down,0,0.4679,,-0.256481453,-0.365740741,1,0,0,0,192,192,166,1,strikken,images/br_strikken.png,images/cb_strikken.png,0,,,,,,,,,,,,,,,,,,,,,,
,,,,,00024,2023-09-27_14h47.49.936,vbt_B2_day3,2022.2.4,Win32,59.95563283,,,,,,down,0,5.2201,,-0.256481453,-0.365740741,1,0,0,0,193,193,92,1,geheim,images/br_geheim.png,images/cb_geheim.png,0,,,,,,,,,,,,,,,,,,,,,,
,,,,,00024,2023-09-27_14h47.49.936,vbt_B2_day3,2022.2.4,Win32,59.95563283,,,,,,down,0,6.2095,,-0.256481453,-0.365740741,1,0,0,0,194,194,140,1,blijven,images/br_blijven.png,images/cb_blijven.png,1,blijven,,,,,,,,,,,,,,,,,,,,,
,,,,,00024,2023-09-27_14h47.49.936,vbt_B2_day3,2022.2.4,Win32,59.95563283,,,,,,down,0,8.3266,,-0.256481453,-0.365740741,1,0,0,0,195,195,153,1,vervoer,images/br_vervoer.png,images/cb_vervoer.png,0,,,,,,,,,,,,,,,,,,,,,,
,,,,,00024,2023-09-27_14h47.49.936,vbt_B2_day3,2022.2.4,Win32,59.95563283,,,,,,down,0,4.7415,,-0.256481453,-0.365740741,1,0,0,0,196,196,81,1,dubbel,images/br_dubbel.png,images/cb_dubbel.png,0,,,,,,,,,,,,,,,,,,,,,,
,,,,,00024,2023-09-27_14h47.49.936,vbt_B2_day3,2022.2.4,Win32,59.95563283,,,,,,down,0,6.632800001,,-0.256481453,-0.365740741,1,0,0,0,197,197,117,1,kennis,images/br_kennis.png,images/cb_kennis.png,0,,,,,,,,,,,,,,,,,,,,,,
,,,,,00024,2023-09-27_14h47.49.936,vbt_B2_day3,2022.2.4,Win32,59.95563283,,,,,,down,0,1.516700001,,-0.256481453,-0.365740741,1,0,0,0,198,198,82,1,muziek,images/br_muziek.png,images/cb_muziek.png,0,,,,,,,,,,,,,,,,,,,,,,
,,,,,00024,2023-09-27_14h47.49.936,vbt_B2_day3,2022.2.4,Win32,59.95563283,,,,,,down,0,5.4465,,-0.256481453,-0.365740741,1,0,0,0,199,199,26,1,leuk,images/br_leuk.png,images/cb_leuk.png,0,,,,,,,,,,,,,,,,,,,,,,
,,,,,00024,2023-09-27_14h47.49.936,vbt_B2_day3,2022.2.4,Win32,59.95563283,,,,,,,,,,,,,,,,,,,,,,,,,-0.256481453,-0.365740741,1,0,0,,,,,,,,,,,,,,,,
,,,,,00024,2023-09-27_14h47.49.936,vbt_B2_day3,2022.2.4,Win32,59.95563283,,,,,,,,,,,,,,,,,,,,,,,,,,,,,,-0.256481453,-0.365740741,1,0,0,,,,,,,,,,,
,,,,,00024,2023-09-27_14h47.49.936,vbt_B2_day3,2022.2.4,Win32,59.95563283,,,,,,,,,,,,,,,,,,,,opzetten,images/br_opzetten.png,images/cb_opzetten.png,,opzetten,,,,,,,,,,,-0.256481453,-0.365740741,1,0,0,opzetten,0,0,0,56,1
,,,,,00024,2023-09-27_14h47.49.936,vbt_B2_day3,2022.2.4,Win32,59.95563283,,,,,,,,,,,,,,,,,,,,steel,images/br_steel.png,images/cb_steel.png,,steel,,,,,,,,,,,-0.256481453,-0.365740741,1,0,0,steel,0,1,1,4,1
,,,,,00024,2023-09-27_14h47.49.936,vbt_B2_day3,2022.2.4,Win32,59.95563283,,,,,,,,,,,,,,,,,,,,hier,images/br_hier.png,images/cb_hier.png,,hier,,,,,,,,,,,-0.256481453,-0.365740741,1,0,0,hier,0,2,2,1,1
,,,,,00024,2023-09-27_14h47.49.936,vbt_B2_day3,2022.2.4,Win32,59.95563283,,,,,,,,,,,,,,,,,,,,oprotten,images/br_oprotten.png,images/cb_oprotten.png,,op.atten,,,,,,,,,,,-0.256481453,-0.368518547,1,0,0,op.atten,0,3,3,17,1
,,,,,00024,2023-09-27_14h47.49.936,vbt_B2_day3,2022.2.4,Win32,59.95563283,,,,,,,,,,,,,,,,,,,,mode,images/br_mode.png,images/cb_mode.png,,mode,,,,,,,,,,,-0.256481453,-0.364814829,1,0,0,mode,0,4,4,3,1
,,,,,00024,2023-09-27_14h47.49.936,vbt_B2_day3,2022.2.4,Win32,59.95563283,,,,,,,,,,,,,,,,,,,,gezond,images/br_gezond.png,images/cb_gezond.png,,gezond,,,,,,,,,,,-0.256481453,-0.364814829,1,0,0,gezond,0,5,5,11,1
,,,,,00024,2023-09-27_14h47.49.936,vbt_B2_day3,2022.2.4,Win32,59.95563283,,,,,,,,,,,,,,,,,,,,brappen,images/br_brappen.png,images/cb_brappen.png,,brappen,,,,,,,,,,,-0.12962963,-0.375925912,1,0,0,brappen,0,6,6,35,1
,,,,,00024,2023-09-27_14h47.49.936,vbt_B2_day3,2022.2.4,Win32,59.95563283,,,,,,,,,,,,,,,,,,,,knie,images/br_knie.png,images/cb_knie.png,,knie,,,,,,,,,,,0.060185185,0.044444437,1,0,0,knie,0,7,7,0,1
,,,,,00024,2023-09-27_14h47.49.936,vbt_B2_day3,2022.2.4,Win32,59.95563283,,,,,,,,,,,,,,,,,,,,glijden,images/br_glijden.png,images/cb_glijden.png,,glijden,,,,,,,,,,,0.164814843,-0.025925919,1,0,0,glijden,0,8,8,53,1
,,,,,00024,2023-09-27_14h47.49.936,vbt_B2_day3,2022.2.4,Win32,59.95563283,,,,,,,,,,,,,,,,,,,,gout,images/br_gout.png,images/cb_gout.png,,gout,,,,,,,,,,,-0.087037051,0.02407406,1,0,0,gout,0,9,9,20,1
,,,,,00024,2023-09-27_14h47.49.936,vbt_B2_day3,2022.2.4,Win32,59.95563283,,,,,,,,,,,,,,,,,,,,stoom,images/br_stoom.png,images/cb_stoom.png,,stoom,,,,,,,,,,,0.077777792,0.061111097,1,0,0,stoom,0,10,10,6,1
,,,,,00024,2023-09-27_14h47.49.936,vbt_B2_day3,2022.2.4,Win32,59.95563283,,,,,,,,,,,,,,,,,,,,boeien,images/br_boeien.png,images/cb_boeien.png,,boeien,,,,,,,,,,,0.077777792,0.061111097,1,0,0,boeien,0,11,11,8,1
,,,,,00024,2023-09-27_14h47.49.936,vbt_B2_day3,2022.2.4,Win32,59.95563283,,,,,,,,,,,,,,,,,,,,invallen,images/br_invallen.png,images/cb_invallen.png,,invallen,,,,,,,,,,,-0.033333319,-0.103703746,1,0,0,invallen,0,12,12,57,1
,,,,,00024,2023-09-27_14h47.49.936,vbt_B2_day3,2022.2.4,Win32,59.95563283,,,,,,,,,,,,,,,,,,,,leugeren,images/br_leugeren.png,images/cb_leugeren.png,,leute.en,,,,,,,,,,,-0.033333319,-0.103703746,1,0,0,leute.en,0,13,13,37,1
,,,,,00024,2023-09-27_14h47.49.936,vbt_B2_day3,2022.2.4,Win32,59.95563283,,,,,,,,,,,,,,,,,,,,booien,images/br_booien.png,images/cb_booien.png,,booien,,,,,,,,,,,-0.033333319,-0.103703746,1,0,0,booien,0,14,14,31,1
,,,,,00024,2023-09-27_14h47.49.936,vbt_B2_day3,2022.2.4,Win32,59.95563283,,,,,,,,,,,,,,,,,,,,hint,images/br_hint.png,images/cb_hint.png,,hint,,,,,,,,,,,-0.033333319,-0.103703746,1,0,0,hint,0,15,15,43,1
,,,,,00024,2023-09-27_14h47.49.936,vbt_B2_day3,2022.2.4,Win32,59.95563283,,,,,,,,,,,,,,,,,,,,stikken,images/br_stikken.png,images/cb_stikken.png,,stekken,,,,,,,,,,,-0.033333319,-0.103703746,1,0,0,stekken,0,16,16,54,1
,,,,,00024,2023-09-27_14h47.49.936,vbt_B2_day3,2022.2.4,Win32,59.95563283,,,,,,,,,,,,,,,,,,,,alsof,images/br_alsof.png,images/cb_alsof.png,,alsof,,,,,,,,,,,-0.131481453,-0.066666674,1,0,0,alsof,0,17,17,44,1
,,,,,00024,2023-09-27_14h47.49.936,vbt_B2_day3,2022.2.4,Win32,59.95563283,,,,,,,,,,,,,,,,,,,,gebod,images/br_gebod.png,images/cb_gebod.png,,gebod,,,,,,,,,,,-0.131481453,-0.066666674,1,0,0,gebod,0,18,18,45,1
,,,,,00024,2023-09-27_14h47.49.936,vbt_B2_day3,2022.2.4,Win32,59.95563283,,,,,,,,,,,,,,,,,,,,leemaken,images/br_leemaken.png,images/cb_leemaken.png,,leemaken,,,,,,,,,,,-0.131481453,-0.066666674,1,0,0,leemaken,0,19,19,39,1
,,,,,00024,2023-09-27_14h47.49.936,vbt_B2_day3,2022.2.4,Win32,59.95563283,,,,,,,,,,,,,,,,,,,,uviek,images/br_uviek.png,images/cb_uviek.png,,uveik,,,,,,,,,,,-0.134259259,-0.032407407,1,0,0,uveik,0,20,20,25,1
,,,,,00024,2023-09-27_14h47.49.936,vbt_B2_day3,2022.2.4,Win32,59.95563283,,,,,,,,,,,,,,,,,,,,laken,images/br_laken.png,images/cb_laken.png,,laken,,,,,,,,,,,0.127777806,0.027777778,1,0,0,laken,0,21,21,5,1
,,,,,00024,2023-09-27_14h47.49.936,vbt_B2_day3,2022.2.4,Win32,59.95563283,,,,,,,,,,,,,,,,,,,,geluid,images/br_geluid.png,images/cb_geluid.png,,geluid,,,,,,,,,,,-0.061111097,0.077777757,1,0,0,geluid,0,22,22,10,1
,,,,,00024,2023-09-27_14h47.49.936,vbt_B2_day3,2022.2.4,Win32,59.95563283,,,,,,,,,,,,,,,,,,,,slapen,images/br_slapen.png,images/cb_slapen.png,,slapen,,,,,,,,,,,-0.045370384,-0.092592593,1,0,0,slapen,0,23,23,9,1
,,,,,00024,2023-09-27_14h47.49.936,vbt_B2_day3,2022.2.4,Win32,59.95563283,,,,,,,,,,,,,,,,,,,,theeting,images/br_theeting.png,images/cb_theeting.png,,tweeling,,,,,,,,,,,0.195370356,-0.033333355,1,0,0,tweeling,0,24,24,38,1
,,,,,00024,2023-09-27_14h47.49.936,vbt_B2_day3,2022.2.4,Win32,59.95563283,,,,,,,,,,,,,,,,,,,,leek,images/br_leek.png,images/cb_leek.png,,leek,,,,,,,,,,,0.195370356,-0.033333355,1,0,0,leek,0,25,25,2,1
,,,,,00024,2023-09-27_14h47.49.936,vbt_B2_day3,2022.2.4,Win32,59.95563283,,,,,,,,,,,,,,,,,,,,stallen,images/br_stallen.png,images/cb_stallen.png,,stallen,,,,,,,,,,,-0.195370356,0.013888889,1,0,0,stallen,0,26,26,52,1
,,,,,00024,2023-09-27_14h47.49.936,vbt_B2_day3,2022.2.4,Win32,59.95563283,,,,,,,,,,,,,,,,,,,,aarzelen,images/br_aarzelen.png,images/cb_aarzelen.png,,aarzelen,,,,,,,,,,,-0.195370356,0.013888889,1,0,0,aarzelen,0,27,27,19,1
,,,,,00024,2023-09-27_14h47.49.936,vbt_B2_day3,2022.2.4,Win32,59.95563283,,,,,,,,,,,,,,,,,,,,sultan,images/br_sultan.png,images/cb_sultan.png,,sultan,,,,,,,,,,,0.098148134,0.138888889,1,0,0,sultan,0,28,28,49,1
,,,,,00024,2023-09-27_14h47.49.936,vbt_B2_day3,2022.2.4,Win32,59.95563283,,,,,,,,,,,,,,,,,,,,jongelui,images/br_jongelui.png,images/cb_jongelui.png,,jongelu.,,,,,,,,,,,0.109259288,-0.018518519,1,0,0,jongelu.,0,29,29,59,1
,,,,,00024,2023-09-27_14h47.49.936,vbt_B2_day3,2022.2.4,Win32,59.95563283,,,,,,,,,,,,,,,,,,,,makieren,images/br_makieren.png,images/cb_makieren.png,,,,,,,,,,,,,0.065740727,0.008333312,1,0,0,,0,30,30,36,1
,,,,,00024,2023-09-27_14h47.49.936,vbt_B2_day3,2022.2.4,Win32,59.95563283,,,,,,,,,,,,,,,,,,,,kaas,images/br_kaas.png,images/cb_kaas.png,,kaal,,,,,,,,,,,0.14907406,-0.023148148,1,0,0,kaal,0,31,31,42,1
,,,,,00024,2023-09-27_14h47.49.936,vbt_B2_day3,2022.2.4,Win32,59.95563283,,,,,,,,,,,,,,,,,,,,sluier,images/br_sluier.png,images/cb_sluier.png,,sluier,,,,,,,,,,,0.165740755,-0.006481489,1,0,0,sluier,0,32,32,50,1
,,,,,00024,2023-09-27_14h47.49.936,vbt_B2_day3,2022.2.4,Win32,59.95563283,,,,,,,,,,,,,,,,,,,,begrip,images/br_begrip.png,images/cb_begrip.png,,begrip,,,,,,,,,,,0.204629616,-0.003703718,1,0,0,begrip,0,33,33,48,1
,,,,,00024,2023-09-27_14h47.49.936,vbt_B2_day3,2022.2.4,Win32,59.95563283,,,,,,,,,,,,,,,,,,,,samen,images/br_samen.png,images/cb_samen.png,,samen,,,,,,,,,,,-0.089814787,-0.086111104,1,0,0,samen,0,34,34,7,1
,,,,,00024,2023-09-27_14h47.49.936,vbt_B2_day3,2022.2.4,Win32,59.95563283,,,,,,,,,,,,,,,,,,,,bevret,images/br_bevret.png,images/cb_bevret.png,,bevret,,,,,,,,,,,0.157407407,-0.006481489,1,0,0,bevret,0,35,35,30,1
,,,,,00024,2023-09-27_14h47.49.936,vbt_B2_day3,2022.2.4,Win32,59.95563283,,,,,,,,,,,,,,,,,,,,verhaal,images/br_verhaal.png,images/cb_verhaal.png,,verhaal,,,,,,,,,,,0.184259273,0.00462963,1,0,0,verhaal,0,36,36,13,1
,,,,,00024,2023-09-27_14h47.49.936,vbt_B2_day3,2022.2.4,Win32,59.95563283,,,,,,,,,,,,,,,,,,,,bisschop,images/br_bisschop.png,images/cb_bisschop.png,,bisschop,,,,,,,,,,,0.097222222,0.011111118,1,0,0,bisschop,0,37,37,16,1
,,,,,00024,2023-09-27_14h47.49.936,vbt_B2_day3,2022.2.4,Win32,59.95563283,,,,,,,,,,,,,,,,,,,,twaaf,images/br_twaaf.png,images/cb_twaaf.png,,twaaf,,,,,,,,,,,-0.005555541,-0.0074074,1,0,0,twaaf,0,38,38,24,1
,,,,,00024,2023-09-27_14h47.49.936,vbt_B2_day3,2022.2.4,Win32,59.95563283,,,,,,,,,,,,,,,,,,,,verraden,images/br_verraden.png,images/cb_verraden.png,,verraden,,,,,,,,,,,0.109259288,-0.005555577,1,0,0,verraden,0,39,39,58,1
,,,,,00024,2023-09-27_14h47.49.936,vbt_B2_day3,2022.2.4,Win32,59.95563283,,,,,,,,,,,,,,,,,,,,vlager,images/br_vlager.png,images/cb_vlager.png,,viager,,,,,,,,,,,0.109259288,-0.005555577,1,0,0,viager,0,40,40,28,1
,,,,,00024,2023-09-27_14h47.49.936,vbt_B2_day3,2022.2.4,Win32,59.95563283,,,,,,,,,,,,,,,,,,,,mugeek,images/br_mugeek.png,images/cb_mugeek.png,,mugeek,,,,,,,,,,,0.109259288,-0.005555577,1,0,0,mugeek,0,41,41,29,1
,,,,,00024,2023-09-27_14h47.49.936,vbt_B2_day3,2022.2.4,Win32,59.95563283,,,,,,,,,,,,,,,,,,,,hust,images/br_hust.png,images/cb_hust.png,,hust,,,,,,,,,,,0.109259288,-0.005555577,1,0,0,hust,0,42,42,23,1
,,,,,00024,2023-09-27_14h47.49.936,vbt_B2_day3,2022.2.4,Win32,59.95563283,,,,,,,,,,,,,,,,,,,,croo,images/br_croo.png,images/cb_croo.png,,croo,,,,,,,,,,,0.109259288,-0.005555577,1,0,0,croo,0,43,43,22,1
,,,,,00024,2023-09-27_14h47.49.936,vbt_B2_day3,2022.2.4,Win32,59.95563283,,,,,,,,,,,,,,,,,,,,afbopen,images/br_afbopen.png,images/cb_afbopen.png,,a.bo...,,,,,,,,,,,0.075925968,-0.010185206,1,0,0,a.bo...,0,44,44,34,1
,,,,,00024,2023-09-27_14h47.49.936,vbt_B2_day3,2022.2.4,Win32,59.95563283,,,,,,,,,,,,,,,,,,,,verwoor,images/br_verwoor.png,images/cb_verwoor.png,,verwaar ,,,,,,,,,,,0.199074074,-0.011111118,1,0,0,verwaar ,0,45,45,32,1
,,,,,00024,2023-09-27_14h47.49.936,vbt_B2_day3,2022.2.4,Win32,59.95563283,,,,,,,,,,,,,,,,,,,,beslag,images/br_beslag.png,images/cb_beslag.png,,beslag,,,,,,,,,,,0.00462963,-0.021296289,1,0,0,beslag,0,46,46,51,1
,,,,,00024,2023-09-27_14h47.49.936,vbt_B2_day3,2022.2.4,Win32,59.95563283,,,,,,,,,,,,,,,,,,,,kwaas,images/br_kwaas.png,images/cb_kwaas.png,,kwaas,,,,,,,,,,,-0.037962949,-0.035185178,1,0,0,kwaas,0,47,47,26,1
,,,,,00024,2023-09-27_14h47.49.936,vbt_B2_day3,2022.2.4,Win32,59.95563283,,,,,,,,,,,,,,,,,,,,uniek,images/br_uniek.png,images/cb_uniek.png,,uniek,,,,,,,,,,,0.126851894,-0.002777771,1,0,0,uniek,0,48,48,46,1
,,,,,00024,2023-09-27_14h47.49.936,vbt_B2_day3,2022.2.4,Win32,59.95563283,,,,,,,,,,,,,,,,,,,,schatten,images/br_schatten.png,images/cb_schatten.png,,schatten,,,,,,,,,,,0.185185185,-0.013888889,1,0,0,schatten,0,49,49,18,1
,,,,,00024,2023-09-27_14h47.49.936,vbt_B2_day3,2022.2.4,Win32,59.95563283,,,,,,,,,,,,,,,,,,,,keihard,images/br_keihard.png,images/cb_keihard.png,,kei.ra.,,,,,,,,,,,0.014814801,0.010185171,1,0,0,kei.ra.,0,50,50,14,1
,,,,,00024,2023-09-27_14h47.49.936,vbt_B2_day3,2022.2.4,Win32,59.95563283,,,,,,,,,,,,,,,,,,,,dwang,images/br_dwang.png,images/cb_dwang.png,,dwang,,,,,,,,,,,-0.138888889,0.011111118,1,0,0,dwang,0,51,51,47,1
,,,,,00024,2023-09-27_14h47.49.936,vbt_B2_day3,2022.2.4,Win32,59.95563283,,,,,,,,,,,,,,,,,,,,zone,images/br_zone.png,images/cb_zone.png,,zone,,,,,,,,,,,0.116666653,-0.006481489,1,0,0,zone,0,52,52,41,1
,,,,,00024,2023-09-27_14h47.49.936,vbt_B2_day3,2022.2.4,Win32,59.95563283,,,,,,,,,,,,,,,,,,,,paken,images/br_paken.png,images/cb_paken.png,,paken,,,,,,,,,,,-0.088888875,-0.005555577,1,0,0,paken,0,53,53,27,1
,,,,,00024,2023-09-27_14h47.49.936,vbt_B2_day3,2022.2.4,Win32,59.95563283,,,,,,,,,,,,,,,,,,,,onrecht,images/br_onrecht.png,images/cb_onrecht.png,,onrecht,,,,,,,,,,,-0.088888875,-0.005555577,1,0,0,onrecht,0,54,54,55,1
,,,,,00024,2023-09-27_14h47.49.936,vbt_B2_day3,2022.2.4,Win32,59.95563283,,,,,,,,,,,,,,,,,,,,kest,images/br_kest.png,images/cb_kest.png,,kest,,,,,,,,,,,-0.088888875,-0.005555577,1,0,0,kest,0,55,55,21,1
,,,,,00024,2023-09-27_14h47.49.936,vbt_B2_day3,2022.2.4,Win32,59.95563283,,,,,,,,,,,,,,,,,,,,schodel,images/br_schodel.png,images/cb_schodel.png,,schodel,,,,,,,,,,,-0.090740698,-0.00462963,1,0,0,schodel,0,56,56,33,1
,,,,,00024,2023-09-27_14h47.49.936,vbt_B2_day3,2022.2.4,Win32,59.95563283,,,,,,,,,,,,,,,,,,,,eens,images/br_eens.png,images/cb_eens.png,,eens,,,,,,,,,,,-0.091666681,-0.00462963,1,0,0,eens,0,57,57,40,1
,,,,,00024,2023-09-27_14h47.49.936,vbt_B2_day3,2022.2.4,Win32,59.95563283,,,,,,,,,,,,,,,,,,,,opzicht,images/br_opzicht.png,images/cb_opzicht.png,,opzicht,,,,,,,,,,,-0.071296268,-0.012962977,1,0,0,opzicht,0,58,58,15,1
,,,,,00024,2023-09-27_14h47.49.936,vbt_B2_day3,2022.2.4,Win32,59.95563283,,,,,,,,,,,,,,,,,,,,prikken,images/br_prikken.png,images/cb_prikken.png,,prikken,,,,,,,,,,,-0.075925898,-0.012962977,1,0,0,prikken,0,59,59,12,1
,,,,,00024,2023-09-27_14h47.49.936,vbt_B2_day3,2022.2.4,Win32,59.95563283,,,,,,,,,,,,,,,,,,,,,,,,,,,,,,,,,,,,,,,,,,,,,
