welcome_mouse.x,welcome_mouse.y,welcome_mouse.leftButton,welcome_mouse.midButton,welcome_mouse.rightButton,"ID",date,expName,psychopyVersion,OS,frameRate,trainInstr_mouse.x,trainInstr_mouse.y,trainInstr_mouse.leftButton,trainInstr_mouse.midButton,trainInstr_mouse.rightButton,translation_key.keys,translation_key.corr,translation_key.rt,word_rsp.text,trWrd_mouse.x,trWrd_mouse.y,trWrd_mouse.leftButton,trWrd_mouse.midButton,trWrd_mouse.rightButton,train_loop.thisRepN,train_loop.thisTrialN,train_loop.thisN,train_loop.thisIndex,train_loop.ran,nlWrd,brWrd,cbWrd,test,testResp,mouse.x,mouse.y,mouse.leftButton,mouse.midButton,mouse.rightButton,testInstr_mouse.x,testInstr_mouse.y,testInstr_mouse.leftButton,testInstr_mouse.midButton,testInstr_mouse.rightButton,test_mouse.x,test_mouse.y,test_mouse.leftButton,test_mouse.midButton,test_mouse.rightButton,test_response.text,test_loop.thisRepN,test_loop.thisTrialN,test_loop.thisN,test_loop.thisIndex,test_loop.ran
-0.055615856,-0.058602614,1,0,0,00053,2023-10-20_19h54.13.113,vbt_B2_day3,2022.2.4,Linux x86_64,60.00960154,,,,,,,,,,,,,,,,,,,,,,,,,,,,,,,,,,,,,,,,,,,,,
,,,,,00053,2023-10-20_19h54.13.113,vbt_B2_day3,2022.2.4,Linux x86_64,60.00960154,-0.055615856,-0.058602614,1,0,0,,,,,,,,,,,,,,,,,,,,,,,,,,,,,,,,,,,,,,,,
,,,,,00053,2023-10-20_19h54.13.113,vbt_B2_day3,2022.2.4,Linux x86_64,60.00960154,,,,,,down,0,5.0987,,-0.14483627,-0.311480363,1,0,0,0,0,0,38,1,baai,images/br_baai.png,images/cb_baai.png,0,,,,,,,,,,,,,,,,,,,,,,
,,,,,00053,2023-10-20_19h54.13.113,vbt_B2_day3,2022.2.4,Linux x86_64,60.00960154,,,,,,down,0,8.146,,0.254260098,-0.070048144,1,0,0,0,1,1,171,1,aarzelen,images/br_aarzelen.png,images/cb_aarzelen.png,0,,,,,,,,,,,,,,,,,,,,,,
,,,,,00053,2023-10-20_19h54.13.113,vbt_B2_day3,2022.2.4,Linux x86_64,60.00960154,,,,,,down,0,5.3721,,0.254260098,-0.06894644,1,0,0,0,2,2,156,1,rechten,images/br_rechten.png,images/cb_rechten.png,0,,,,,,,,,,,,,,,,,,,,,,
,,,,,00053,2023-10-20_19h54.13.113,vbt_B2_day3,2022.2.4,Linux x86_64,60.00960154,,,,,,down,0,10.2362,,0.218210714,-0.062881917,1,0,0,0,3,3,183,1,getuigen,images/br_getuigen.png,images/cb_getuigen.png,1,getuigen,,,,,,,,,,,,,,,,,,,,,
,,,,,00053,2023-10-20_19h54.13.113,vbt_B2_day3,2022.2.4,Linux x86_64,60.00960154,,,,,,down,0,9.0992,,0.105865517,-0.082242268,1,0,0,0,4,4,116,1,besmet,images/br_besmet.png,images/cb_besmet.png,0,,,,,,,,,,,,,,,,,,,,,,
,,,,,00053,2023-10-20_19h54.13.113,vbt_B2_day3,2022.2.4,Linux x86_64,60.00960154,,,,,,down,0,5.5491,,0.105865517,-0.082242268,1,0,0,0,5,5,93,1,waarop,images/br_waarop.png,images/cb_waarop.png,0,,,,,,,,,,,,,,,,,,,,,,
,,,,,00053,2023-10-20_19h54.13.113,vbt_B2_day3,2022.2.4,Linux x86_64,60.00960154,,,,,,down,0,1.75,,0.105865517,-0.082242268,1,0,0,0,6,6,0,1,slak,images/br_slak.png,images/cb_slak.png,0,,,,,,,,,,,,,,,,,,,,,,
,,,,,00053,2023-10-20_19h54.13.113,vbt_B2_day3,2022.2.4,Linux x86_64,60.00960154,,,,,,down,0,5.3359,,0.105865517,-0.082242268,1,0,0,0,7,7,144,1,eetlust,images/br_eetlust.png,images/cb_eetlust.png,0,,,,,,,,,,,,,,,,,,,,,,
,,,,,00053,2023-10-20_19h54.13.113,vbt_B2_day3,2022.2.4,Linux x86_64,60.00960154,,,,,,down,0,4.3338,,0.105865517,-0.082242268,1,0,0,0,8,8,105,1,wijlen,images/br_wijlen.png,images/cb_wijlen.png,0,,,,,,,,,,,,,,,,,,,,,,
,,,,,00053,2023-10-20_19h54.13.113,vbt_B2_day3,2022.2.4,Linux x86_64,60.00960154,,,,,,down,0,7.4185,,0.105865517,-0.082242268,1,0,0,0,9,9,67,1,zwart,images/br_zwart.png,images/cb_zwart.png,0,,,,,,,,,,,,,,,,,,,,,,
,,,,,00053,2023-10-20_19h54.13.113,vbt_B2_day3,2022.2.4,Linux x86_64,60.00960154,,,,,,down,0,6.3034,,0.105865517,-0.082242268,1,0,0,0,10,10,73,1,volop,images/br_volop.png,images/cb_volop.png,0,,,,,,,,,,,,,,,,,,,,,,
,,,,,00053,2023-10-20_19h54.13.113,vbt_B2_day3,2022.2.4,Linux x86_64,60.00960154,,,,,,down,0,9.799,,0.105865517,-0.082242268,1,0,0,0,11,11,85,1,heilig,images/br_heilig.png,images/cb_heilig.png,0,,,,,,,,,,,,,,,,,,,,,,
,,,,,00053,2023-10-20_19h54.13.113,vbt_B2_day3,2022.2.4,Linux x86_64,60.00960154,,,,,,down,0,3.4203,,0.105865517,-0.082242268,1,0,0,0,12,12,40,1,schep,images/br_schep.png,images/cb_schep.png,0,,,,,,,,,,,,,,,,,,,,,,
,,,,,00053,2023-10-20_19h54.13.113,vbt_B2_day3,2022.2.4,Linux x86_64,60.00960154,,,,,,down,0,3.7323,,0.105865517,-0.082242268,1,0,0,0,13,13,25,1,plek,images/br_plek.png,images/cb_plek.png,0,,,,,,,,,,,,,,,,,,,,,,
,,,,,00053,2023-10-20_19h54.13.113,vbt_B2_day3,2022.2.4,Linux x86_64,60.00960154,,,,,,down,0,11.7009,,0.105865517,-0.082242268,1,0,0,0,14,14,182,1,bijkomen,images/br_bijkomen.png,images/cb_bijkomen.png,1,bijkomen,,,,,,,,,,,,,,,,,,,,,
,,,,,00053,2023-10-20_19h54.13.113,vbt_B2_day3,2022.2.4,Linux x86_64,60.00960154,,,,,,down,0,8.2499,,0.105865517,-0.082242268,1,0,0,0,15,15,185,1,mijnheer,images/br_mijnheer.png,images/cb_mijnheer.png,0,,,,,,,,,,,,,,,,,,,,,,
,,,,,00053,2023-10-20_19h54.13.113,vbt_B2_day3,2022.2.4,Linux x86_64,60.00960154,,,,,,down,0,2.0371,,0.105865517,-0.082242268,1,0,0,0,16,16,79,1,nodig,images/br_nodig.png,images/cb_nodig.png,0,,,,,,,,,,,,,,,,,,,,,,
,,,,,00053,2023-10-20_19h54.13.113,vbt_B2_day3,2022.2.4,Linux x86_64,60.00960154,,,,,,down,0,1.8044,,0.105865517,-0.082242268,1,0,0,0,17,17,197,1,spanning,images/br_spanning.png,images/cb_spanning.png,0,,,,,,,,,,,,,,,,,,,,,,
,,,,,00053,2023-10-20_19h54.13.113,vbt_B2_day3,2022.2.4,Linux x86_64,60.00960154,,,,,,down,0,5.0646,,0.105865517,-0.082242268,1,0,0,0,18,18,60,1,jasje,images/br_jasje.png,images/cb_jasje.png,1,jasje,,,,,,,,,,,,,,,,,,,,,
,,,,,00053,2023-10-20_19h54.13.113,vbt_B2_day3,2022.2.4,Linux x86_64,60.00960154,,,,,,down,0,3.1654,,0.105865517,-0.082242268,1,0,0,0,19,19,19,1,geit,images/br_geit.png,images/cb_geit.png,0,,,,,,,,,,,,,,,,,,,,,,
,,,,,00053,2023-10-20_19h54.13.113,vbt_B2_day3,2022.2.4,Linux x86_64,60.00960154,,,,,,down,0,8.7343,,0.105865517,-0.082242268,1,0,0,0,20,20,194,1,driemaal,images/br_driemaal.png,images/cb_driemaal.png,0,,,,,,,,,,,,,,,,,,,,,,
,,,,,00053,2023-10-20_19h54.13.113,vbt_B2_day3,2022.2.4,Linux x86_64,60.00960154,,,,,,down,0,7.7564,,0.105865517,-0.082242268,1,0,0,0,21,21,136,1,waarbij,images/br_waarbij.png,images/cb_waarbij.png,0,,,,,,,,,,,,,,,,,,,,,,
,,,,,00053,2023-10-20_19h54.13.113,vbt_B2_day3,2022.2.4,Linux x86_64,60.00960154,,,,,,down,0,3.0658,,0.105865517,-0.082242268,1,0,0,0,22,22,113,1,koppen,images/br_koppen.png,images/cb_koppen.png,0,,,,,,,,,,,,,,,,,,,,,,
,,,,,00053,2023-10-20_19h54.13.113,vbt_B2_day3,2022.2.4,Linux x86_64,60.00960154,,,,,,down,0,7.8346,,0.105865517,-0.082242268,1,0,0,0,23,23,158,1,innemen,images/br_innemen.png,images/cb_innemen.png,0,,,,,,,,,,,,,,,,,,,,,,
,,,,,00053,2023-10-20_19h54.13.113,vbt_B2_day3,2022.2.4,Linux x86_64,60.00960154,,,,,,down,0,4.7389,,0.10696726,-0.081875047,1,0,0,0,24,24,18,1,blik,images/br_blik.png,images/cb_blik.png,0,,,,,,,,,,,,,,,,,,,,,,
,,,,,00053,2023-10-20_19h54.13.113,vbt_B2_day3,2022.2.4,Linux x86_64,60.00960154,,,,,,down,0,2.7681,,0.10696726,-0.081875047,1,0,0,0,25,25,75,1,snoep,images/br_snoep.png,images/cb_snoep.png,0,,,,,,,,,,,,,,,,,,,,,,
,,,,,00053,2023-10-20_19h54.13.113,vbt_B2_day3,2022.2.4,Linux x86_64,60.00960154,,,,,,down,0,3.9699,,0.10696726,-0.081875047,1,0,0,0,26,26,71,1,bever,images/br_bever.png,images/cb_bever.png,0,,,,,,,,,,,,,,,,,,,,,,
,,,,,00053,2023-10-20_19h54.13.113,vbt_B2_day3,2022.2.4,Linux x86_64,60.00960154,,,,,,down,0,2.8892,,0.10696726,-0.081875047,1,0,0,0,27,27,86,1,woning,images/br_woning.png,images/cb_woning.png,0,,,,,,,,,,,,,,,,,,,,,,
,,,,,00053,2023-10-20_19h54.13.113,vbt_B2_day3,2022.2.4,Linux x86_64,60.00960154,,,,,,down,0,5.3322,,0.10696726,-0.081875047,1,0,0,0,28,28,179,1,woestijn,images/br_woestijn.png,images/cb_woestijn.png,0,,,,,,,,,,,,,,,,,,,,,,
,,,,,00053,2023-10-20_19h54.13.113,vbt_B2_day3,2022.2.4,Linux x86_64,60.00960154,,,,,,down,0,1.7174,,0.10696726,-0.081875047,1,0,0,0,29,29,34,1,vorm,images/br_vorm.png,images/cb_vorm.png,0,,,,,,,,,,,,,,,,,,,,,,
,,,,,00053,2023-10-20_19h54.13.113,vbt_B2_day3,2022.2.4,Linux x86_64,60.00960154,,,,,,down,0,5.238,,0.10696726,-0.081875047,1,0,0,0,30,30,160,1,daarheen,images/br_daarheen.png,images/cb_daarheen.png,0,,,,,,,,,,,,,,,,,,,,,,
,,,,,00053,2023-10-20_19h54.13.113,vbt_B2_day3,2022.2.4,Linux x86_64,60.00960154,,,,,,down,0,0.484,,0.10696726,-0.081875047,1,0,0,0,31,31,89,1,slapen,images/br_slapen.png,images/cb_slapen.png,0,,,,,,,,,,,,,,,,,,,,,,
,,,,,00053,2023-10-20_19h54.13.113,vbt_B2_day3,2022.2.4,Linux x86_64,60.00960154,,,,,,down,0,2.3206,,0.10696726,-0.081875047,1,0,0,0,32,32,76,1,afval,images/br_afval.png,images/cb_afval.png,0,,,,,,,,,,,,,,,,,,,,,,
,,,,,00053,2023-10-20_19h54.13.113,vbt_B2_day3,2022.2.4,Linux x86_64,60.00960154,,,,,,down,0,2.5156,,0.10696726,-0.081875047,1,0,0,0,33,33,118,1,vinger,images/br_vinger.png,images/cb_vinger.png,0,,,,,,,,,,,,,,,,,,,,,,
,,,,,00053,2023-10-20_19h54.13.113,vbt_B2_day3,2022.2.4,Linux x86_64,60.00960154,,,,,,down,0,4.6368,,0.10696726,-0.081875047,1,0,0,0,34,34,199,1,beseffen,images/br_beseffen.png,images/cb_beseffen.png,0,,,,,,,,,,,,,,,,,,,,,,
,,,,,00053,2023-10-20_19h54.13.113,vbt_B2_day3,2022.2.4,Linux x86_64,60.00960154,,,,,,down,0,2.5386,,0.10696726,-0.081875047,1,0,0,0,35,35,45,1,piste,images/br_piste.png,images/cb_piste.png,0,,,,,,,,,,,,,,,,,,,,,,
,,,,,00053,2023-10-20_19h54.13.113,vbt_B2_day3,2022.2.4,Linux x86_64,60.00960154,,,,,,down,0,1.9854,,0.10696726,-0.081875047,1,0,0,0,36,36,170,1,schatten,images/br_schatten.png,images/cb_schatten.png,0,,,,,,,,,,,,,,,,,,,,,,
,,,,,00053,2023-10-20_19h54.13.113,vbt_B2_day3,2022.2.4,Linux x86_64,60.00960154,,,,,,down,0,4.4166,,0.10696726,-0.081875047,1,0,0,0,37,37,187,1,opkijken,images/br_opkijken.png,images/cb_opkijken.png,0,,,,,,,,,,,,,,,,,,,,,,
,,,,,00053,2023-10-20_19h54.13.113,vbt_B2_day3,2022.2.4,Linux x86_64,60.00960154,,,,,,down,0,3.6327,,0.106049167,-0.079304417,1,0,0,0,38,38,41,1,maken,images/br_maken.png,images/cb_maken.png,0,,,,,,,,,,,,,,,,,,,,,,
,,,,,00053,2023-10-20_19h54.13.113,vbt_B2_day3,2022.2.4,Linux x86_64,60.00960154,,,,,,down,0,3.7163,,0.106049167,-0.079304417,1,0,0,0,39,39,26,1,leuk,images/br_leuk.png,images/cb_leuk.png,0,,,,,,,,,,,,,,,,,,,,,,
,,,,,00053,2023-10-20_19h54.13.113,vbt_B2_day3,2022.2.4,Linux x86_64,60.00960154,,,,,,down,0,4.716,,0.106049167,-0.079304417,1,0,0,0,40,40,55,1,praat,images/br_praat.png,images/cb_praat.png,0,,,,,,,,,,,,,,,,,,,,,,
,,,,,00053,2023-10-20_19h54.13.113,vbt_B2_day3,2022.2.4,Linux x86_64,60.00960154,,,,,,down,0,3.1012,,0.106049167,-0.079304417,1,0,0,0,41,41,62,1,knaap,images/br_knaap.png,images/cb_knaap.png,1,knaap,,,,,,,,,,,,,,,,,,,,,
,,,,,00053,2023-10-20_19h54.13.113,vbt_B2_day3,2022.2.4,Linux x86_64,60.00960154,,,,,,down,0,0.2169,,0.106049167,-0.079304417,1,0,0,0,42,42,42,1,bleek,images/br_bleek.png,images/cb_bleek.png,0,,,,,,,,,,,,,,,,,,,,,,
,,,,,00053,2023-10-20_19h54.13.113,vbt_B2_day3,2022.2.4,Linux x86_64,60.00960154,,,,,,down,0,2.4844,,0.106049167,-0.079304417,1,0,0,0,43,43,95,1,vreten,images/br_vreten.png,images/cb_vreten.png,0,,,,,,,,,,,,,,,,,,,,,,
,,,,,00053,2023-10-20_19h54.13.113,vbt_B2_day3,2022.2.4,Linux x86_64,60.00960154,,,,,,down,0,4.2983,,0.106049167,-0.079304417,1,0,0,0,44,44,154,1,aflopen,images/br_aflopen.png,images/cb_aflopen.png,0,,,,,,,,,,,,,,,,,,,,,,
,,,,,00053,2023-10-20_19h54.13.113,vbt_B2_day3,2022.2.4,Linux x86_64,60.00960154,,,,,,down,0,4.6785,,0.106049167,-0.079304417,1,0,0,0,45,45,172,1,weigeren,images/br_weigeren.png,images/cb_weigeren.png,0,,,,,,,,,,,,,,,,,,,,,,
,,,,,00053,2023-10-20_19h54.13.113,vbt_B2_day3,2022.2.4,Linux x86_64,60.00960154,,,,,,down,0,6.0207,,0.106049167,-0.079304417,1,0,0,0,46,46,153,1,vervoer,images/br_vervoer.png,images/cb_vervoer.png,0,,,,,,,,,,,,,,,,,,,,,,
,,,,,00053,2023-10-20_19h54.13.113,vbt_B2_day3,2022.2.4,Linux x86_64,60.00960154,,,,,,down,0,5.4896,,0.106049167,-0.079304417,1,0,0,0,47,47,164,1,anarchie,images/br_anarchie.png,images/cb_anarchie.png,0,,,,,,,,,,,,,,,,,,,,,,
,,,,,00053,2023-10-20_19h54.13.113,vbt_B2_day3,2022.2.4,Linux x86_64,60.00960154,,,,,,down,0,1.9831,,0.106049167,-0.079304417,1,0,0,0,48,48,107,1,maling,images/br_maling.png,images/cb_maling.png,0,,,,,,,,,,,,,,,,,,,,,,
,,,,,00053,2023-10-20_19h54.13.113,vbt_B2_day3,2022.2.4,Linux x86_64,60.00960154,,,,,,down,0,2.7863,,0.106049167,-0.079304417,1,0,0,0,49,49,77,1,woede,images/br_woede.png,images/cb_woede.png,0,,,,,,,,,,,,,,,,,,,,,,
,,,,,00053,2023-10-20_19h54.13.113,vbt_B2_day3,2022.2.4,Linux x86_64,60.00960154,,,,,,down,0,3.6002,,0.106049167,-0.079304417,1,0,0,0,50,50,186,1,voorraad,images/br_voorraad.png,images/cb_voorraad.png,0,,,,,,,,,,,,,,,,,,,,,,
,,,,,00053,2023-10-20_19h54.13.113,vbt_B2_day3,2022.2.4,Linux x86_64,60.00960154,,,,,,down,0,4.652,,0.106049167,-0.079304417,1,0,0,0,51,51,143,1,hechten,images/br_hechten.png,images/cb_hechten.png,1,hechten,,,,,,,,,,,,,,,,,,,,,
,,,,,00053,2023-10-20_19h54.13.113,vbt_B2_day3,2022.2.4,Linux x86_64,60.00960154,,,,,,down,0,1.6554,,0.106049167,-0.079304417,1,0,0,0,52,52,114,1,vullen,images/br_vullen.png,images/cb_vullen.png,0,,,,,,,,,,,,,,,,,,,,,,
,,,,,00053,2023-10-20_19h54.13.113,vbt_B2_day3,2022.2.4,Linux x86_64,60.00960154,,,,,,down,0,2.5563,,0.106049167,-0.079304417,1,0,0,0,53,53,69,1,waken,images/br_waken.png,images/cb_waken.png,0,,,,,,,,,,,,,,,,,,,,,,
,,,,,00053,2023-10-20_19h54.13.113,vbt_B2_day3,2022.2.4,Linux x86_64,60.00960154,,,,,,down,0,3.1229,,0.106049167,-0.079304417,1,0,0,0,54,54,101,1,staren,images/br_staren.png,images/cb_staren.png,1,staren,,,,,,,,,,,,,,,,,,,,,
,,,,,00053,2023-10-20_19h54.13.113,vbt_B2_day3,2022.2.4,Linux x86_64,60.00960154,,,,,,down,0,3.4176,,0.106049167,-0.079304417,1,0,0,0,55,55,24,1,jurk,images/br_jurk.png,images/cb_jurk.png,0,,,,,,,,,,,,,,,,,,,,,,
,,,,,00053,2023-10-20_19h54.13.113,vbt_B2_day3,2022.2.4,Linux x86_64,60.00960154,,,,,,down,0,0.3506,,0.107150832,-0.07728462,1,0,0,0,56,56,17,1,taal,images/br_taal.png,images/cb_taal.png,0,,,,,,,,,,,,,,,,,,,,,,
,,,,,00053,2023-10-20_19h54.13.113,vbt_B2_day3,2022.2.4,Linux x86_64,60.00960154,,,,,,down,0,2.502,,0.107150832,-0.07728462,1,0,0,0,57,57,191,1,opheffen,images/br_opheffen.png,images/cb_opheffen.png,0,,,,,,,,,,,,,,,,,,,,,,
,,,,,00053,2023-10-20_19h54.13.113,vbt_B2_day3,2022.2.4,Linux x86_64,60.00960154,,,,,,down,0,3.7812,,0.107150832,-0.07728462,1,0,0,0,58,58,198,1,bedoelen,images/br_bedoelen.png,images/cb_bedoelen.png,0,,,,,,,,,,,,,,,,,,,,,,
,,,,,00053,2023-10-20_19h54.13.113,vbt_B2_day3,2022.2.4,Linux x86_64,60.00960154,,,,,,down,0,8.8688,,0.107150832,-0.07728462,1,0,0,0,59,59,149,1,redding,images/br_redding.png,images/cb_redding.png,0,,,,,,,,,,,,,,,,,,,,,,
,,,,,00053,2023-10-20_19h54.13.113,vbt_B2_day3,2022.2.4,Linux x86_64,60.00960154,,,,,,down,0,2.2011,,0.107150832,-0.07728462,1,0,0,0,60,60,4,1,moes,images/br_moes.png,images/cb_moes.png,0,,,,,,,,,,,,,,,,,,,,,,
,,,,,00053,2023-10-20_19h54.13.113,vbt_B2_day3,2022.2.4,Linux x86_64,60.00960154,,,,,,down,0,3.5352,,0.107150832,-0.07728462,1,0,0,0,61,61,122,1,waarvan,images/br_waarvan.png,images/cb_waarvan.png,0,,,,,,,,,,,,,,,,,,,,,,
,,,,,00053,2023-10-20_19h54.13.113,vbt_B2_day3,2022.2.4,Linux x86_64,60.00960154,,,,,,down,0,5.9058,,0.030793986,-0.102976222,1,0,0,0,62,62,119,1,liefje,images/br_liefje.png,images/cb_liefje.png,0,,,,,,,,,,,,,,,,,,,,,,
,,,,,00053,2023-10-20_19h54.13.113,vbt_B2_day3,2022.2.4,Linux x86_64,60.00960154,,,,,,down,0,1.2821,,0.030793986,-0.102976222,1,0,0,0,63,63,68,1,schat,images/br_schat.png,images/cb_schat.png,0,,,,,,,,,,,,,,,,,,,,,,
,,,,,00053,2023-10-20_19h54.13.113,vbt_B2_day3,2022.2.4,Linux x86_64,60.00960154,,,,,,down,0,3.3187,,0.030793986,-0.102976222,1,0,0,0,64,64,174,1,stemming,images/br_stemming.png,images/cb_stemming.png,0,,,,,,,,,,,,,,,,,,,,,,
,,,,,00053,2023-10-20_19h54.13.113,vbt_B2_day3,2022.2.4,Linux x86_64,60.00960154,,,,,,down,0,2.3636,,0.030793986,-0.102976222,1,0,0,0,65,65,32,1,palm,images/br_palm.png,images/cb_palm.png,0,,,,,,,,,,,,,,,,,,,,,,
,,,,,00053,2023-10-20_19h54.13.113,vbt_B2_day3,2022.2.4,Linux x86_64,60.00960154,,,,,,down,0,4.417,,0.030793986,-0.102976222,1,0,0,0,66,66,169,1,oprotten,images/br_oprotten.png,images/cb_oprotten.png,0,,,,,,,,,,,,,,,,,,,,,,
,,,,,00053,2023-10-20_19h54.13.113,vbt_B2_day3,2022.2.4,Linux x86_64,60.00960154,,,,,,down,0,1.3178,,0.030793986,-0.102976222,1,0,0,0,67,67,29,1,baas,images/br_baas.png,images/cb_baas.png,0,,,,,,,,,,,,,,,,,,,,,,
,,,,,00053,2023-10-20_19h54.13.113,vbt_B2_day3,2022.2.4,Linux x86_64,60.00960154,,,,,,down,0,17.0978,,0.030793986,-0.102976222,1,0,0,0,68,68,161,1,attentie,images/br_attentie.png,images/cb_attentie.png,0,,,,,,,,,,,,,,,,,,,,,,
,,,,,00053,2023-10-20_19h54.13.113,vbt_B2_day3,2022.2.4,Linux x86_64,60.00960154,,,,,,down,0,6.9687,,0.030793986,-0.102976222,1,0,0,0,69,69,127,1,doodmoe,images/br_doodmoe.png,images/cb_doodmoe.png,0,,,,,,,,,,,,,,,,,,,,,,
,,,,,00053,2023-10-20_19h54.13.113,vbt_B2_day3,2022.2.4,Linux x86_64,60.00960154,,,,,,down,0,2.1847,,0.030793986,-0.102976222,1,0,0,0,70,70,9,1,hier,images/br_hier.png,images/cb_hier.png,0,,,,,,,,,,,,,,,,,,,,,,
,,,,,00053,2023-10-20_19h54.13.113,vbt_B2_day3,2022.2.4,Linux x86_64,60.00960154,,,,,,down,0,4.5029,,0.030793986,-0.102976222,1,0,0,0,71,71,168,1,bisschop,images/br_bisschop.png,images/cb_bisschop.png,0,,,,,,,,,,,,,,,,,,,,,,
,,,,,00053,2023-10-20_19h54.13.113,vbt_B2_day3,2022.2.4,Linux x86_64,60.00960154,,,,,,down,0,6.2699,,0.030793986,-0.102976222,1,0,0,0,72,72,58,1,tekst,images/br_tekst.png,images/cb_tekst.png,0,,,,,,,,,,,,,,,,,,,,,,
,,,,,00053,2023-10-20_19h54.13.113,vbt_B2_day3,2022.2.4,Linux x86_64,60.00960154,,,,,,down,0,0.4537,,0.030793986,-0.102976222,1,0,0,0,73,73,6,1,diep,images/br_diep.png,images/cb_diep.png,0,,,,,,,,,,,,,,,,,,,,,,
,,,,,00053,2023-10-20_19h54.13.113,vbt_B2_day3,2022.2.4,Linux x86_64,60.00960154,,,,,,down,0,1.9016,,0.030793986,-0.102976222,1,0,0,0,74,74,27,1,dans,images/br_dans.png,images/cb_dans.png,0,,,,,,,,,,,,,,,,,,,,,,
,,,,,00053,2023-10-20_19h54.13.113,vbt_B2_day3,2022.2.4,Linux x86_64,60.00960154,,,,,,down,0,4.5007,,0.030793986,-0.102976222,1,0,0,0,75,75,173,1,apparaat,images/br_apparaat.png,images/cb_apparaat.png,0,,,,,,,,,,,,,,,,,,,,,,
,,,,,00053,2023-10-20_19h54.13.113,vbt_B2_day3,2022.2.4,Linux x86_64,60.00960154,,,,,,down,0,1.4799,,0.030793986,-0.102976222,1,0,0,0,76,76,37,1,mijn,images/br_mijn.png,images/cb_mijn.png,0,,,,,,,,,,,,,,,,,,,,,,
,,,,,00053,2023-10-20_19h54.13.113,vbt_B2_day3,2022.2.4,Linux x86_64,60.00960154,,,,,,down,0,3.517,,0.030793986,-0.102976222,1,0,0,0,77,77,54,1,gebit,images/br_gebit.png,images/cb_gebit.png,0,,,,,,,,,,,,,,,,,,,,,,
,,,,,00053,2023-10-20_19h54.13.113,vbt_B2_day3,2022.2.4,Linux x86_64,60.00960154,,,,,,down,0,1.8038,,0.030793986,-0.102976222,1,0,0,0,78,78,5,1,blad,images/br_blad.png,images/cb_blad.png,0,,,,,,,,,,,,,,,,,,,,,,
,,,,,00053,2023-10-20_19h54.13.113,vbt_B2_day3,2022.2.4,Linux x86_64,60.00960154,,,,,,down,0,1.5498,,0.030610336,-0.102976222,1,0,0,0,79,79,51,1,samen,images/br_samen.png,images/cb_samen.png,0,,,,,,,,,,,,,,,,,,,,,,
,,,,,00053,2023-10-20_19h54.13.113,vbt_B2_day3,2022.2.4,Linux x86_64,60.00960154,,,,,,down,0,1.0179,,0.030426686,-0.102241779,1,0,0,0,80,80,78,1,leren,images/br_leren.png,images/cb_leren.png,0,,,,,,,,,,,,,,,,,,,,,,
,,,,,00053,2023-10-20_19h54.13.113,vbt_B2_day3,2022.2.4,Linux x86_64,60.00960154,,,,,,down,0,5.7488,,-0.068690909,-0.314902841,1,0,0,0,81,81,165,1,feestdag,images/br_feestdag.png,images/cb_feestdag.png,0,,,,,,,,,,,,,,,,,,,,,,
,,,,,00053,2023-10-20_19h54.13.113,vbt_B2_day3,2022.2.4,Linux x86_64,60.00960154,,,,,,down,0,1.1011,,-0.068690909,-0.314902841,1,0,0,0,82,82,31,1,poes,images/br_poes.png,images/cb_poes.png,0,,,,,,,,,,,,,,,,,,,,,,
,,,,,00053,2023-10-20_19h54.13.113,vbt_B2_day3,2022.2.4,Linux x86_64,60.00960154,,,,,,down,0,0.2322,,-0.068690909,-0.314902841,1,0,0,0,83,83,48,1,steel,images/br_steel.png,images/cb_steel.png,0,,,,,,,,,,,,,,,,,,,,,,
,,,,,00053,2023-10-20_19h54.13.113,vbt_B2_day3,2022.2.4,Linux x86_64,60.00960154,,,,,,down,0,8.8811,,-0.069792729,-0.313250383,1,0,0,0,84,84,188,1,strekken,images/br_strekken.png,images/cb_strekken.png,0,,,,,,,,,,,,,,,,,,,,,,
,,,,,00053,2023-10-20_19h54.13.113,vbt_B2_day3,2022.2.4,Linux x86_64,60.00960154,,,,,,down,0,0.8836,,-0.069792729,-0.313250383,1,0,0,0,85,85,39,1,laag,images/br_laag.png,images/cb_laag.png,0,,,,,,,,,,,,,,,,,,,,,,
,,,,,00053,2023-10-20_19h54.13.113,vbt_B2_day3,2022.2.4,Linux x86_64,60.00960154,,,,,,down,0,1.8464,,-0.069792729,-0.313250383,1,0,0,0,86,86,46,1,jagen,images/br_jagen.png,images/cb_jagen.png,0,,,,,,,,,,,,,,,,,,,,,,
,,,,,00053,2023-10-20_19h54.13.113,vbt_B2_day3,2022.2.4,Linux x86_64,60.00960154,,,,,,down,0,0.5836,,-0.069792729,-0.313250383,1,0,0,0,87,87,2,1,jaar,images/br_jaar.png,images/cb_jaar.png,0,,,,,,,,,,,,,,,,,,,,,,
,,,,,00053,2023-10-20_19h54.13.113,vbt_B2_day3,2022.2.4,Linux x86_64,60.00960154,,,,,,down,0,1.2648,,-0.069792729,-0.313250383,1,0,0,0,88,88,97,1,loyaal,images/br_loyaal.png,images/cb_loyaal.png,0,,,,,,,,,,,,,,,,,,,,,,
,,,,,00053,2023-10-20_19h54.13.113,vbt_B2_day3,2022.2.4,Linux x86_64,60.00960154,,,,,,down,0,6.4487,,-0.072363359,-0.310679753,1,0,0,0,89,89,121,1,twijfel,images/br_twijfel.png,images/cb_twijfel.png,0,,,,,,,,,,,,,,,,,,,,,,
,,,,,00053,2023-10-20_19h54.13.113,vbt_B2_day3,2022.2.4,Linux x86_64,60.00960154,,,,,,down,0,6.1498,,-0.072363359,-0.310679753,1,0,0,0,90,90,151,1,aanzoek,images/br_aanzoek.png,images/cb_aanzoek.png,0,,,,,,,,,,,,,,,,,,,,,,
,,,,,00053,2023-10-20_19h54.13.113,vbt_B2_day3,2022.2.4,Linux x86_64,60.00960154,,,,,,down,0,3.7834,,-0.072363359,-0.310679753,1,0,0,0,91,91,98,1,kreeft,images/br_kreeft.png,images/cb_kreeft.png,0,,,,,,,,,,,,,,,,,,,,,,
,,,,,00053,2023-10-20_19h54.13.113,vbt_B2_day3,2022.2.4,Linux x86_64,60.00960154,,,,,,down,0,2.8364,,-0.072363359,-0.311046897,1,0,0,0,92,92,83,1,mening,images/br_mening.png,images/cb_mening.png,0,,,,,,,,,,,,,,,,,,,,,,
,,,,,00053,2023-10-20_19h54.13.113,vbt_B2_day3,2022.2.4,Linux x86_64,60.00960154,,,,,,down,0,4.3653,,-0.072363359,-0.311046897,1,0,0,0,93,93,96,1,slagen,images/br_slagen.png,images/cb_slagen.png,0,,,,,,,,,,,,,,,,,,,,,,
,,,,,00053,2023-10-20_19h54.13.113,vbt_B2_day3,2022.2.4,Linux x86_64,60.00960154,,,,,,down,0,0.7326,,-0.072363359,-0.311046897,1,0,0,0,94,94,84,1,lokken,images/br_lokken.png,images/cb_lokken.png,0,,,,,,,,,,,,,,,,,,,,,,
,,,,,00053,2023-10-20_19h54.13.113,vbt_B2_day3,2022.2.4,Linux x86_64,60.00960154,,,,,,down,0,6.3145,,-0.072363359,-0.311046897,1,0,0,0,95,95,87,1,toeval,images/br_toeval.png,images/cb_toeval.png,0,,,,,,,,,,,,,,,,,,,,,,
,,,,,00053,2023-10-20_19h54.13.113,vbt_B2_day3,2022.2.4,Linux x86_64,60.00960154,,,,,,down,0,0.8825,,-0.072363359,-0.311046897,1,0,0,0,96,96,109,1,totaal,images/br_totaal.png,images/cb_totaal.png,0,,,,,,,,,,,,,,,,,,,,,,
,,,,,00053,2023-10-20_19h54.13.113,vbt_B2_day3,2022.2.4,Linux x86_64,60.00960154,,,,,,down,0,0.4869,,-0.072363359,-0.311046897,1,0,0,0,97,97,126,1,kasteel,images/br_kasteel.png,images/cb_kasteel.png,0,,,,,,,,,,,,,,,,,,,,,,
,,,,,00053,2023-10-20_19h54.13.113,vbt_B2_day3,2022.2.4,Linux x86_64,60.00960154,,,,,,down,0,0.287,,0.124522915,-0.036952938,1,0,0,0,98,98,16,1,ziek,images/br_ziek.png,images/cb_ziek.png,0,,,,,,,,,,,,,,,,,,,,,,
,,,,,00053,2023-10-20_19h54.13.113,vbt_B2_day3,2022.2.4,Linux x86_64,60.00960154,,,,,,down,0,0.6365,,-0.05637207,-0.152632131,1,0,0,0,99,99,139,1,stiekem,images/br_stiekem.png,images/cb_stiekem.png,0,,,,,,,,,,,,,,,,,,,,,,
,,,,,00053,2023-10-20_19h54.13.113,vbt_B2_day3,2022.2.4,Linux x86_64,60.00960154,,,,,,down,0,2.5349,,-0.05637207,-0.152632131,1,0,0,0,100,100,94,1,oceaan,images/br_oceaan.png,images/cb_oceaan.png,0,,,,,,,,,,,,,,,,,,,,,,
,,,,,00053,2023-10-20_19h54.13.113,vbt_B2_day3,2022.2.4,Linux x86_64,60.00960154,,,,,,down,0,0.3974,,-0.05637207,-0.152632131,1,0,0,0,101,101,35,1,lust,images/br_lust.png,images/cb_lust.png,0,,,,,,,,,,,,,,,,,,,,,,
,,,,,00053,2023-10-20_19h54.13.113,vbt_B2_day3,2022.2.4,Linux x86_64,60.00960154,,,,,,down,0,0.4158,,-0.05637207,-0.152632131,1,0,0,0,102,102,80,1,kanjer,images/br_kanjer.png,images/cb_kanjer.png,0,,,,,,,,,,,,,,,,,,,,,,
,,,,,00053,2023-10-20_19h54.13.113,vbt_B2_day3,2022.2.4,Linux x86_64,60.00960154,,,,,,down,0,0.3166,,-0.056188343,-0.152815781,1,0,0,0,103,103,104,1,zweven,images/br_zweven.png,images/cb_zweven.png,0,,,,,,,,,,,,,,,,,,,,,,
,,,,,00053,2023-10-20_19h54.13.113,vbt_B2_day3,2022.2.4,Linux x86_64,60.00960154,,,,,,down,0,0.2161,,-0.056188343,-0.152815781,1,0,0,0,104,104,178,1,huisdier,images/br_huisdier.png,images/cb_huisdier.png,0,,,,,,,,,,,,,,,,,,,,,,
,,,,,00053,2023-10-20_19h54.13.113,vbt_B2_day3,2022.2.4,Linux x86_64,60.00960154,,,,,,down,0,6.8329,,-0.056188343,-0.152815781,1,0,0,0,105,105,108,1,excuus,images/br_excuus.png,images/cb_excuus.png,0,,,,,,,,,,,,,,,,,,,,,,
,,,,,00053,2023-10-20_19h54.13.113,vbt_B2_day3,2022.2.4,Linux x86_64,60.00960154,,,,,,down,0,1.269,,-0.056188343,-0.152815781,1,0,0,0,106,106,123,1,hiervan,images/br_hiervan.png,images/cb_hiervan.png,0,,,,,,,,,,,,,,,,,,,,,,
,,,,,00053,2023-10-20_19h54.13.113,vbt_B2_day3,2022.2.4,Linux x86_64,60.00960154,,,,,,down,0,0.4381,,-0.056188343,-0.151897688,1,0,0,0,107,107,138,1,akkoord,images/br_akkoord.png,images/cb_akkoord.png,0,,,,,,,,,,,,,,,,,,,,,,
,,,,,00053,2023-10-20_19h54.13.113,vbt_B2_day3,2022.2.4,Linux x86_64,60.00960154,,,,,,down,0,8.3881,,-0.055637549,-0.151897688,1,0,0,0,108,108,140,1,blijven,images/br_blijven.png,images/cb_blijven.png,1,blijven,,,,,,,,,,,,,,,,,,,,,
,,,,,00053,2023-10-20_19h54.13.113,vbt_B2_day3,2022.2.4,Linux x86_64,60.00960154,,,,,,down,0,0.6228,,-0.055637549,-0.151897688,1,0,0,0,109,109,130,1,keihard,images/br_keihard.png,images/cb_keihard.png,0,,,,,,,,,,,,,,,,,,,,,,
,,,,,00053,2023-10-20_19h54.13.113,vbt_B2_day3,2022.2.4,Linux x86_64,60.00960154,,,,,,down,0,0.8398,,-0.055637549,-0.151897688,1,0,0,0,110,110,57,1,steek,images/br_steek.png,images/cb_steek.png,0,,,,,,,,,,,,,,,,,,,,,,
,,,,,00053,2023-10-20_19h54.13.113,vbt_B2_day3,2022.2.4,Linux x86_64,60.00960154,,,,,,down,0,0.7017,,-0.055637549,-0.151897688,1,0,0,0,111,111,193,1,weeshuis,images/br_weeshuis.png,images/cb_weeshuis.png,0,,,,,,,,,,,,,,,,,,,,,,
,,,,,00053,2023-10-20_19h54.13.113,vbt_B2_day3,2022.2.4,Linux x86_64,60.00960154,,,,,,down,0,0.5684,,0.115563265,-0.161989404,1,0,0,0,112,112,82,1,muziek,images/br_muziek.png,images/cb_muziek.png,0,,,,,,,,,,,,,,,,,,,,,,
,,,,,00053,2023-10-20_19h54.13.113,vbt_B2_day3,2022.2.4,Linux x86_64,60.00960154,,,,,,down,0,1.3177,,0.115563265,-0.161989404,1,0,0,0,113,113,33,1,vlek,images/br_vlek.png,images/cb_vlek.png,0,,,,,,,,,,,,,,,,,,,,,,
,,,,,00053,2023-10-20_19h54.13.113,vbt_B2_day3,2022.2.4,Linux x86_64,60.00960154,,,,,,down,0,2.7167,,0.115563265,-0.161989404,1,0,0,0,114,114,137,1,trekker,images/br_trekker.png,images/cb_trekker.png,0,,,,,,,,,,,,,,,,,,,,,,
,,,,,00053,2023-10-20_19h54.13.113,vbt_B2_day3,2022.2.4,Linux x86_64,60.00960154,,,,,,down,0,3.0698,,0.115563265,-0.161989404,1,0,0,0,115,115,135,1,gedicht,images/br_gedicht.png,images/cb_gedicht.png,0,,,,,,,,,,,,,,,,,,,,,,
,,,,,00053,2023-10-20_19h54.13.113,vbt_B2_day3,2022.2.4,Linux x86_64,60.00960154,,,,,,down,0,1.1868,,0.115563265,-0.161989404,1,0,0,0,116,116,147,1,komisch,images/br_komisch.png,images/cb_komisch.png,0,,,,,,,,,,,,,,,,,,,,,,
,,,,,00053,2023-10-20_19h54.13.113,vbt_B2_day3,2022.2.4,Linux x86_64,60.00960154,,,,,,down,0,0.2834,,0.115563265,-0.161989404,1,0,0,0,117,117,47,1,kabel,images/br_kabel.png,images/cb_kabel.png,0,,,,,,,,,,,,,,,,,,,,,,
,,,,,00053,2023-10-20_19h54.13.113,vbt_B2_day3,2022.2.4,Linux x86_64,60.00960154,,,,,,down,0,0.2205,,0.115563265,-0.161989404,1,0,0,0,118,118,177,1,maaltijd,images/br_maaltijd.png,images/cb_maaltijd.png,0,,,,,,,,,,,,,,,,,,,,,,
,,,,,00053,2023-10-20_19h54.13.113,vbt_B2_day3,2022.2.4,Linux x86_64,60.00960154,,,,,,down,0,0.772,,0.115563265,-0.161989404,1,0,0,0,119,119,124,1,bloeien,images/br_bloeien.png,images/cb_bloeien.png,0,,,,,,,,,,,,,,,,,,,,,,
,,,,,00053,2023-10-20_19h54.13.113,vbt_B2_day3,2022.2.4,Linux x86_64,60.00960154,,,,,,down,0,7.8997,,0.115563265,-0.161989404,1,0,0,0,120,120,23,1,zout,images/br_zout.png,images/cb_zout.png,1,zout,,,,,,,,,,,,,,,,,,,,,
,,,,,00053,2023-10-20_19h54.13.113,vbt_B2_day3,2022.2.4,Linux x86_64,60.00960154,,,,,,down,0,0.2021,,0.115563265,-0.161989404,1,0,0,0,121,121,64,1,wegen,images/br_wegen.png,images/cb_wegen.png,0,,,,,,,,,,,,,,,,,,,,,,
,,,,,00053,2023-10-20_19h54.13.113,vbt_B2_day3,2022.2.4,Linux x86_64,60.00960154,,,,,,down,0,0.3183,,0.032690119,-0.1910227,1,0,0,0,122,122,132,1,grappen,images/br_grappen.png,images/cb_grappen.png,0,,,,,,,,,,,,,,,,,,,,,,
,,,,,00053,2023-10-20_19h54.13.113,vbt_B2_day3,2022.2.4,Linux x86_64,60.00960154,,,,,,down,0,0.7355,,0.031588376,-0.189370164,1,0,0,0,123,123,3,1,mand,images/br_mand.png,images/cb_mand.png,0,,,,,,,,,,,,,,,,,,,,,,
,,,,,00053,2023-10-20_19h54.13.113,vbt_B2_day3,2022.2.4,Linux x86_64,60.00960154,,,,,,down,0,0.4013,,0.031588376,-0.189370164,1,0,0,0,124,124,15,1,soda,images/br_soda.png,images/cb_soda.png,0,,,,,,,,,,,,,,,,,,,,,,
,,,,,00053,2023-10-20_19h54.13.113,vbt_B2_day3,2022.2.4,Linux x86_64,60.00960154,,,,,,down,0,1.2347,,0.031588376,-0.189370164,1,0,0,0,125,125,157,1,uitlaat,images/br_uitlaat.png,images/cb_uitlaat.png,0,,,,,,,,,,,,,,,,,,,,,,
,,,,,00053,2023-10-20_19h54.13.113,vbt_B2_day3,2022.2.4,Linux x86_64,60.00960154,,,,,,down,0,0.2671,,0.031404648,-0.188084849,1,0,0,0,126,126,65,1,parel,images/br_parel.png,images/cb_parel.png,0,,,,,,,,,,,,,,,,,,,,,,
,,,,,00053,2023-10-20_19h54.13.113,vbt_B2_day3,2022.2.4,Linux x86_64,60.00960154,,,,,,down,0,2.6692,,0.030119333,-0.187901199,1,0,0,0,127,127,133,1,seizoen,images/br_seizoen.png,images/cb_seizoen.png,0,,,,,,,,,,,,,,,,,,,,,,
,,,,,00053,2023-10-20_19h54.13.113,vbt_B2_day3,2022.2.4,Linux x86_64,60.00960154,,,,,,down,0,5.0991,,0.022774744,-0.190288179,1,0,0,0,128,128,7,1,geld,images/br_geld.png,images/cb_geld.png,0,,,,,,,,,,,,,,,,,,,,,,
,,,,,00053,2023-10-20_19h54.13.113,vbt_B2_day3,2022.2.4,Linux x86_64,60.00960154,,,,,,down,0,0.7532,,0.020204114,-0.190288179,1,0,0,0,129,129,146,1,opkomen,images/br_opkomen.png,images/cb_opkomen.png,0,,,,,,,,,,,,,,,,,,,,,,
,,,,,00053,2023-10-20_19h54.13.113,vbt_B2_day3,2022.2.4,Linux x86_64,60.00960154,,,,,,down,0,0.62,,0.020204114,-0.190288179,1,0,0,0,130,130,91,1,gezond,images/br_gezond.png,images/cb_gezond.png,0,,,,,,,,,,,,,,,,,,,,,,
,,,,,00053,2023-10-20_19h54.13.113,vbt_B2_day3,2022.2.4,Linux x86_64,60.00960154,,,,,,down,0,0.1364,,0.020204114,-0.190288179,1,0,0,0,131,131,13,1,kaal,images/br_kaal.png,images/cb_kaal.png,0,,,,,,,,,,,,,,,,,,,,,,
,,,,,00053,2023-10-20_19h54.13.113,vbt_B2_day3,2022.2.4,Linux x86_64,60.00960154,,,,,,down,0,0.7006,,0.019836892,-0.189920958,1,0,0,0,132,132,11,1,mode,images/br_mode.png,images/cb_mode.png,0,,,,,,,,,,,,,,,,,,,,,,
,,,,,00053,2023-10-20_19h54.13.113,vbt_B2_day3,2022.2.4,Linux x86_64,60.00960154,,,,,,down,0,3.086,,0.019836892,-0.189920958,1,0,0,0,133,133,22,1,stof,images/br_stof.png,images/cb_stof.png,1,stof,,,,,,,,,,,,,,,,,,,,,
,,,,,00053,2023-10-20_19h54.13.113,vbt_B2_day3,2022.2.4,Linux x86_64,60.00960154,,,,,,down,0,1.7362,,0.024519105,-0.189186514,1,0,0,0,134,134,166,1,strikken,images/br_strikken.png,images/cb_strikken.png,0,,,,,,,,,,,,,,,,,,,,,,
,,,,,00053,2023-10-20_19h54.13.113,vbt_B2_day3,2022.2.4,Linux x86_64,60.00960154,,,,,,down,0,2.4501,,0.024519105,-0.189186514,1,0,0,0,135,135,20,1,site,images/br_site.png,images/cb_site.png,1,site,,,,,,,,,,,,,,,,,,,,,
,,,,,00053,2023-10-20_19h54.13.113,vbt_B2_day3,2022.2.4,Linux x86_64,60.00960154,,,,,,down,0,2.9843,,0.024519105,-0.189186514,1,0,0,0,136,136,141,1,knielen,images/br_knielen.png,images/cb_knielen.png,1,knielen,,,,,,,,,,,,,,,,,,,,,
,,,,,00053,2023-10-20_19h54.13.113,vbt_B2_day3,2022.2.4,Linux x86_64,60.00960154,,,,,,down,0,5.4678,,0.024519105,-0.189186514,1,0,0,0,137,137,180,1,openbaar,images/br_openbaar.png,images/cb_openbaar.png,1,openbaar,,,,,,,,,,,,,,,,,,,,,
,,,,,00053,2023-10-20_19h54.13.113,vbt_B2_day3,2022.2.4,Linux x86_64,60.00960154,,,,,,down,0,0.0383,,0.023968311,-0.188268421,1,0,0,0,138,138,92,1,geheim,images/br_geheim.png,images/cb_geheim.png,0,,,,,,,,,,,,,,,,,,,,,,
,,,,,00053,2023-10-20_19h54.13.113,vbt_B2_day3,2022.2.4,Linux x86_64,60.00960154,,,,,,down,0,3.9535,,0.023968311,-0.188268421,1,0,0,0,139,139,63,1,flirt,images/br_flirt.png,images/cb_flirt.png,1,flirt,,,,,,,,,,,,,,,,,,,,,
,,,,,00053,2023-10-20_19h54.13.113,vbt_B2_day3,2022.2.4,Linux x86_64,60.00960154,,,,,,down,0,3.363,,0.023968311,-0.188268421,1,0,0,0,140,140,56,1,traag,images/br_traag.png,images/cb_traag.png,0,,,,,,,,,,,,,,,,,,,,,,
,,,,,00053,2023-10-20_19h54.13.113,vbt_B2_day3,2022.2.4,Linux x86_64,60.00960154,,,,,,down,0,0.4172,,0.023968311,-0.188268421,1,0,0,0,141,141,44,1,flits,images/br_flits.png,images/cb_flits.png,0,,,,,,,,,,,,,,,,,,,,,,
,,,,,00053,2023-10-20_19h54.13.113,vbt_B2_day3,2022.2.4,Linux x86_64,60.00960154,,,,,,down,0,0.3533,,0.023601012,-0.188268421,1,0,0,0,142,142,81,1,dubbel,images/br_dubbel.png,images/cb_dubbel.png,0,,,,,,,,,,,,,,,,,,,,,,
,,,,,00053,2023-10-20_19h54.13.113,vbt_B2_day3,2022.2.4,Linux x86_64,60.00960154,,,,,,down,0,0.5501,,0.023050218,-0.18881937,1,0,0,0,143,143,10,1,leek,images/br_leek.png,images/cb_leek.png,0,,,,,,,,,,,,,,,,,,,,,,
,,,,,00053,2023-10-20_19h54.13.113,vbt_B2_day3,2022.2.4,Linux x86_64,60.00960154,,,,,,down,0,0.5319,,0.021030382,-0.191757144,1,0,0,0,144,144,195,1,middelen,images/br_middelen.png,images/cb_middelen.png,0,,,,,,,,,,,,,,,,,,,,,,
,,,,,00053,2023-10-20_19h54.13.113,vbt_B2_day3,2022.2.4,Linux x86_64,60.00960154,,,,,,down,0,2.2174,,0.018129463,-0.111105249,1,0,0,0,145,145,102,1,legaal,images/br_legaal.png,images/cb_legaal.png,1,legaal,,,,,,,,,,,,,,,,,,,,,
,,,,,00053,2023-10-20_19h54.13.113,vbt_B2_day3,2022.2.4,Linux x86_64,60.00960154,,,,,,down,0,0.57,,0.018129463,-0.109544577,1,0,0,0,146,146,111,1,ticket,images/br_ticket.png,images/cb_ticket.png,0,,,,,,,,,,,,,,,,,,,,,,
,,,,,00053,2023-10-20_19h54.13.113,vbt_B2_day3,2022.2.4,Linux x86_64,60.00960154,,,,,,down,0,0.5041,,0.016476926,-0.109177277,1,0,0,0,147,147,150,1,gegeven,images/br_gegeven.png,images/cb_gegeven.png,0,,,,,,,,,,,,,,,,,,,,,,
,,,,,00053,2023-10-20_19h54.13.113,vbt_B2_day3,2022.2.4,Linux x86_64,60.00960154,,,,,,down,0,0.1037,,0.016476926,-0.109177277,1,0,0,0,148,148,52,1,wagon,images/br_wagon.png,images/cb_wagon.png,0,,,,,,,,,,,,,,,,,,,,,,
,,,,,00053,2023-10-20_19h54.13.113,vbt_B2_day3,2022.2.4,Linux x86_64,60.00960154,,,,,,down,0,0.2028,,0.016476926,-0.109085491,1,0,0,0,149,149,90,1,geluid,images/br_geluid.png,images/cb_geluid.png,0,,,,,,,,,,,,,,,,,,,,,,
,,,,,00053,2023-10-20_19h54.13.113,vbt_B2_day3,2022.2.4,Linux x86_64,60.00960154,,,,,,down,0,0.2664,,0.003223823,-0.115851685,1,0,0,0,150,150,163,1,schuilen,images/br_schuilen.png,images/cb_schuilen.png,0,,,,,,,,,,,,,,,,,,,,,,
,,,,,00053,2023-10-20_19h54.13.113,vbt_B2_day3,2022.2.4,Linux x86_64,60.00960154,,,,,,down,0,0.2515,,0.00432541,-0.118789498,1,0,0,0,151,151,176,1,techniek,images/br_techniek.png,images/cb_techniek.png,0,,,,,,,,,,,,,,,,,,,,,,
,,,,,00053,2023-10-20_19h54.13.113,vbt_B2_day3,2022.2.4,Linux x86_64,60.00960154,,,,,,down,0,0.2537,,0.00432541,-0.118789498,1,0,0,0,152,152,159,1,sufferd,images/br_sufferd.png,images/cb_sufferd.png,0,,,,,,,,,,,,,,,,,,,,,,
,,,,,00053,2023-10-20_19h54.13.113,vbt_B2_day3,2022.2.4,Linux x86_64,60.00960154,,,,,,down,0,3.0025,,0.003774616,-0.118789498,1,0,0,0,153,153,184,1,aandelen,images/br_aandelen.png,images/cb_aandelen.png,0,,,,,,,,,,,,,,,,,,,,,,
,,,,,00053,2023-10-20_19h54.13.113,vbt_B2_day3,2022.2.4,Linux x86_64,60.00960154,,,,,,down,0,3.1366,,0.003774616,-0.118789498,1,0,0,0,154,154,100,1,geduld,images/br_geduld.png,images/cb_geduld.png,1,geduld,,,,,,,,,,,,,,,,,,,,,
,,,,,00053,2023-10-20_19h54.13.113,vbt_B2_day3,2022.2.4,Linux x86_64,60.00960154,,,,,,down,0,0.0009,,0.00175478,-0.11658609,1,0,0,0,155,155,8,1,knie,images/br_knie.png,images/cb_knie.png,0,,,,,,,,,,,,,,,,,,,,,,
,,,,,00053,2023-10-20_19h54.13.113,vbt_B2_day3,2022.2.4,Linux x86_64,60.00960154,,,,,,down,0,0.9996,,0.001387558,-0.114566332,1,0,0,0,156,156,43,1,klauw,images/br_klauw.png,images/cb_klauw.png,0,,,,,,,,,,,,,,,,,,,,,,
,,,,,00053,2023-10-20_19h54.13.113,vbt_B2_day3,2022.2.4,Linux x86_64,60.00960154,,,,,,down,0,0.1321,,0.001387558,-0.114566332,1,0,0,0,157,157,74,1,graaf,images/br_graaf.png,images/cb_graaf.png,0,,,,,,,,,,,,,,,,,,,,,,
,,,,,00053,2023-10-20_19h54.13.113,vbt_B2_day3,2022.2.4,Linux x86_64,60.00960154,,,,,,down,0,0.3578,,0.001387558,-0.114566332,1,0,0,0,158,158,59,1,kring,images/br_kring.png,images/cb_kring.png,0,,,,,,,,,,,,,,,,,,,,,,
,,,,,00053,2023-10-20_19h54.13.113,vbt_B2_day3,2022.2.4,Linux x86_64,60.00960154,,,,,,down,0,0.4031,,-8.13284E-05,-0.114933553,1,0,0,0,159,159,70,1,ijdel,images/br_ijdel.png,images/cb_ijdel.png,0,,,,,,,,,,,,,,,,,,,,,,
,,,,,00053,2023-10-20_19h54.13.113,vbt_B2_day3,2022.2.4,Linux x86_64,60.00960154,,,,,,down,0,0.553,,-8.13284E-05,-0.114933553,1,0,0,0,160,160,167,1,eenhoorn,images/br_eenhoorn.png,images/cb_eenhoorn.png,0,,,,,,,,,,,,,,,,,,,,,,
,,,,,00053,2023-10-20_19h54.13.113,vbt_B2_day3,2022.2.4,Linux x86_64,60.00960154,,,,,,down,0,0.5689,,-8.13284E-05,-0.114933553,1,0,0,0,161,161,106,1,zingen,images/br_zingen.png,images/cb_zingen.png,0,,,,,,,,,,,,,,,,,,,,,,
,,,,,00053,2023-10-20_19h54.13.113,vbt_B2_day3,2022.2.4,Linux x86_64,60.00960154,,,,,,down,0,1.9845,,-8.13284E-05,-0.114933553,1,0,0,0,162,162,61,1,groen,images/br_groen.png,images/cb_groen.png,1,groen,,,,,,,,,,,,,,,,,,,,,
,,,,,00053,2023-10-20_19h54.13.113,vbt_B2_day3,2022.2.4,Linux x86_64,60.00960154,,,,,,down,0,6.0733,,-8.13284E-05,-0.114933553,1,0,0,0,163,163,181,1,toegeven,images/br_toegeven.png,images/cb_toegeven.png,1,toegeven,,,,,,,,,,,,,,,,,,,,,
,,,,,00053,2023-10-20_19h54.13.113,vbt_B2_day3,2022.2.4,Linux x86_64,60.00960154,,,,,,down,0,0.1155,,-0.001550293,-0.114749942,1,0,0,0,164,164,155,1,gerucht,images/br_gerucht.png,images/cb_gerucht.png,0,,,,,,,,,,,,,,,,,,,,,,
,,,,,00053,2023-10-20_19h54.13.113,vbt_B2_day3,2022.2.4,Linux x86_64,60.00960154,,,,,,down,0,0.154,,-0.002651958,-0.114749942,1,0,0,0,165,165,162,1,uitdelen,images/br_uitdelen.png,images/cb_uitdelen.png,0,,,,,,,,,,,,,,,,,,,,,,
,,,,,00053,2023-10-20_19h54.13.113,vbt_B2_day3,2022.2.4,Linux x86_64,60.00960154,,,,,,down,0,1.8501,,-0.002651958,-0.113097445,1,0,0,0,166,166,152,1,afnemen,images/br_afnemen.png,images/cb_afnemen.png,0,,,,,,,,,,,,,,,,,,,,,,
,,,,,00053,2023-10-20_19h54.13.113,vbt_B2_day3,2022.2.4,Linux x86_64,60.00960154,,,,,,down,0,0.4188,,-0.00320283,-0.113097445,1,0,0,0,167,167,110,1,zuster,images/br_zuster.png,images/cb_zuster.png,0,,,,,,,,,,,,,,,,,,,,,,
,,,,,00053,2023-10-20_19h54.13.113,vbt_B2_day3,2022.2.4,Linux x86_64,60.00960154,,,,,,down,0,2.0165,,-0.00320283,-0.113097445,1,0,0,0,168,168,103,1,joggen,images/br_joggen.png,images/cb_joggen.png,1,joggen,,,,,,,,,,,,,,,,,,,,,
,,,,,00053,2023-10-20_19h54.13.113,vbt_B2_day3,2022.2.4,Linux x86_64,60.00960154,,,,,,down,0,0.1693,,-0.00320283,-0.113097445,1,0,0,0,169,169,128,1,prikken,images/br_prikken.png,images/cb_prikken.png,0,,,,,,,,,,,,,,,,,,,,,,
,,,,,00053,2023-10-20_19h54.13.113,vbt_B2_day3,2022.2.4,Linux x86_64,60.00960154,,,,,,down,0,0.4036,,-0.004304495,-0.113464628,1,0,0,0,170,170,12,1,kust,images/br_kust.png,images/cb_kust.png,0,,,,,,,,,,,,,,,,,,,,,,
,,,,,00053,2023-10-20_19h54.13.113,vbt_B2_day3,2022.2.4,Linux x86_64,60.00960154,,,,,,down,0,2.405,,-0.005773459,-0.112362924,1,0,0,0,171,171,28,1,stal,images/br_stal.png,images/cb_stal.png,0,,,,,,,,,,,,,,,,,,,,,,
,,,,,00053,2023-10-20_19h54.13.113,vbt_B2_day3,2022.2.4,Linux x86_64,60.00960154,,,,,,down,0,4.0485,,-0.006507825,-0.112362924,1,0,0,0,172,172,145,1,invloed,images/br_invloed.png,images/cb_invloed.png,0,,,,,,,,,,,,,,,,,,,,,,
,,,,,00053,2023-10-20_19h54.13.113,vbt_B2_day3,2022.2.4,Linux x86_64,60.00960154,,,,,,down,0,0.3877,,-0.007976867,-0.112362924,1,0,0,0,173,173,190,1,goedkoop,images/br_goedkoop.png,images/cb_goedkoop.png,0,,,,,,,,,,,,,,,,,,,,,,
,,,,,00053,2023-10-20_19h54.13.113,vbt_B2_day3,2022.2.4,Linux x86_64,60.00960154,,,,,,down,0,0.5811,,-0.011098291,-0.111077609,1,0,0,0,174,174,189,1,aanraden,images/br_aanraden.png,images/cb_aanraden.png,0,,,,,,,,,,,,,,,,,,,,,,
,,,,,00053,2023-10-20_19h54.13.113,vbt_B2_day3,2022.2.4,Linux x86_64,60.00960154,,,,,,down,0,4.8816,,-0.011098291,-0.111077609,1,0,0,0,175,175,21,1,mist,images/br_mist.png,images/cb_mist.png,1,mist,,,,,,,,,,,,,,,,,,,,,
,,,,,00053,2023-10-20_19h54.13.113,vbt_B2_day3,2022.2.4,Linux x86_64,60.00960154,,,,,,down,0,0.3167,,-0.011649084,-0.10905785,1,0,0,0,176,176,50,1,stoom,images/br_stoom.png,images/cb_stoom.png,0,,,,,,,,,,,,,,,,,,,,,,
,,,,,00053,2023-10-20_19h54.13.113,vbt_B2_day3,2022.2.4,Linux x86_64,60.00960154,,,,,,down,0,1.5557,,-0.016055978,-0.109425072,1,0,0,0,177,177,192,1,schaamte,images/br_schaamte.png,images/cb_schaamte.png,0,,,,,,,,,,,,,,,,,,,,,,
,,,,,00053,2023-10-20_19h54.13.113,vbt_B2_day3,2022.2.4,Linux x86_64,60.00960154,,,,,,down,0,0.0367,,-0.017708515,-0.109425072,1,0,0,0,178,178,125,1,aanzien,images/br_aanzien.png,images/cb_aanzien.png,0,,,,,,,,,,,,,,,,,,,,,,
,,,,,00053,2023-10-20_19h54.13.113,vbt_B2_day3,2022.2.4,Linux x86_64,60.00960154,,,,,,down,0,0.0896,,-0.023951439,-0.110893998,1,0,0,0,179,179,129,1,verhaal,images/br_verhaal.png,images/cb_verhaal.png,0,,,,,,,,,,,,,,,,,,,,,,
,,,,,00053,2023-10-20_19h54.13.113,vbt_B2_day3,2022.2.4,Linux x86_64,60.00960154,,,,,,down,0,1.4379,,-0.028725477,-0.112546534,1,0,0,0,180,180,115,1,kleren,images/br_kleren.png,images/cb_kleren.png,0,,,,,,,,,,,,,,,,,,,,,,
,,,,,00053,2023-10-20_19h54.13.113,vbt_B2_day3,2022.2.4,Linux x86_64,60.00960154,,,,,,down,0,1.1997,,-0.034233958,-0.113831849,1,0,0,0,181,181,148,1,smullen,images/br_smullen.png,images/cb_smullen.png,0,,,,,,,,,,,,,,,,,,,,,,
,,,,,00053,2023-10-20_19h54.13.113,vbt_B2_day3,2022.2.4,Linux x86_64,60.00960154,,,,,,down,0,2.2171,,-0.037722681,-0.115484386,1,0,0,0,182,182,175,1,heengaan,images/br_heengaan.png,images/cb_heengaan.png,0,,,,,,,,,,,,,,,,,,,,,,
,,,,,00053,2023-10-20_19h54.13.113,vbt_B2_day3,2022.2.4,Linux x86_64,60.00960154,,,,,,down,0,2.5657,,-0.037722681,-0.115484386,1,0,0,0,183,183,53,1,baron,images/br_baron.png,images/cb_baron.png,0,,,,,,,,,,,,,,,,,,,,,,
,,,,,00053,2023-10-20_19h54.13.113,vbt_B2_day3,2022.2.4,Linux x86_64,60.00960154,,,,,,down,0,0.1671,,-0.044883699,-0.117504183,1,0,0,0,184,184,117,1,kennis,images/br_kennis.png,images/cb_kennis.png,0,,,,,,,,,,,,,,,,,,,,,,
,,,,,00053,2023-10-20_19h54.13.113,vbt_B2_day3,2022.2.4,Linux x86_64,60.00960154,,,,,,down,0,0.4515,,-0.046903457,-0.118238626,1,0,0,0,185,185,36,1,vuur,images/br_vuur.png,images/cb_vuur.png,0,,,,,,,,,,,,,,,,,,,,,,
,,,,,00053,2023-10-20_19h54.13.113,vbt_B2_day3,2022.2.4,Linux x86_64,60.00960154,,,,,,down,0,0.6825,,-0.046903457,-0.118238626,1,0,0,0,186,186,196,1,nakijken,images/br_nakijken.png,images/cb_nakijken.png,0,,,,,,,,,,,,,,,,,,,,,,
,,,,,00053,2023-10-20_19h54.13.113,vbt_B2_day3,2022.2.4,Linux x86_64,60.00960154,,,,,,down,0,0.0199,,-0.048188772,-0.116769701,1,0,0,0,187,187,88,1,boeien,images/br_boeien.png,images/cb_boeien.png,0,,,,,,,,,,,,,,,,,,,,,,
,,,,,00053,2023-10-20_19h54.13.113,vbt_B2_day3,2022.2.4,Linux x86_64,60.00960154,,,,,,down,0,0.3532,,-0.049474087,-0.117320572,1,0,0,0,188,188,134,1,geliefd,images/br_geliefd.png,images/cb_geliefd.png,0,,,,,,,,,,,,,,,,,,,,,,
,,,,,00053,2023-10-20_19h54.13.113,vbt_B2_day3,2022.2.4,Linux x86_64,60.00960154,,,,,,down,0,0.7368,,-0.05277916,-0.118605926,1,0,0,0,189,189,1,1,zaal,images/br_zaal.png,images/cb_zaal.png,0,,,,,,,,,,,,,,,,,,,,,,
,,,,,00053,2023-10-20_19h54.13.113,vbt_B2_day3,2022.2.4,Linux x86_64,60.00960154,,,,,,down,0,0.1482,,-0.05277916,-0.118422315,1,0,0,0,190,190,99,1,koffie,images/br_koffie.png,images/cb_koffie.png,0,,,,,,,,,,,,,,,,,,,,,,
,,,,,00053,2023-10-20_19h54.13.113,vbt_B2_day3,2022.2.4,Linux x86_64,60.00960154,,,,,,down,0,1.4561,,-0.053330031,-0.118605926,1,0,0,0,191,191,49,1,laken,images/br_laken.png,images/cb_laken.png,0,,,,,,,,,,,,,,,,,,,,,,
,,,,,00053,2023-10-20_19h54.13.113,vbt_B2_day3,2022.2.4,Linux x86_64,60.00960154,,,,,,down,0,0.7385,,-0.059572956,-0.122461871,1,0,0,0,192,192,66,1,lever,images/br_lever.png,images/cb_lever.png,0,,,,,,,,,,,,,,,,,,,,,,
,,,,,00053,2023-10-20_19h54.13.113,vbt_B2_day3,2022.2.4,Linux x86_64,60.00960154,,,,,,down,0,0.5173,,-0.061409142,-0.122645481,1,0,0,0,193,193,14,1,rijp,images/br_rijp.png,images/cb_rijp.png,0,,,,,,,,,,,,,,,,,,,,,,
,,,,,00053,2023-10-20_19h54.13.113,vbt_B2_day3,2022.2.4,Linux x86_64,60.00960154,,,,,,down,0,0.4012,,-0.061409142,-0.122645481,1,0,0,0,194,194,72,1,strak,images/br_strak.png,images/cb_strak.png,0,,,,,,,,,,,,,,,,,,,,,,
,,,,,00053,2023-10-20_19h54.13.113,vbt_B2_day3,2022.2.4,Linux x86_64,60.00960154,,,,,,down,0,7.088,,-0.061409142,-0.122645481,1,0,0,0,195,195,142,1,snuiven,images/br_snuiven.png,images/cb_snuiven.png,1,snuiven,,,,,,,,,,,,,,,,,,,,,
,,,,,00053,2023-10-20_19h54.13.113,vbt_B2_day3,2022.2.4,Linux x86_64,60.00960154,,,,,,down,0,1.2161,,-0.077383714,-0.140823423,1,0,0,0,196,196,30,1,uien,images/br_uien.png,images/cb_uien.png,0,,,,,,,,,,,,,,,,,,,,,,
,,,,,00053,2023-10-20_19h54.13.113,vbt_B2_day3,2022.2.4,Linux x86_64,60.00960154,,,,,,down,0,0.3352,,-0.117935006,-0.168746657,1,0,0,0,197,197,120,1,klimmen,images/br_klimmen.png,images/cb_klimmen.png,0,,,,,,,,,,,,,,,,,,,,,,
,,,,,00053,2023-10-20_19h54.13.113,vbt_B2_day3,2022.2.4,Linux x86_64,60.00960154,,,,,,down,0,0.4482,,-0.123259993,-0.172419029,1,0,0,0,198,198,131,1,opzicht,images/br_opzicht.png,images/cb_opzicht.png,0,,,,,,,,,,,,,,,,,,,,,,
,,,,,00053,2023-10-20_19h54.13.113,vbt_B2_day3,2022.2.4,Linux x86_64,60.00960154,,,,,,down,0,0.3012,,-0.125463323,-0.173337045,1,0,0,0,199,199,112,1,lukken,images/br_lukken.png,images/cb_lukken.png,0,,,,,,,,,,,,,,,,,,,,,,
,,,,,00053,2023-10-20_19h54.13.113,vbt_B2_day3,2022.2.4,Linux x86_64,60.00960154,,,,,,,,,,,,,,,,,,,,,,,,,-0.125463323,-0.173337045,1,0,0,,,,,,,,,,,,,,,,
,,,,,00053,2023-10-20_19h54.13.113,vbt_B2_day3,2022.2.4,Linux x86_64,60.00960154,,,,,,,,,,,,,,,,,,,,,,,,,,,,,,0.332878978,-0.112512013,1,0,0,,,,,,,,,,,
,,,,,00053,2023-10-20_19h54.13.113,vbt_B2_day3,2022.2.4,Linux x86_64,60.00960154,,,,,,,,,,,,,,,,,,,,steel,images/br_steel.png,images/cb_steel.png,,steel,,,,,,,,,,,0.332878978,-0.112512013,1,0,0,steel,0,0,0,4,1
,,,,,00053,2023-10-20_19h54.13.113,vbt_B2_day3,2022.2.4,Linux x86_64,60.00960154,,,,,,,,,,,,,,,,,,,,leemaken,images/br_leemaken.png,images/cb_leemaken.png,,leemaken,,,,,,,,,,,0.332878978,-0.112512013,1,0,0,leemaken,0,1,1,39,1
,,,,,00053,2023-10-20_19h54.13.113,vbt_B2_day3,2022.2.4,Linux x86_64,60.00960154,,,,,,,,,,,,,,,,,,,,twaaf,images/br_twaaf.png,images/cb_twaaf.png,,tweef,,,,,,,,,,,0.332878978,-0.112512013,1,0,0,tweef,0,2,2,24,1
,,,,,00053,2023-10-20_19h54.13.113,vbt_B2_day3,2022.2.4,Linux x86_64,60.00960154,,,,,,,,,,,,,,,,,,,,gout,images/br_gout.png,images/cb_gout.png,,gout,,,,,,,,,,,0.138396323,-0.092142948,1,0,0,gout,0,3,3,20,1
,,,,,00053,2023-10-20_19h54.13.113,vbt_B2_day3,2022.2.4,Linux x86_64,60.00960154,,,,,,,,,,,,,,,,,,,,keihard,images/br_keihard.png,images/cb_keihard.png,,keihoed,,,,,,,,,,,0.138396323,-0.092142948,1,0,0,keihoed,0,4,4,14,1
,,,,,00053,2023-10-20_19h54.13.113,vbt_B2_day3,2022.2.4,Linux x86_64,60.00960154,,,,,,,,,,,,,,,,,,,,schodel,images/br_schodel.png,images/cb_schodel.png,,schofel,,,,,,,,,,,0.138396323,-0.092142948,1,0,0,schofel,0,5,5,33,1
,,,,,00053,2023-10-20_19h54.13.113,vbt_B2_day3,2022.2.4,Linux x86_64,60.00960154,,,,,,,,,,,,,,,,,,,,beslag,images/br_beslag.png,images/cb_beslag.png,,beslag,,,,,,,,,,,0.138396323,-0.092142948,1,0,0,beslag,0,6,6,51,1
,,,,,00053,2023-10-20_19h54.13.113,vbt_B2_day3,2022.2.4,Linux x86_64,60.00960154,,,,,,,,,,,,,,,,,,,,hust,images/br_hust.png,images/cb_hust.png,,hult,,,,,,,,,,,0.138396323,-0.092142948,1,0,0,hult,0,7,7,23,1
,,,,,00053,2023-10-20_19h54.13.113,vbt_B2_day3,2022.2.4,Linux x86_64,60.00960154,,,,,,,,,,,,,,,,,,,,uviek,images/br_uviek.png,images/cb_uviek.png,,uviek,,,,,,,,,,,0.089738085,-0.094897189,1,0,0,uviek,0,8,8,25,1
,,,,,00053,2023-10-20_19h54.13.113,vbt_B2_day3,2022.2.4,Linux x86_64,60.00960154,,,,,,,,,,,,,,,,,,,,verhaal,images/br_verhaal.png,images/cb_verhaal.png,,verhaal,,,,,,,,,,,0.089738085,-0.094897189,1,0,0,verhaal,0,9,9,13,1
,,,,,00053,2023-10-20_19h54.13.113,vbt_B2_day3,2022.2.4,Linux x86_64,60.00960154,,,,,,,,,,,,,,,,,,,,hier,images/br_hier.png,images/cb_hier.png,,hier,,,,,,,,,,,0.089738085,-0.094897189,1,0,0,hier,0,10,10,1,1
,,,,,00053,2023-10-20_19h54.13.113,vbt_B2_day3,2022.2.4,Linux x86_64,60.00960154,,,,,,,,,,,,,,,,,,,,stallen,images/br_stallen.png,images/cb_stallen.png,,stallen,,,,,,,,,,,0.089738085,-0.094897189,1,0,0,stallen,0,11,11,52,1
,,,,,00053,2023-10-20_19h54.13.113,vbt_B2_day3,2022.2.4,Linux x86_64,60.00960154,,,,,,,,,,,,,,,,,,,,sultan,images/br_sultan.png,images/cb_sultan.png,,sultan,,,,,,,,,,,0.089738085,-0.094897189,1,0,0,sultan,0,12,12,49,1
,,,,,00053,2023-10-20_19h54.13.113,vbt_B2_day3,2022.2.4,Linux x86_64,60.00960154,,,,,,,,,,,,,,,,,,,,glijden,images/br_glijden.png,images/cb_glijden.png,,glijden,,,,,,,,,,,0.089738085,-0.094897189,1,0,0,glijden,0,13,13,53,1
,,,,,00053,2023-10-20_19h54.13.113,vbt_B2_day3,2022.2.4,Linux x86_64,60.00960154,,,,,,,,,,,,,,,,,,,,mode,images/br_mode.png,images/cb_mode.png,,mode,,,,,,,,,,,0.089738085,-0.094897189,1,0,0,mode,0,14,14,3,1
,,,,,00053,2023-10-20_19h54.13.113,vbt_B2_day3,2022.2.4,Linux x86_64,60.00960154,,,,,,,,,,,,,,,,,,,,brappen,images/br_brappen.png,images/cb_brappen.png,,brappen,,,,,,,,,,,0.089738085,-0.094897189,1,0,0,brappen,0,15,15,35,1
,,,,,00053,2023-10-20_19h54.13.113,vbt_B2_day3,2022.2.4,Linux x86_64,60.00960154,,,,,,,,,,,,,,,,,,,,leugeren,images/br_leugeren.png,images/cb_leugeren.png,,leugen,,,,,,,,,,,0.089738085,-0.094897189,1,0,0,leugen,0,16,16,37,1
,,,,,00053,2023-10-20_19h54.13.113,vbt_B2_day3,2022.2.4,Linux x86_64,60.00960154,,,,,,,,,,,,,,,,,,,,hint,images/br_hint.png,images/cb_hint.png,,hint,,,,,,,,,,,0.089738085,-0.094897189,1,0,0,hint,0,17,17,43,1
,,,,,00053,2023-10-20_19h54.13.113,vbt_B2_day3,2022.2.4,Linux x86_64,60.00960154,,,,,,,,,,,,,,,,,,,,gezond,images/br_gezond.png,images/cb_gezond.png,,gezond,,,,,,,,,,,0.089187214,-0.094897189,1,0,0,gezond,0,18,18,11,1
,,,,,00053,2023-10-20_19h54.13.113,vbt_B2_day3,2022.2.4,Linux x86_64,60.00960154,,,,,,,,,,,,,,,,,,,,alsof,images/br_alsof.png,images/cb_alsof.png,,alsof,,,,,,,,,,,0.089187214,-0.094897189,1,0,0,alsof,0,19,19,44,1
,,,,,00053,2023-10-20_19h54.13.113,vbt_B2_day3,2022.2.4,Linux x86_64,60.00960154,,,,,,,,,,,,,,,,,,,,uniek,images/br_uniek.png,images/cb_uniek.png,,uniek,,,,,,,,,,,0.089187214,-0.094897189,1,0,0,uniek,0,20,20,46,1
,,,,,00053,2023-10-20_19h54.13.113,vbt_B2_day3,2022.2.4,Linux x86_64,60.00960154,,,,,,,,,,,,,,,,,,,,stoom,images/br_stoom.png,images/cb_stoom.png,,stoom,,,,,,,,,,,0.089187214,-0.094897189,1,0,0,stoom,0,21,21,6,1
,,,,,00053,2023-10-20_19h54.13.113,vbt_B2_day3,2022.2.4,Linux x86_64,60.00960154,,,,,,,,,,,,,,,,,,,,sluier,images/br_sluier.png,images/cb_sluier.png,,sluier,,,,,,,,,,,0.089187214,-0.094897189,1,0,0,sluier,0,22,22,50,1
,,,,,00053,2023-10-20_19h54.13.113,vbt_B2_day3,2022.2.4,Linux x86_64,60.00960154,,,,,,,,,,,,,,,,,,,,boeien,images/br_boeien.png,images/cb_boeien.png,,boeien,,,,,,,,,,,0.089187214,-0.094897189,1,0,0,boeien,0,23,23,8,1
,,,,,00053,2023-10-20_19h54.13.113,vbt_B2_day3,2022.2.4,Linux x86_64,60.00960154,,,,,,,,,,,,,,,,,,,,kaas,images/br_kaas.png,images/cb_kaas.png,,kaas,,,,,,,,,,,0.089187214,-0.094897189,1,0,0,kaas,0,24,24,42,1
,,,,,00053,2023-10-20_19h54.13.113,vbt_B2_day3,2022.2.4,Linux x86_64,60.00960154,,,,,,,,,,,,,,,,,,,,makieren,images/br_makieren.png,images/cb_makieren.png,,makieren,,,,,,,,,,,0.089187214,-0.094897189,1,0,0,makieren,0,25,25,36,1
,,,,,00053,2023-10-20_19h54.13.113,vbt_B2_day3,2022.2.4,Linux x86_64,60.00960154,,,,,,,,,,,,,,,,,,,,schatten,images/br_schatten.png,images/cb_schatten.png,,schatten,,,,,,,,,,,0.089187214,-0.094897189,1,0,0,schatten,0,26,26,18,1
,,,,,00053,2023-10-20_19h54.13.113,vbt_B2_day3,2022.2.4,Linux x86_64,60.00960154,,,,,,,,,,,,,,,,,,,,booien,images/br_booien.png,images/cb_booien.png,,booeien,,,,,,,,,,,0.089187214,-0.094897189,1,0,0,booeien,0,27,27,31,1
,,,,,00053,2023-10-20_19h54.13.113,vbt_B2_day3,2022.2.4,Linux x86_64,60.00960154,,,,,,,,,,,,,,,,,,,,kwaas,images/br_kwaas.png,images/cb_kwaas.png,,kwaas,,,,,,,,,,,0.089187214,-0.094162668,1,0,0,kwaas,0,28,28,26,1
,,,,,00053,2023-10-20_19h54.13.113,vbt_B2_day3,2022.2.4,Linux x86_64,60.00960154,,,,,,,,,,,,,,,,,,,,geluid,images/br_geluid.png,images/cb_geluid.png,,geluid,,,,,,,,,,,0.089187214,-0.092510131,1,0,0,geluid,0,29,29,10,1
,,,,,00053,2023-10-20_19h54.13.113,vbt_B2_day3,2022.2.4,Linux x86_64,60.00960154,,,,,,,,,,,,,,,,,,,,prikken,images/br_prikken.png,images/cb_prikken.png,,prikken,,,,,,,,,,,0.089187214,-0.092510131,1,0,0,prikken,0,30,30,12,1
,,,,,00053,2023-10-20_19h54.13.113,vbt_B2_day3,2022.2.4,Linux x86_64,60.00960154,,,,,,,,,,,,,,,,,,,,theeting,images/br_theeting.png,images/cb_theeting.png,,theetas,,,,,,,,,,,0.089187214,-0.092510131,1,0,0,theetas,0,31,31,38,1
,,,,,00053,2023-10-20_19h54.13.113,vbt_B2_day3,2022.2.4,Linux x86_64,60.00960154,,,,,,,,,,,,,,,,,,,,laken,images/br_laken.png,images/cb_laken.png,,laken,,,,,,,,,,,0.003668563,-0.141997241,1,0,0,laken,0,32,32,5,1
,,,,,00053,2023-10-20_19h54.13.113,vbt_B2_day3,2022.2.4,Linux x86_64,60.00960154,,,,,,,,,,,,,,,,,,,,oprotten,images/br_oprotten.png,images/cb_oprotten.png,,oprotten,,,,,,,,,,,0.003668563,-0.141997241,1,0,0,oprotten,0,33,33,17,1
,,,,,00053,2023-10-20_19h54.13.113,vbt_B2_day3,2022.2.4,Linux x86_64,60.00960154,,,,,,,,,,,,,,,,,,,,opzetten,images/br_opzetten.png,images/cb_opzetten.png,,opzetten,,,,,,,,,,,0.003668563,-0.141997241,1,0,0,opzetten,0,34,34,56,1
,,,,,00053,2023-10-20_19h54.13.113,vbt_B2_day3,2022.2.4,Linux x86_64,60.00960154,,,,,,,,,,,,,,,,,,,,gebod,images/br_gebod.png,images/cb_gebod.png,,gebod,,,,,,,,,,,0.006422842,-0.140344705,1,0,0,gebod,0,35,35,45,1
,,,,,00053,2023-10-20_19h54.13.113,vbt_B2_day3,2022.2.4,Linux x86_64,60.00960154,,,,,,,,,,,,,,,,,,,,afbopen,images/br_afbopen.png,images/cb_afbopen.png,,afbopen,,,,,,,,,,,0.006422842,-0.140344705,1,0,0,afbopen,0,36,36,34,1
,,,,,00053,2023-10-20_19h54.13.113,vbt_B2_day3,2022.2.4,Linux x86_64,60.00960154,,,,,,,,,,,,,,,,,,,,verwoor,images/br_verwoor.png,images/cb_verwoor.png,,verwoor,,,,,,,,,,,0.006422842,-0.140344705,1,0,0,verwoor,0,37,37,32,1
,,,,,00053,2023-10-20_19h54.13.113,vbt_B2_day3,2022.2.4,Linux x86_64,60.00960154,,,,,,,,,,,,,,,,,,,,eens,images/br_eens.png,images/cb_eens.png,,eens,,,,,,,,,,,0.006422842,-0.140344705,1,0,0,eens,0,38,38,40,1
,,,,,00053,2023-10-20_19h54.13.113,vbt_B2_day3,2022.2.4,Linux x86_64,60.00960154,,,,,,,,,,,,,,,,,,,,vlager,images/br_vlager.png,images/cb_vlager.png,,vlager,,,,,,,,,,,0.006422842,-0.140344705,1,0,0,vlager,0,39,39,28,1
,,,,,00053,2023-10-20_19h54.13.113,vbt_B2_day3,2022.2.4,Linux x86_64,60.00960154,,,,,,,,,,,,,,,,,,,,bisschop,images/br_bisschop.png,images/cb_bisschop.png,,bisschop,,,,,,,,,,,0.006422842,-0.140344705,1,0,0,bisschop,0,40,40,16,1
,,,,,00053,2023-10-20_19h54.13.113,vbt_B2_day3,2022.2.4,Linux x86_64,60.00960154,,,,,,,,,,,,,,,,,,,,jongelui,images/br_jongelui.png,images/cb_jongelui.png,,jongelui,,,,,,,,,,,0.006422842,-0.140344705,1,0,0,jongelui,0,41,41,59,1
,,,,,00053,2023-10-20_19h54.13.113,vbt_B2_day3,2022.2.4,Linux x86_64,60.00960154,,,,,,,,,,,,,,,,,,,,zone,images/br_zone.png,images/cb_zone.png,,zone,,,,,,,,,,,0.006422842,-0.140344705,1,0,0,zone,0,42,42,41,1
,,,,,00053,2023-10-20_19h54.13.113,vbt_B2_day3,2022.2.4,Linux x86_64,60.00960154,,,,,,,,,,,,,,,,,,,,opzicht,images/br_opzicht.png,images/cb_opzicht.png,,opzicht,,,,,,,,,,,0.006422842,-0.140344705,1,0,0,opzicht,0,43,43,15,1
,,,,,00053,2023-10-20_19h54.13.113,vbt_B2_day3,2022.2.4,Linux x86_64,60.00960154,,,,,,,,,,,,,,,,,,,,verraden,images/br_verraden.png,images/cb_verraden.png,,verraden,,,,,,,,,,,0.006422842,-0.140344705,1,0,0,verraden,0,44,44,58,1
,,,,,00053,2023-10-20_19h54.13.113,vbt_B2_day3,2022.2.4,Linux x86_64,60.00960154,,,,,,,,,,,,,,,,,,,,stikken,images/br_stikken.png,images/cb_stikken.png,,stikken,,,,,,,,,,,0.006422842,-0.140344705,1,0,0,stikken,0,45,45,54,1
,,,,,00053,2023-10-20_19h54.13.113,vbt_B2_day3,2022.2.4,Linux x86_64,60.00960154,,,,,,,,,,,,,,,,,,,,kest,images/br_kest.png,images/cb_kest.png,,kest,,,,,,,,,,,0.006422842,-0.140344705,1,0,0,kest,0,46,46,21,1
,,,,,00053,2023-10-20_19h54.13.113,vbt_B2_day3,2022.2.4,Linux x86_64,60.00960154,,,,,,,,,,,,,,,,,,,,bevret,images/br_bevret.png,images/cb_bevret.png,,bevret,,,,,,,,,,,0.00275047,-0.140528316,1,0,0,bevret,0,47,47,30,1
,,,,,00053,2023-10-20_19h54.13.113,vbt_B2_day3,2022.2.4,Linux x86_64,60.00960154,,,,,,,,,,,,,,,,,,,,invallen,images/br_invallen.png,images/cb_invallen.png,,invallen,,,,,,,,,,,-0.151318515,-0.044763495,1,0,0,invallen,0,48,48,57,1
,,,,,00053,2023-10-20_19h54.13.113,vbt_B2_day3,2022.2.4,Linux x86_64,60.00960154,,,,,,,,,,,,,,,,,,,,dwang,images/br_dwang.png,images/cb_dwang.png,,dwang,,,,,,,,,,,-0.151318515,-0.044763495,1,0,0,dwang,0,49,49,47,1
,,,,,00053,2023-10-20_19h54.13.113,vbt_B2_day3,2022.2.4,Linux x86_64,60.00960154,,,,,,,,,,,,,,,,,,,,leek,images/br_leek.png,images/cb_leek.png,,leek,,,,,,,,,,,-0.151318515,-0.044763495,1,0,0,leek,0,50,50,2,1
,,,,,00053,2023-10-20_19h54.13.113,vbt_B2_day3,2022.2.4,Linux x86_64,60.00960154,,,,,,,,,,,,,,,,,,,,croo,images/br_croo.png,images/cb_croo.png,,croo,,,,,,,,,,,-0.151318515,-0.044763495,1,0,0,croo,0,51,51,22,1
,,,,,00053,2023-10-20_19h54.13.113,vbt_B2_day3,2022.2.4,Linux x86_64,60.00960154,,,,,,,,,,,,,,,,,,,,mugeek,images/br_mugeek.png,images/cb_mugeek.png,,mugeek,,,,,,,,,,,-0.151318515,-0.044763495,1,0,0,mugeek,0,52,52,29,1
,,,,,00053,2023-10-20_19h54.13.113,vbt_B2_day3,2022.2.4,Linux x86_64,60.00960154,,,,,,,,,,,,,,,,,,,,begrip,images/br_begrip.png,images/cb_begrip.png,,begrip,,,,,,,,,,,-0.151318515,-0.044763495,1,0,0,begrip,0,53,53,48,1
,,,,,00053,2023-10-20_19h54.13.113,vbt_B2_day3,2022.2.4,Linux x86_64,60.00960154,,,,,,,,,,,,,,,,,,,,paken,images/br_paken.png,images/cb_paken.png,,paken,,,,,,,,,,,-0.151318515,-0.044763495,1,0,0,paken,0,54,54,27,1
,,,,,00053,2023-10-20_19h54.13.113,vbt_B2_day3,2022.2.4,Linux x86_64,60.00960154,,,,,,,,,,,,,,,,,,,,onrecht,images/br_onrecht.png,images/cb_onrecht.png,,onrecht,,,,,,,,,,,-0.151318515,-0.044763495,1,0,0,onrecht,0,55,55,55,1
,,,,,00053,2023-10-20_19h54.13.113,vbt_B2_day3,2022.2.4,Linux x86_64,60.00960154,,,,,,,,,,,,,,,,,,,,aarzelen,images/br_aarzelen.png,images/cb_aarzelen.png,,aarnelen,,,,,,,,,,,-0.151318515,-0.044763495,1,0,0,aarnelen,0,56,56,19,1
,,,,,00053,2023-10-20_19h54.13.113,vbt_B2_day3,2022.2.4,Linux x86_64,60.00960154,,,,,,,,,,,,,,,,,,,,samen,images/br_samen.png,images/cb_samen.png,,samen,,,,,,,,,,,-0.14397377,-0.050822847,1,0,0,samen,0,57,57,7,1
,,,,,00053,2023-10-20_19h54.13.113,vbt_B2_day3,2022.2.4,Linux x86_64,60.00960154,,,,,,,,,,,,,,,,,,,,slapen,images/br_slapen.png,images/cb_slapen.png,,slapen,,,,,,,,,,,-0.137363701,-0.053209905,1,0,0,slapen,0,58,58,9,1
,,,,,00053,2023-10-20_19h54.13.113,vbt_B2_day3,2022.2.4,Linux x86_64,60.00960154,,,,,,,,,,,,,,,,,,,,knie,images/br_knie.png,images/cb_knie.png,,knie,,,,,,,,,,,-0.137363701,-0.053209905,1,0,0,knie,0,59,59,0,1
,,,,,00053,2023-10-20_19h54.13.113,vbt_B2_day3,2022.2.4,Linux x86_64,60.00960154,,,,,,,,,,,,,,,,,,,,,,,,,,,,,,,,,,,,,,,,,,,,,
