welcome_mouse.x,welcome_mouse.y,welcome_mouse.leftButton,welcome_mouse.midButton,welcome_mouse.rightButton,"ID",date,expName,psychopyVersion,OS,frameRate,trainInstr_mouse.x,trainInstr_mouse.y,trainInstr_mouse.leftButton,trainInstr_mouse.midButton,trainInstr_mouse.rightButton,translation_key.keys,translation_key.corr,translation_key.rt,word_rsp.text,trWrd_mouse.x,trWrd_mouse.y,trWrd_mouse.leftButton,trWrd_mouse.midButton,trWrd_mouse.rightButton,train_loop.thisRepN,train_loop.thisTrialN,train_loop.thisN,train_loop.thisIndex,train_loop.ran,nlWrd,brWrd,cbWrd,test,testResp,mouse.x,mouse.y,mouse.leftButton,mouse.midButton,mouse.rightButton,testInstr_mouse.x,testInstr_mouse.y,testInstr_mouse.leftButton,testInstr_mouse.midButton,testInstr_mouse.rightButton,test_mouse.x,test_mouse.y,test_mouse.leftButton,test_mouse.midButton,test_mouse.rightButton,test_response.text,test_loop.thisRepN,test_loop.thisTrialN,test_loop.thisN,test_loop.thisIndex,test_loop.ran
-0.175000014,-0.244444459,1,0,0,00113,2023-12-13_09h59.03.973,vbt_B2_day3,2022.2.4,Win32,61.40997298,,,,,,,,,,,,,,,,,,,,,,,,,,,,,,,,,,,,,,,,,,,,,
,,,,,00113,2023-12-13_09h59.03.973,vbt_B2_day3,2022.2.4,Win32,61.40997298,-0.065740727,-0.026851866,1,0,0,,,,,,,,,,,,,,,,,,,,,,,,,,,,,,,,,,,,,,,,
,,,,,00113,2023-12-13_09h59.03.973,vbt_B2_day3,2022.2.4,Win32,61.40997298,,,,,,down,0,4.0055,,-0.065740727,-0.026851866,1,0,0,0,0,0,17,1,taal,images/br_taal.png,images/cb_taal.png,0,,,,,,,,,,,,,,,,,,,,,,
,,,,,00113,2023-12-13_09h59.03.973,vbt_B2_day3,2022.2.4,Win32,61.40997298,,,,,,down,0,14.7428,,-0.065740727,-0.026851866,1,0,0,0,1,1,172,1,weigeren,images/br_weigeren.png,images/cb_weigeren.png,0,,,,,,,,,,,,,,,,,,,,,,
,,,,,00113,2023-12-13_09h59.03.973,vbt_B2_day3,2022.2.4,Win32,61.40997298,,,,,,down,0,2.2646,,-0.065740727,-0.026851866,1,0,0,0,2,2,89,1,slapen,images/br_slapen.png,images/cb_slapen.png,0,,,,,,,,,,,,,,,,,,,,,,
,,,,,00113,2023-12-13_09h59.03.973,vbt_B2_day3,2022.2.4,Win32,61.40997298,,,,,,down,0,4.5341,,-0.065740727,-0.026851866,1,0,0,0,3,3,118,1,vinger,images/br_vinger.png,images/cb_vinger.png,0,,,,,,,,,,,,,,,,,,,,,,
,,,,,00113,2023-12-13_09h59.03.973,vbt_B2_day3,2022.2.4,Win32,61.40997298,,,,,,down,0,6.7596,,-0.065740727,-0.027777778,1,0,0,0,4,4,159,1,sufferd,images/br_sufferd.png,images/cb_sufferd.png,0,,,,,,,,,,,,,,,,,,,,,,
,,,,,00113,2023-12-13_09h59.03.973,vbt_B2_day3,2022.2.4,Win32,61.40997298,,,,,,down,0,4.3167,,-0.065740727,-0.027777778,1,0,0,0,5,5,19,1,geit,images/br_geit.png,images/cb_geit.png,0,,,,,,,,,,,,,,,,,,,,,,
,,,,,00113,2023-12-13_09h59.03.973,vbt_B2_day3,2022.2.4,Win32,61.40997298,,,,,,down,0,4.5657,,-0.065740727,-0.027777778,1,0,0,0,6,6,69,1,waken,images/br_waken.png,images/cb_waken.png,0,,,,,,,,,,,,,,,,,,,,,,
,,,,,00113,2023-12-13_09h59.03.973,vbt_B2_day3,2022.2.4,Win32,61.40997298,,,,,,down,0,12.4067,,-0.065740727,-0.027777778,1,0,0,0,7,7,164,1,anarchie,images/br_anarchie.png,images/cb_anarchie.png,0,,,,,,,,,,,,,,,,,,,,,,
,,,,,00113,2023-12-13_09h59.03.973,vbt_B2_day3,2022.2.4,Win32,61.40997298,,,,,,down,0,6.1794,,-0.065740727,-0.027777778,1,0,0,0,8,8,128,1,prikken,images/br_prikken.png,images/cb_prikken.png,0,,,,,,,,,,,,,,,,,,,,,,
,,,,,00113,2023-12-13_09h59.03.973,vbt_B2_day3,2022.2.4,Win32,61.40997298,,,,,,down,0,0.5846,,-0.065740727,-0.027777778,1,0,0,0,9,9,48,1,steel,images/br_steel.png,images/cb_steel.png,0,,,,,,,,,,,,,,,,,,,,,,
,,,,,00113,2023-12-13_09h59.03.973,vbt_B2_day3,2022.2.4,Win32,61.40997298,,,,,,down,0,4.0849,,-0.065740727,-0.027777778,1,0,0,0,10,10,169,1,oprotten,images/br_oprotten.png,images/cb_oprotten.png,0,,,,,,,,,,,,,,,,,,,,,,
,,,,,00113,2023-12-13_09h59.03.973,vbt_B2_day3,2022.2.4,Win32,61.40997298,,,,,,down,0,2.3725,,-0.065740727,-0.027777778,1,0,0,0,11,11,129,1,verhaal,images/br_verhaal.png,images/cb_verhaal.png,0,,,,,,,,,,,,,,,,,,,,,,
,,,,,00113,2023-12-13_09h59.03.973,vbt_B2_day3,2022.2.4,Win32,61.40997298,,,,,,down,0,0.8845,,-0.065740727,-0.027777778,1,0,0,0,12,12,96,1,slagen,images/br_slagen.png,images/cb_slagen.png,0,,,,,,,,,,,,,,,,,,,,,,
,,,,,00113,2023-12-13_09h59.03.973,vbt_B2_day3,2022.2.4,Win32,61.40997298,,,,,,down,0,1.9241,,-0.065740727,-0.027777778,1,0,0,0,13,13,120,1,klimmen,images/br_klimmen.png,images/cb_klimmen.png,0,,,,,,,,,,,,,,,,,,,,,,
,,,,,00113,2023-12-13_09h59.03.973,vbt_B2_day3,2022.2.4,Win32,61.40997298,,,,,,down,0,4.38,,-0.065740727,-0.027777778,1,0,0,0,14,14,162,1,uitdelen,images/br_uitdelen.png,images/cb_uitdelen.png,0,,,,,,,,,,,,,,,,,,,,,,
,,,,,00113,2023-12-13_09h59.03.973,vbt_B2_day3,2022.2.4,Win32,61.40997298,,,,,,down,0,10.4805,,-0.064814815,-0.291666667,1,0,0,0,15,15,103,1,joggen,images/br_joggen.png,images/cb_joggen.png,1,joggen,,,,,,,,,,,,,,,,,,,,,
,,,,,00113,2023-12-13_09h59.03.973,vbt_B2_day3,2022.2.4,Win32,61.40997298,,,,,,down,0,5.1133,,-0.07222218,-0.131481524,1,0,0,0,16,16,115,1,kleren,images/br_kleren.png,images/cb_kleren.png,0,,,,,,,,,,,,,,,,,,,,,,
,,,,,00113,2023-12-13_09h59.03.973,vbt_B2_day3,2022.2.4,Win32,61.40997298,,,,,,down,0,3.1376,,-0.07222218,-0.131481524,1,0,0,0,17,17,10,1,leek,images/br_leek.png,images/cb_leek.png,0,,,,,,,,,,,,,,,,,,,,,,
,,,,,00113,2023-12-13_09h59.03.973,vbt_B2_day3,2022.2.4,Win32,61.40997298,,,,,,down,0,9.3107,,-0.07222218,-0.131481524,1,0,0,0,18,18,76,1,afval,images/br_afval.png,images/cb_afval.png,0,,,,,,,,,,,,,,,,,,,,,,
,,,,,00113,2023-12-13_09h59.03.973,vbt_B2_day3,2022.2.4,Win32,61.40997298,,,,,,down,0,3.1231,,-0.07222218,-0.131481524,1,0,0,0,19,19,84,1,lokken,images/br_lokken.png,images/cb_lokken.png,0,,,,,,,,,,,,,,,,,,,,,,
,,,,,00113,2023-12-13_09h59.03.973,vbt_B2_day3,2022.2.4,Win32,61.40997298,,,,,,down,0,3.7527,,-0.07222218,-0.131481524,1,0,0,0,20,20,70,1,ijdel,images/br_ijdel.png,images/cb_ijdel.png,0,,,,,,,,,,,,,,,,,,,,,,
,,,,,00113,2023-12-13_09h59.03.973,vbt_B2_day3,2022.2.4,Win32,61.40997298,,,,,,down,0,4.19,,-0.07222218,-0.131481524,1,0,0,0,21,21,136,1,waarbij,images/br_waarbij.png,images/cb_waarbij.png,0,,,,,,,,,,,,,,,,,,,,,,
,,,,,00113,2023-12-13_09h59.03.973,vbt_B2_day3,2022.2.4,Win32,61.40997298,,,,,,down,0,6.3293,,-0.07222218,-0.131481524,1,0,0,0,22,22,47,1,kabel,images/br_kabel.png,images/cb_kabel.png,0,,,,,,,,,,,,,,,,,,,,,,
,,,,,00113,2023-12-13_09h59.03.973,vbt_B2_day3,2022.2.4,Win32,61.40997298,,,,,,down,0,11.6207,,-0.065740727,-0.0074074,1,0,0,0,23,23,155,1,gerucht,images/br_gerucht.png,images/cb_gerucht.png,0,,,,,,,,,,,,,,,,,,,,,,
,,,,,00113,2023-12-13_09h59.03.973,vbt_B2_day3,2022.2.4,Win32,61.40997298,,,,,,down,0,6.2341,,-0.065740727,-0.0074074,1,0,0,0,24,24,127,1,doodmoe,images/br_doodmoe.png,images/cb_doodmoe.png,0,,,,,,,,,,,,,,,,,,,,,,
,,,,,00113,2023-12-13_09h59.03.973,vbt_B2_day3,2022.2.4,Win32,61.40997298,,,,,,down,0,0.734,,-0.065740727,-0.0074074,1,0,0,0,25,25,125,1,aanzien,images/br_aanzien.png,images/cb_aanzien.png,0,,,,,,,,,,,,,,,,,,,,,,
,,,,,00113,2023-12-13_09h59.03.973,vbt_B2_day3,2022.2.4,Win32,61.40997298,,,,,,down,0,4.9974,,-0.065740727,-0.0074074,1,0,0,0,26,26,116,1,besmet,images/br_besmet.png,images/cb_besmet.png,0,,,,,,,,,,,,,,,,,,,,,,
,,,,,00113,2023-12-13_09h59.03.973,vbt_B2_day3,2022.2.4,Win32,61.40997298,,,,,,down,0,4.1164,,-0.065740727,-0.0074074,1,0,0,0,27,27,5,1,blad,images/br_blad.png,images/cb_blad.png,0,,,,,,,,,,,,,,,,,,,,,,
,,,,,00113,2023-12-13_09h59.03.973,vbt_B2_day3,2022.2.4,Win32,61.40997298,,,,,,down,0,4.503,,-0.065740727,-0.0074074,1,0,0,0,28,28,189,1,aanraden,images/br_aanraden.png,images/cb_aanraden.png,0,,,,,,,,,,,,,,,,,,,,,,
,,,,,00113,2023-12-13_09h59.03.973,vbt_B2_day3,2022.2.4,Win32,61.40997298,,,,,,down,0,1.4072,,-0.065740727,-0.0074074,1,0,0,0,29,29,21,1,mist,images/br_mist.png,images/cb_mist.png,1,mist,,,,,,,,,,,,,,,,,,,,,
,,,,,00113,2023-12-13_09h59.03.973,vbt_B2_day3,2022.2.4,Win32,61.40997298,,,,,,down,0,2.9364,,-0.065740727,-0.0074074,1,0,0,0,30,30,20,1,site,images/br_site.png,images/cb_site.png,1,site,,,,,,,,,,,,,,,,,,,,,
,,,,,00113,2023-12-13_09h59.03.973,vbt_B2_day3,2022.2.4,Win32,61.40997298,,,,,,down,0,7.13,,-0.059259273,-0.0074074,1,0,0,0,31,31,63,1,flirt,images/br_flirt.png,images/cb_flirt.png,1,flirt,,,,,,,,,,,,,,,,,,,,,
,,,,,00113,2023-12-13_09h59.03.973,vbt_B2_day3,2022.2.4,Win32,61.40997298,,,,,,down,0,4.7216,,-0.059259273,-0.0074074,1,0,0,0,32,32,8,1,knie,images/br_knie.png,images/cb_knie.png,0,,,,,,,,,,,,,,,,,,,,,,
,,,,,00113,2023-12-13_09h59.03.973,vbt_B2_day3,2022.2.4,Win32,61.40997298,,,,,,down,0,3.9794,,-0.059259273,-0.0074074,1,0,0,0,33,33,102,1,legaal,images/br_legaal.png,images/cb_legaal.png,1,legaal,,,,,,,,,,,,,,,,,,,,,
,,,,,00113,2023-12-13_09h59.03.973,vbt_B2_day3,2022.2.4,Win32,61.40997298,,,,,,down,0,12.8295,,-0.059259273,-0.043518526,1,0,0,0,34,34,30,1,uien,images/br_uien.png,images/cb_uien.png,0,,,,,,,,,,,,,,,,,,,,,,
,,,,,00113,2023-12-13_09h59.03.973,vbt_B2_day3,2022.2.4,Win32,61.40997298,,,,,,down,0,9.8143,,-0.059259273,-0.043518526,1,0,0,0,35,35,141,1,knielen,images/br_knielen.png,images/cb_knielen.png,1,knielen,,,,,,,,,,,,,,,,,,,,,
,,,,,00113,2023-12-13_09h59.03.973,vbt_B2_day3,2022.2.4,Win32,61.40997298,,,,,,down,0,5.2639,,-0.059259273,-0.043518526,1,0,0,0,36,36,145,1,invloed,images/br_invloed.png,images/cb_invloed.png,0,,,,,,,,,,,,,,,,,,,,,,
,,,,,00113,2023-12-13_09h59.03.973,vbt_B2_day3,2022.2.4,Win32,61.40997298,,,,,,down,0,4.0817,,-0.059259273,-0.043518526,1,0,0,0,37,37,43,1,klauw,images/br_klauw.png,images/cb_klauw.png,0,,,,,,,,,,,,,,,,,,,,,,
,,,,,00113,2023-12-13_09h59.03.973,vbt_B2_day3,2022.2.4,Win32,61.40997298,,,,,,down,0,6.6287,,-0.059259273,-0.043518526,1,0,0,0,38,38,93,1,waarop,images/br_waarop.png,images/cb_waarop.png,0,,,,,,,,,,,,,,,,,,,,,,
,,,,,00113,2023-12-13_09h59.03.973,vbt_B2_day3,2022.2.4,Win32,61.40997298,,,,,,down,0,2.1177,,-0.059259273,-0.043518526,1,0,0,0,39,39,121,1,twijfel,images/br_twijfel.png,images/cb_twijfel.png,0,,,,,,,,,,,,,,,,,,,,,,
,,,,,00113,2023-12-13_09h59.03.973,vbt_B2_day3,2022.2.4,Win32,61.40997298,,,,,,down,0,9.6584,,-0.059259273,-0.043518526,1,0,0,0,40,40,59,1,kring,images/br_kring.png,images/cb_kring.png,0,,,,,,,,,,,,,,,,,,,,,,
,,,,,00113,2023-12-13_09h59.03.973,vbt_B2_day3,2022.2.4,Win32,61.40997298,,,,,,down,0,1.7828,,-0.059259273,-0.043518526,1,0,0,0,41,41,110,1,zuster,images/br_zuster.png,images/cb_zuster.png,0,,,,,,,,,,,,,,,,,,,,,,
,,,,,00113,2023-12-13_09h59.03.973,vbt_B2_day3,2022.2.4,Win32,61.40997298,,,,,,down,0,0.5516,,-0.059259273,-0.043518526,1,0,0,0,42,42,35,1,lust,images/br_lust.png,images/cb_lust.png,0,,,,,,,,,,,,,,,,,,,,,,
,,,,,00113,2023-12-13_09h59.03.973,vbt_B2_day3,2022.2.4,Win32,61.40997298,,,,,,down,0,2.6112,,-0.059259273,-0.043518526,1,0,0,0,43,43,32,1,palm,images/br_palm.png,images/cb_palm.png,0,,,,,,,,,,,,,,,,,,,,,,
,,,,,00113,2023-12-13_09h59.03.973,vbt_B2_day3,2022.2.4,Win32,61.40997298,,,,,,down,0,1.0999,,-0.059259273,-0.043518526,1,0,0,0,44,44,144,1,eetlust,images/br_eetlust.png,images/cb_eetlust.png,0,,,,,,,,,,,,,,,,,,,,,,
,,,,,00113,2023-12-13_09h59.03.973,vbt_B2_day3,2022.2.4,Win32,61.40997298,,,,,,down,0,3.7843,,-0.059259273,-0.043518526,1,0,0,0,45,45,22,1,stof,images/br_stof.png,images/cb_stof.png,1,stof,,,,,,,,,,,,,,,,,,,,,
,,,,,00113,2023-12-13_09h59.03.973,vbt_B2_day3,2022.2.4,Win32,61.40997298,,,,,,down,0,6.8189,,-0.059259273,-0.043518526,1,0,0,0,46,46,199,1,beseffen,images/br_beseffen.png,images/cb_beseffen.png,0,,,,,,,,,,,,,,,,,,,,,,
,,,,,00113,2023-12-13_09h59.03.973,vbt_B2_day3,2022.2.4,Win32,61.40997298,,,,,,down,0,3.1652,,-0.059259273,-0.043518526,1,0,0,0,47,47,56,1,traag,images/br_traag.png,images/cb_traag.png,0,,,,,,,,,,,,,,,,,,,,,,
,,,,,00113,2023-12-13_09h59.03.973,vbt_B2_day3,2022.2.4,Win32,61.40997298,,,,,,down,0,6.5132,,-0.059259273,-0.043518526,1,0,0,0,48,48,124,1,bloeien,images/br_bloeien.png,images/cb_bloeien.png,0,,,,,,,,,,,,,,,,,,,,,,
,,,,,00113,2023-12-13_09h59.03.973,vbt_B2_day3,2022.2.4,Win32,61.40997298,,,,,,down,0,4.8466,,-0.059259273,-0.043518526,1,0,0,0,49,49,75,1,snoep,images/br_snoep.png,images/cb_snoep.png,0,,,,,,,,,,,,,,,,,,,,,,
,,,,,00113,2023-12-13_09h59.03.973,vbt_B2_day3,2022.2.4,Win32,61.40997298,,,,,,down,0,0.8576,,-0.059259273,-0.044444437,1,0,0,0,50,50,31,1,poes,images/br_poes.png,images/cb_poes.png,0,,,,,,,,,,,,,,,,,,,,,,
,,,,,00113,2023-12-13_09h59.03.973,vbt_B2_day3,2022.2.4,Win32,61.40997298,,,,,,down,0,33.469,,-0.062037009,-0.044444437,1,0,0,0,51,51,117,1,kennis,images/br_kennis.png,images/cb_kennis.png,0,,,,,,,,,,,,,,,,,,,,,,
,,,,,00113,2023-12-13_09h59.03.973,vbt_B2_day3,2022.2.4,Win32,61.40997298,,,,,,down,0,2.2822,,-0.062037009,-0.044444437,1,0,0,0,52,52,33,1,vlek,images/br_vlek.png,images/cb_vlek.png,0,,,,,,,,,,,,,,,,,,,,,,
,,,,,00113,2023-12-13_09h59.03.973,vbt_B2_day3,2022.2.4,Win32,61.40997298,,,,,,down,0,2.267,,-0.062037009,-0.044444437,1,0,0,0,53,53,122,1,waarvan,images/br_waarvan.png,images/cb_waarvan.png,0,,,,,,,,,,,,,,,,,,,,,,
,,,,,00113,2023-12-13_09h59.03.973,vbt_B2_day3,2022.2.4,Win32,61.40997298,,,,,,down,0,3.7798,,-0.062037009,-0.044444437,1,0,0,0,54,54,4,1,moes,images/br_moes.png,images/cb_moes.png,0,,,,,,,,,,,,,,,,,,,,,,
,,,,,00113,2023-12-13_09h59.03.973,vbt_B2_day3,2022.2.4,Win32,61.40997298,,,,,,down,0,8.6859,,-0.062037009,-0.044444437,1,0,0,0,55,55,94,1,oceaan,images/br_oceaan.png,images/cb_oceaan.png,0,,,,,,,,,,,,,,,,,,,,,,
,,,,,00113,2023-12-13_09h59.03.973,vbt_B2_day3,2022.2.4,Win32,61.40997298,,,,,,down,0,2.636,,-0.062037009,-0.044444437,1,0,0,0,56,56,6,1,diep,images/br_diep.png,images/cb_diep.png,0,,,,,,,,,,,,,,,,,,,,,,
,,,,,00113,2023-12-13_09h59.03.973,vbt_B2_day3,2022.2.4,Win32,61.40997298,,,,,,down,0,2.9222,,-0.062037009,-0.044444437,1,0,0,0,57,57,197,1,spanning,images/br_spanning.png,images/cb_spanning.png,0,,,,,,,,,,,,,,,,,,,,,,
,,,,,00113,2023-12-13_09h59.03.973,vbt_B2_day3,2022.2.4,Win32,61.40997298,,,,,,down,0,3.0998,,-0.062037009,-0.044444437,1,0,0,0,58,58,74,1,graaf,images/br_graaf.png,images/cb_graaf.png,0,,,,,,,,,,,,,,,,,,,,,,
,,,,,00113,2023-12-13_09h59.03.973,vbt_B2_day3,2022.2.4,Win32,61.40997298,,,,,,down,0,0.3369,,-0.062037009,-0.044444437,1,0,0,0,59,59,28,1,stal,images/br_stal.png,images/cb_stal.png,0,,,,,,,,,,,,,,,,,,,,,,
,,,,,00113,2023-12-13_09h59.03.973,vbt_B2_day3,2022.2.4,Win32,61.40997298,,,,,,down,0,0.9379,,-0.062037009,-0.044444437,1,0,0,0,60,60,148,1,smullen,images/br_smullen.png,images/cb_smullen.png,0,,,,,,,,,,,,,,,,,,,,,,
,,,,,00113,2023-12-13_09h59.03.973,vbt_B2_day3,2022.2.4,Win32,61.40997298,,,,,,down,0,2.3164,,-0.062037009,-0.044444437,1,0,0,0,61,61,64,1,wegen,images/br_wegen.png,images/cb_wegen.png,0,,,,,,,,,,,,,,,,,,,,,,
,,,,,00113,2023-12-13_09h59.03.973,vbt_B2_day3,2022.2.4,Win32,61.40997298,,,,,,down,0,2.7485,,-0.062037009,-0.044444437,1,0,0,0,62,62,192,1,schaamte,images/br_schaamte.png,images/cb_schaamte.png,0,,,,,,,,,,,,,,,,,,,,,,
,,,,,00113,2023-12-13_09h59.03.973,vbt_B2_day3,2022.2.4,Win32,61.40997298,,,,,,down,0,3.6865,,-0.062037009,-0.044444437,1,0,0,0,63,63,193,1,weeshuis,images/br_weeshuis.png,images/cb_weeshuis.png,0,,,,,,,,,,,,,,,,,,,,,,
,,,,,00113,2023-12-13_09h59.03.973,vbt_B2_day3,2022.2.4,Win32,61.40997298,,,,,,down,0,1.5855,,-0.062037009,-0.044444437,1,0,0,0,64,64,15,1,soda,images/br_soda.png,images/cb_soda.png,0,,,,,,,,,,,,,,,,,,,,,,
,,,,,00113,2023-12-13_09h59.03.973,vbt_B2_day3,2022.2.4,Win32,61.40997298,,,,,,down,0,1.3339,,-0.062037009,-0.044444437,1,0,0,0,65,65,114,1,vullen,images/br_vullen.png,images/cb_vullen.png,0,,,,,,,,,,,,,,,,,,,,,,
,,,,,00113,2023-12-13_09h59.03.973,vbt_B2_day3,2022.2.4,Win32,61.40997298,,,,,,down,0,3.0325,,-0.062037009,-0.044444437,1,0,0,0,66,66,126,1,kasteel,images/br_kasteel.png,images/cb_kasteel.png,0,,,,,,,,,,,,,,,,,,,,,,
,,,,,00113,2023-12-13_09h59.03.973,vbt_B2_day3,2022.2.4,Win32,61.40997298,,,,,,down,0,3.6473,,-0.062037009,-0.044444437,1,0,0,0,67,67,23,1,zout,images/br_zout.png,images/cb_zout.png,1,zout,,,,,,,,,,,,,,,,,,,,,
,,,,,00113,2023-12-13_09h59.03.973,vbt_B2_day3,2022.2.4,Win32,61.40997298,,,,,,down,0,1.9,,-0.062037009,-0.044444437,1,0,0,0,68,68,9,1,hier,images/br_hier.png,images/cb_hier.png,0,,,,,,,,,,,,,,,,,,,,,,
,,,,,00113,2023-12-13_09h59.03.973,vbt_B2_day3,2022.2.4,Win32,61.40997298,,,,,,down,0,0.1687,,-0.062037009,-0.044444437,1,0,0,0,69,69,97,1,loyaal,images/br_loyaal.png,images/cb_loyaal.png,0,,,,,,,,,,,,,,,,,,,,,,
,,,,,00113,2023-12-13_09h59.03.973,vbt_B2_day3,2022.2.4,Win32,61.40997298,,,,,,down,0,0.8155,,-0.062037009,-0.044444437,1,0,0,0,70,70,139,1,stiekem,images/br_stiekem.png,images/cb_stiekem.png,0,,,,,,,,,,,,,,,,,,,,,,
,,,,,00113,2023-12-13_09h59.03.973,vbt_B2_day3,2022.2.4,Win32,61.40997298,,,,,,down,0,4.7978,,-0.062037009,-0.044444437,1,0,0,0,71,71,187,1,opkijken,images/br_opkijken.png,images/cb_opkijken.png,0,,,,,,,,,,,,,,,,,,,,,,
,,,,,00113,2023-12-13_09h59.03.973,vbt_B2_day3,2022.2.4,Win32,61.40997298,,,,,,down,0,2.6185,,-0.062037009,-0.044444437,1,0,0,0,72,72,54,1,gebit,images/br_gebit.png,images/cb_gebit.png,0,,,,,,,,,,,,,,,,,,,,,,
,,,,,00113,2023-12-13_09h59.03.973,vbt_B2_day3,2022.2.4,Win32,61.40997298,,,,,,down,0,2.0386,,-0.062037009,-0.044444437,1,0,0,0,73,73,44,1,flits,images/br_flits.png,images/cb_flits.png,0,,,,,,,,,,,,,,,,,,,,,,
,,,,,00113,2023-12-13_09h59.03.973,vbt_B2_day3,2022.2.4,Win32,61.40997298,,,,,,down,0,1.8332,,-0.062037009,-0.044444437,1,0,0,0,74,74,36,1,vuur,images/br_vuur.png,images/cb_vuur.png,0,,,,,,,,,,,,,,,,,,,,,,
,,,,,00113,2023-12-13_09h59.03.973,vbt_B2_day3,2022.2.4,Win32,61.40997298,,,,,,down,0,3.4534,,-0.062037009,-0.044444437,1,0,0,0,75,75,7,1,geld,images/br_geld.png,images/cb_geld.png,0,,,,,,,,,,,,,,,,,,,,,,
,,,,,00113,2023-12-13_09h59.03.973,vbt_B2_day3,2022.2.4,Win32,61.40997298,,,,,,down,0,5.0307,,-0.062037009,-0.044444437,1,0,0,0,76,76,191,1,opheffen,images/br_opheffen.png,images/cb_opheffen.png,0,,,,,,,,,,,,,,,,,,,,,,
,,,,,00113,2023-12-13_09h59.03.973,vbt_B2_day3,2022.2.4,Win32,61.40997298,,,,,,down,0,5.1292,,-0.062037009,-0.044444437,1,0,0,0,77,77,143,1,hechten,images/br_hechten.png,images/cb_hechten.png,1,hechten,,,,,,,,,,,,,,,,,,,,,
,,,,,00113,2023-12-13_09h59.03.973,vbt_B2_day3,2022.2.4,Win32,61.40997298,,,,,,down,0,6.2047,,-0.062037009,-0.044444437,1,0,0,0,78,78,16,1,ziek,images/br_ziek.png,images/cb_ziek.png,0,,,,,,,,,,,,,,,,,,,,,,
,,,,,00113,2023-12-13_09h59.03.973,vbt_B2_day3,2022.2.4,Win32,61.40997298,,,,,,down,0,3.9307,,-0.062037009,-0.044444437,1,0,0,0,79,79,86,1,woning,images/br_woning.png,images/cb_woning.png,0,,,,,,,,,,,,,,,,,,,,,,
,,,,,00113,2023-12-13_09h59.03.973,vbt_B2_day3,2022.2.4,Win32,61.40997298,,,,,,down,0,3.7186,,-0.062037009,-0.044444437,1,0,0,0,80,80,37,1,mijn,images/br_mijn.png,images/cb_mijn.png,0,,,,,,,,,,,,,,,,,,,,,,
,,,,,00113,2023-12-13_09h59.03.973,vbt_B2_day3,2022.2.4,Win32,61.40997298,,,,,,down,0,2.2497,,-0.062037009,-0.044444437,1,0,0,0,81,81,49,1,laken,images/br_laken.png,images/cb_laken.png,0,,,,,,,,,,,,,,,,,,,,,,
,,,,,00113,2023-12-13_09h59.03.973,vbt_B2_day3,2022.2.4,Win32,61.40997298,,,,,,down,0,7.3649,,-0.062037009,-0.044444437,1,0,0,0,82,82,87,1,toeval,images/br_toeval.png,images/cb_toeval.png,0,,,,,,,,,,,,,,,,,,,,,,
,,,,,00113,2023-12-13_09h59.03.973,vbt_B2_day3,2022.2.4,Win32,61.40997298,,,,,,down,0,3.2481,,-0.062037009,-0.044444437,1,0,0,0,83,83,156,1,rechten,images/br_rechten.png,images/cb_rechten.png,0,,,,,,,,,,,,,,,,,,,,,,
,,,,,00113,2023-12-13_09h59.03.973,vbt_B2_day3,2022.2.4,Win32,61.40997298,,,,,,down,0,0.7067,,-0.062037009,-0.044444437,1,0,0,0,84,84,153,1,vervoer,images/br_vervoer.png,images/cb_vervoer.png,0,,,,,,,,,,,,,,,,,,,,,,
,,,,,00113,2023-12-13_09h59.03.973,vbt_B2_day3,2022.2.4,Win32,61.40997298,,,,,,down,0,2.0045,,-0.062037009,-0.044444437,1,0,0,0,85,85,112,1,lukken,images/br_lukken.png,images/cb_lukken.png,0,,,,,,,,,,,,,,,,,,,,,,
,,,,,00113,2023-12-13_09h59.03.973,vbt_B2_day3,2022.2.4,Win32,61.40997298,,,,,,down,0,1.1501,,-0.062037009,-0.044444437,1,0,0,0,86,86,147,1,komisch,images/br_komisch.png,images/cb_komisch.png,0,,,,,,,,,,,,,,,,,,,,,,
,,,,,00113,2023-12-13_09h59.03.973,vbt_B2_day3,2022.2.4,Win32,61.40997298,,,,,,down,0,11.8758,,-0.062037009,-0.044444437,1,0,0,0,87,87,61,1,groen,images/br_groen.png,images/cb_groen.png,1,groen,,,,,,,,,,,,,,,,,,,,,
,,,,,00113,2023-12-13_09h59.03.973,vbt_B2_day3,2022.2.4,Win32,61.40997298,,,,,,down,0,0.509,,-0.063888903,-0.048148155,1,0,0,0,88,88,133,1,seizoen,images/br_seizoen.png,images/cb_seizoen.png,0,,,,,,,,,,,,,,,,,,,,,,
,,,,,00113,2023-12-13_09h59.03.973,vbt_B2_day3,2022.2.4,Win32,61.40997298,,,,,,down,0,4.6634,,-0.063888903,-0.048148155,1,0,0,0,89,89,190,1,goedkoop,images/br_goedkoop.png,images/cb_goedkoop.png,0,,,,,,,,,,,,,,,,,,,,,,
,,,,,00113,2023-12-13_09h59.03.973,vbt_B2_day3,2022.2.4,Win32,61.40997298,,,,,,down,0,5.863,,-0.063888903,-0.048148155,1,0,0,0,90,90,181,1,toegeven,images/br_toegeven.png,images/cb_toegeven.png,1,toegeven,,,,,,,,,,,,,,,,,,,,,
,,,,,00113,2023-12-13_09h59.03.973,vbt_B2_day3,2022.2.4,Win32,61.40997298,,,,,,down,0,3.3003,,-0.063888903,-0.048148155,1,0,0,0,91,91,174,1,stemming,images/br_stemming.png,images/cb_stemming.png,0,,,,,,,,,,,,,,,,,,,,,,
,,,,,00113,2023-12-13_09h59.03.973,vbt_B2_day3,2022.2.4,Win32,61.40997298,,,,,,down,0,2.3057,,-0.063888903,-0.048148155,1,0,0,0,92,92,132,1,grappen,images/br_grappen.png,images/cb_grappen.png,0,,,,,,,,,,,,,,,,,,,,,,
,,,,,00113,2023-12-13_09h59.03.973,vbt_B2_day3,2022.2.4,Win32,61.40997298,,,,,,down,0,4.2173,,-0.063888903,-0.048148155,1,0,0,0,93,93,77,1,woede,images/br_woede.png,images/cb_woede.png,0,,,,,,,,,,,,,,,,,,,,,,
,,,,,00113,2023-12-13_09h59.03.973,vbt_B2_day3,2022.2.4,Win32,61.40997298,,,,,,down,0,4.4368,,-0.063888903,-0.048148155,1,0,0,0,94,94,107,1,maling,images/br_maling.png,images/cb_maling.png,0,,,,,,,,,,,,,,,,,,,,,,
,,,,,00113,2023-12-13_09h59.03.973,vbt_B2_day3,2022.2.4,Win32,61.40997298,,,,,,down,0,3.78,,-0.063888903,-0.048148155,1,0,0,0,95,95,161,1,attentie,images/br_attentie.png,images/cb_attentie.png,0,,,,,,,,,,,,,,,,,,,,,,
,,,,,00113,2023-12-13_09h59.03.973,vbt_B2_day3,2022.2.4,Win32,61.40997298,,,,,,down,0,1.6672,,-0.064814815,-0.049074067,1,0,0,0,96,96,113,1,koppen,images/br_koppen.png,images/cb_koppen.png,0,,,,,,,,,,,,,,,,,,,,,,
,,,,,00113,2023-12-13_09h59.03.973,vbt_B2_day3,2022.2.4,Win32,61.40997298,,,,,,down,0,3.6823,,-0.064814815,-0.049074067,1,0,0,0,97,97,105,1,wijlen,images/br_wijlen.png,images/cb_wijlen.png,0,,,,,,,,,,,,,,,,,,,,,,
,,,,,00113,2023-12-13_09h59.03.973,vbt_B2_day3,2022.2.4,Win32,61.40997298,,,,,,down,0,6.5284,,-0.064814815,-0.049074067,1,0,0,0,98,98,173,1,apparaat,images/br_apparaat.png,images/cb_apparaat.png,0,,,,,,,,,,,,,,,,,,,,,,
,,,,,00113,2023-12-13_09h59.03.973,vbt_B2_day3,2022.2.4,Win32,61.40997298,,,,,,down,0,0.9572,,-0.06759255,-0.053703697,1,0,0,0,99,99,11,1,mode,images/br_mode.png,images/cb_mode.png,0,,,,,,,,,,,,,,,,,,,,,,
,,,,,00113,2023-12-13_09h59.03.973,vbt_B2_day3,2022.2.4,Win32,61.40997298,,,,,,down,0,0.5672,,-0.06759255,-0.053703697,1,0,0,0,100,100,52,1,wagon,images/br_wagon.png,images/cb_wagon.png,0,,,,,,,,,,,,,,,,,,,,,,
,,,,,00113,2023-12-13_09h59.03.973,vbt_B2_day3,2022.2.4,Win32,61.40997298,,,,,,down,0,5.0154,,-0.06759255,-0.053703697,1,0,0,0,101,101,171,1,aarzelen,images/br_aarzelen.png,images/cb_aarzelen.png,0,,,,,,,,,,,,,,,,,,,,,,
,,,,,00113,2023-12-13_09h59.03.973,vbt_B2_day3,2022.2.4,Win32,61.40997298,,,,,,down,0,5.6656,,-0.06759255,-0.053703697,1,0,0,0,102,102,168,1,bisschop,images/br_bisschop.png,images/cb_bisschop.png,0,,,,,,,,,,,,,,,,,,,,,,
,,,,,00113,2023-12-13_09h59.03.973,vbt_B2_day3,2022.2.4,Win32,61.40997298,,,,,,down,0,5.5645,,-0.06759255,-0.053703697,1,0,0,0,103,103,134,1,geliefd,images/br_geliefd.png,images/cb_geliefd.png,0,,,,,,,,,,,,,,,,,,,,,,
,,,,,00113,2023-12-13_09h59.03.973,vbt_B2_day3,2022.2.4,Win32,61.40997298,,,,,,down,0,0.9007,,-0.068518533,-0.055555556,1,0,0,0,104,104,157,1,uitlaat,images/br_uitlaat.png,images/cb_uitlaat.png,0,,,,,,,,,,,,,,,,,,,,,,
,,,,,00113,2023-12-13_09h59.03.973,vbt_B2_day3,2022.2.4,Win32,61.40997298,,,,,,down,0,0.6225,,-0.068518533,-0.055555556,1,0,0,0,105,105,106,1,zingen,images/br_zingen.png,images/cb_zingen.png,0,,,,,,,,,,,,,,,,,,,,,,
,,,,,00113,2023-12-13_09h59.03.973,vbt_B2_day3,2022.2.4,Win32,61.40997298,,,,,,down,0,3.8135,,-0.068518533,-0.055555556,1,0,0,0,106,106,85,1,heilig,images/br_heilig.png,images/cb_heilig.png,0,,,,,,,,,,,,,,,,,,,,,,
,,,,,00113,2023-12-13_09h59.03.973,vbt_B2_day3,2022.2.4,Win32,61.40997298,,,,,,down,0,3.7181,,-0.068518533,-0.055555556,1,0,0,0,107,107,198,1,bedoelen,images/br_bedoelen.png,images/cb_bedoelen.png,0,,,,,,,,,,,,,,,,,,,,,,
,,,,,00113,2023-12-13_09h59.03.973,vbt_B2_day3,2022.2.4,Win32,61.40997298,,,,,,down,0,0.1542,,-0.068518533,-0.055555556,1,0,0,0,108,108,82,1,muziek,images/br_muziek.png,images/cb_muziek.png,0,,,,,,,,,,,,,,,,,,,,,,
,,,,,00113,2023-12-13_09h59.03.973,vbt_B2_day3,2022.2.4,Win32,61.40997298,,,,,,down,0,0.0429,,-0.068518533,-0.055555556,1,0,0,0,109,109,57,1,steek,images/br_steek.png,images/cb_steek.png,0,,,,,,,,,,,,,,,,,,,,,,
,,,,,00113,2023-12-13_09h59.03.973,vbt_B2_day3,2022.2.4,Win32,61.40997298,,,,,,down,0,0.0359,,-0.068518533,-0.055555556,1,0,0,0,110,110,195,1,middelen,images/br_middelen.png,images/cb_middelen.png,0,,,,,,,,,,,,,,,,,,,,,,
,,,,,00113,2023-12-13_09h59.03.973,vbt_B2_day3,2022.2.4,Win32,61.40997298,,,,,,down,0,2.0676,,-0.068518533,-0.055555556,1,0,0,0,111,111,80,1,kanjer,images/br_kanjer.png,images/cb_kanjer.png,0,,,,,,,,,,,,,,,,,,,,,,
,,,,,00113,2023-12-13_09h59.03.973,vbt_B2_day3,2022.2.4,Win32,61.40997298,,,,,,down,0,0.0207,,-0.068518533,-0.055555556,1,0,0,0,112,112,42,1,bleek,images/br_bleek.png,images/cb_bleek.png,0,,,,,,,,,,,,,,,,,,,,,,
,,,,,00113,2023-12-13_09h59.03.973,vbt_B2_day3,2022.2.4,Win32,61.40997298,,,,,,down,0,0.1094,,-0.068518533,-0.055555556,1,0,0,0,113,113,150,1,gegeven,images/br_gegeven.png,images/cb_gegeven.png,0,,,,,,,,,,,,,,,,,,,,,,
,,,,,00113,2023-12-13_09h59.03.973,vbt_B2_day3,2022.2.4,Win32,61.40997298,,,,,,down,0,1.4539,,-0.068518533,-0.055555556,1,0,0,0,114,114,39,1,laag,images/br_laag.png,images/cb_laag.png,0,,,,,,,,,,,,,,,,,,,,,,
,,,,,00113,2023-12-13_09h59.03.973,vbt_B2_day3,2022.2.4,Win32,61.40997298,,,,,,down,0,1.9846,,-0.068518533,-0.055555556,1,0,0,0,115,115,178,1,huisdier,images/br_huisdier.png,images/cb_huisdier.png,0,,,,,,,,,,,,,,,,,,,,,,
,,,,,00113,2023-12-13_09h59.03.973,vbt_B2_day3,2022.2.4,Win32,61.40997298,,,,,,down,0,1.0507,,-0.068518533,-0.055555556,1,0,0,0,116,116,14,1,rijp,images/br_rijp.png,images/cb_rijp.png,0,,,,,,,,,,,,,,,,,,,,,,
,,,,,00113,2023-12-13_09h59.03.973,vbt_B2_day3,2022.2.4,Win32,61.40997298,,,,,,down,0,0.8511,,-0.068518533,-0.055555556,1,0,0,0,117,117,13,1,kaal,images/br_kaal.png,images/cb_kaal.png,0,,,,,,,,,,,,,,,,,,,,,,
,,,,,00113,2023-12-13_09h59.03.973,vbt_B2_day3,2022.2.4,Win32,61.40997298,,,,,,down,0,5.0319,,-0.068518533,-0.055555556,1,0,0,0,118,118,140,1,blijven,images/br_blijven.png,images/cb_blijven.png,1,blijven,,,,,,,,,,,,,,,,,,,,,
,,,,,00113,2023-12-13_09h59.03.973,vbt_B2_day3,2022.2.4,Win32,61.40997298,,,,,,down,0,0.5578,,-0.068518533,-0.055555556,1,0,0,0,119,119,65,1,parel,images/br_parel.png,images/cb_parel.png,0,,,,,,,,,,,,,,,,,,,,,,
,,,,,00113,2023-12-13_09h59.03.973,vbt_B2_day3,2022.2.4,Win32,61.40997298,,,,,,down,0,2.15,,-0.068518533,-0.055555556,1,0,0,0,120,120,101,1,staren,images/br_staren.png,images/cb_staren.png,1,staren,,,,,,,,,,,,,,,,,,,,,
,,,,,00113,2023-12-13_09h59.03.973,vbt_B2_day3,2022.2.4,Win32,61.40997298,,,,,,down,0,1.4673,,-0.068518533,-0.055555556,1,0,0,0,121,121,3,1,mand,images/br_mand.png,images/cb_mand.png,0,,,,,,,,,,,,,,,,,,,,,,
,,,,,00113,2023-12-13_09h59.03.973,vbt_B2_day3,2022.2.4,Win32,61.40997298,,,,,,down,0,8.3123,,-0.068518533,-0.055555556,1,0,0,0,122,122,149,1,redding,images/br_redding.png,images/cb_redding.png,0,,,,,,,,,,,,,,,,,,,,,,
,,,,,00113,2023-12-13_09h59.03.973,vbt_B2_day3,2022.2.4,Win32,61.40997298,,,,,,down,0,3.3176,,-0.068518533,-0.055555556,1,0,0,0,123,123,66,1,lever,images/br_lever.png,images/cb_lever.png,0,,,,,,,,,,,,,,,,,,,,,,
,,,,,00113,2023-12-13_09h59.03.973,vbt_B2_day3,2022.2.4,Win32,61.40997298,,,,,,down,0,0.6715,,-0.068518533,-0.055555556,1,0,0,0,124,124,165,1,feestdag,images/br_feestdag.png,images/cb_feestdag.png,0,,,,,,,,,,,,,,,,,,,,,,
,,,,,00113,2023-12-13_09h59.03.973,vbt_B2_day3,2022.2.4,Win32,61.40997298,,,,,,down,0,0.8399,,-0.068518533,-0.055555556,1,0,0,0,125,125,176,1,techniek,images/br_techniek.png,images/cb_techniek.png,0,,,,,,,,,,,,,,,,,,,,,,
,,,,,00113,2023-12-13_09h59.03.973,vbt_B2_day3,2022.2.4,Win32,61.40997298,,,,,,down,0,0.268,,-0.068518533,-0.055555556,1,0,0,0,126,126,166,1,strikken,images/br_strikken.png,images/cb_strikken.png,0,,,,,,,,,,,,,,,,,,,,,,
,,,,,00113,2023-12-13_09h59.03.973,vbt_B2_day3,2022.2.4,Win32,61.40997298,,,,,,down,0,4.5099,,-0.068518533,-0.055555556,1,0,0,0,127,127,100,1,geduld,images/br_geduld.png,images/cb_geduld.png,1,geduld,,,,,,,,,,,,,,,,,,,,,
,,,,,00113,2023-12-13_09h59.03.973,vbt_B2_day3,2022.2.4,Win32,61.40997298,,,,,,down,0,3.0342,,-0.068518533,-0.055555556,1,0,0,0,128,128,109,1,totaal,images/br_totaal.png,images/cb_totaal.png,0,,,,,,,,,,,,,,,,,,,,,,
,,,,,00113,2023-12-13_09h59.03.973,vbt_B2_day3,2022.2.4,Win32,61.40997298,,,,,,down,0,2.2213,,-0.068518533,-0.055555556,1,0,0,0,129,129,131,1,opzicht,images/br_opzicht.png,images/cb_opzicht.png,0,,,,,,,,,,,,,,,,,,,,,,
,,,,,00113,2023-12-13_09h59.03.973,vbt_B2_day3,2022.2.4,Win32,61.40997298,,,,,,down,0,1.4762,,-0.068518533,-0.055555556,1,0,0,0,130,130,25,1,plek,images/br_plek.png,images/cb_plek.png,0,,,,,,,,,,,,,,,,,,,,,,
,,,,,00113,2023-12-13_09h59.03.973,vbt_B2_day3,2022.2.4,Win32,61.40997298,,,,,,down,0,3.4644,,-0.068518533,-0.055555556,1,0,0,0,131,131,98,1,kreeft,images/br_kreeft.png,images/cb_kreeft.png,0,,,,,,,,,,,,,,,,,,,,,,
,,,,,00113,2023-12-13_09h59.03.973,vbt_B2_day3,2022.2.4,Win32,61.40997298,,,,,,down,0,3.0991,,-0.068518533,-0.055555556,1,0,0,0,132,132,40,1,schep,images/br_schep.png,images/cb_schep.png,0,,,,,,,,,,,,,,,,,,,,,,
,,,,,00113,2023-12-13_09h59.03.973,vbt_B2_day3,2022.2.4,Win32,61.40997298,,,,,,down,0,1.5406,,-0.068518533,-0.055555556,1,0,0,0,133,133,104,1,zweven,images/br_zweven.png,images/cb_zweven.png,0,,,,,,,,,,,,,,,,,,,,,,
,,,,,00113,2023-12-13_09h59.03.973,vbt_B2_day3,2022.2.4,Win32,61.40997298,,,,,,down,0,0.7749,,-0.068518533,-0.055555556,1,0,0,0,134,134,55,1,praat,images/br_praat.png,images/cb_praat.png,0,,,,,,,,,,,,,,,,,,,,,,
,,,,,00113,2023-12-13_09h59.03.973,vbt_B2_day3,2022.2.4,Win32,61.40997298,,,,,,down,0,0.9068,,-0.068518533,-0.055555556,1,0,0,0,135,135,51,1,samen,images/br_samen.png,images/cb_samen.png,0,,,,,,,,,,,,,,,,,,,,,,
,,,,,00113,2023-12-13_09h59.03.973,vbt_B2_day3,2022.2.4,Win32,61.40997298,,,,,,down,0,1.2905,,-0.068518533,-0.055555556,1,0,0,0,136,136,170,1,schatten,images/br_schatten.png,images/cb_schatten.png,0,,,,,,,,,,,,,,,,,,,,,,
,,,,,00113,2023-12-13_09h59.03.973,vbt_B2_day3,2022.2.4,Win32,61.40997298,,,,,,down,0,2.2649,,-0.068518533,-0.055555556,1,0,0,0,137,137,179,1,woestijn,images/br_woestijn.png,images/cb_woestijn.png,0,,,,,,,,,,,,,,,,,,,,,,
,,,,,00113,2023-12-13_09h59.03.973,vbt_B2_day3,2022.2.4,Win32,61.40997298,,,,,,down,0,0.4856,,-0.068518533,-0.055555556,1,0,0,0,138,138,27,1,dans,images/br_dans.png,images/cb_dans.png,0,,,,,,,,,,,,,,,,,,,,,,
,,,,,00113,2023-12-13_09h59.03.973,vbt_B2_day3,2022.2.4,Win32,61.40997298,,,,,,down,0,1.9061,,-0.068518533,-0.055555556,1,0,0,0,139,139,58,1,tekst,images/br_tekst.png,images/cb_tekst.png,0,,,,,,,,,,,,,,,,,,,,,,
,,,,,00113,2023-12-13_09h59.03.973,vbt_B2_day3,2022.2.4,Win32,61.40997298,,,,,,down,0,0.3845,,-0.068518533,-0.055555556,1,0,0,0,140,140,1,1,zaal,images/br_zaal.png,images/cb_zaal.png,0,,,,,,,,,,,,,,,,,,,,,,
,,,,,00113,2023-12-13_09h59.03.973,vbt_B2_day3,2022.2.4,Win32,61.40997298,,,,,,down,0,5.3801,,-0.068518533,-0.055555556,1,0,0,0,141,141,12,1,kust,images/br_kust.png,images/cb_kust.png,0,,,,,,,,,,,,,,,,,,,,,,
,,,,,00113,2023-12-13_09h59.03.973,vbt_B2_day3,2022.2.4,Win32,61.40997298,,,,,,down,0,1.6019,,-0.068518533,-0.055555556,1,0,0,0,142,142,154,1,aflopen,images/br_aflopen.png,images/cb_aflopen.png,0,,,,,,,,,,,,,,,,,,,,,,
,,,,,00113,2023-12-13_09h59.03.973,vbt_B2_day3,2022.2.4,Win32,61.40997298,,,,,,down,0,0.3885,,-0.068518533,-0.055555556,1,0,0,0,143,143,152,1,afnemen,images/br_afnemen.png,images/cb_afnemen.png,0,,,,,,,,,,,,,,,,,,,,,,
,,,,,00113,2023-12-13_09h59.03.973,vbt_B2_day3,2022.2.4,Win32,61.40997298,,,,,,down,0,4.8329,,-0.068518533,-0.055555556,1,0,0,0,144,144,135,1,gedicht,images/br_gedicht.png,images/cb_gedicht.png,0,,,,,,,,,,,,,,,,,,,,,,
,,,,,00113,2023-12-13_09h59.03.973,vbt_B2_day3,2022.2.4,Win32,61.40997298,,,,,,down,0,5.4988,,-0.068518533,-0.055555556,1,0,0,0,145,145,90,1,geluid,images/br_geluid.png,images/cb_geluid.png,0,,,,,,,,,,,,,,,,,,,,,,
,,,,,00113,2023-12-13_09h59.03.973,vbt_B2_day3,2022.2.4,Win32,61.40997298,,,,,,down,0,2.1666,,-0.068518533,-0.055555556,1,0,0,0,146,146,88,1,boeien,images/br_boeien.png,images/cb_boeien.png,0,,,,,,,,,,,,,,,,,,,,,,
,,,,,00113,2023-12-13_09h59.03.973,vbt_B2_day3,2022.2.4,Win32,61.40997298,,,,,,down,0,0.4006,,-0.068518533,-0.055555556,1,0,0,0,147,147,72,1,strak,images/br_strak.png,images/cb_strak.png,0,,,,,,,,,,,,,,,,,,,,,,
,,,,,00113,2023-12-13_09h59.03.973,vbt_B2_day3,2022.2.4,Win32,61.40997298,,,,,,down,0,0.0427,,-0.068518533,-0.055555556,1,0,0,0,148,148,81,1,dubbel,images/br_dubbel.png,images/cb_dubbel.png,0,,,,,,,,,,,,,,,,,,,,,,
,,,,,00113,2023-12-13_09h59.03.973,vbt_B2_day3,2022.2.4,Win32,61.40997298,,,,,,down,0,0.6861,,-0.068518533,-0.055555556,1,0,0,0,149,149,130,1,keihard,images/br_keihard.png,images/cb_keihard.png,0,,,,,,,,,,,,,,,,,,,,,,
,,,,,00113,2023-12-13_09h59.03.973,vbt_B2_day3,2022.2.4,Win32,61.40997298,,,,,,down,0,1.4827,,-0.068518533,-0.055555556,1,0,0,0,150,150,151,1,aanzoek,images/br_aanzoek.png,images/cb_aanzoek.png,0,,,,,,,,,,,,,,,,,,,,,,
,,,,,00113,2023-12-13_09h59.03.973,vbt_B2_day3,2022.2.4,Win32,61.40997298,,,,,,down,0,1.1187,,-0.068518533,-0.055555556,1,0,0,0,151,151,67,1,zwart,images/br_zwart.png,images/cb_zwart.png,0,,,,,,,,,,,,,,,,,,,,,,
,,,,,00113,2023-12-13_09h59.03.973,vbt_B2_day3,2022.2.4,Win32,61.40997298,,,,,,down,0,0.781,,-0.068518533,-0.055555556,1,0,0,0,152,152,53,1,baron,images/br_baron.png,images/cb_baron.png,0,,,,,,,,,,,,,,,,,,,,,,
,,,,,00113,2023-12-13_09h59.03.973,vbt_B2_day3,2022.2.4,Win32,61.40997298,,,,,,down,0,6.0629,,-0.068518533,-0.055555556,1,0,0,0,153,153,119,1,liefje,images/br_liefje.png,images/cb_liefje.png,0,,,,,,,,,,,,,,,,,,,,,,
,,,,,00113,2023-12-13_09h59.03.973,vbt_B2_day3,2022.2.4,Win32,61.40997298,,,,,,down,0,1.764,,-0.068518533,-0.055555556,1,0,0,0,154,154,68,1,schat,images/br_schat.png,images/cb_schat.png,0,,,,,,,,,,,,,,,,,,,,,,
,,,,,00113,2023-12-13_09h59.03.973,vbt_B2_day3,2022.2.4,Win32,61.40997298,,,,,,down,0,2.7571,,-0.068518533,-0.055555556,1,0,0,0,155,155,196,1,nakijken,images/br_nakijken.png,images/cb_nakijken.png,0,,,,,,,,,,,,,,,,,,,,,,
,,,,,00113,2023-12-13_09h59.03.973,vbt_B2_day3,2022.2.4,Win32,61.40997298,,,,,,down,0,1.4002,,-0.068518533,-0.055555556,1,0,0,0,156,156,123,1,hiervan,images/br_hiervan.png,images/cb_hiervan.png,0,,,,,,,,,,,,,,,,,,,,,,
,,,,,00113,2023-12-13_09h59.03.973,vbt_B2_day3,2022.2.4,Win32,61.40997298,,,,,,down,0,0.8535,,-0.068518533,-0.055555556,1,0,0,0,157,157,2,1,jaar,images/br_jaar.png,images/cb_jaar.png,0,,,,,,,,,,,,,,,,,,,,,,
,,,,,00113,2023-12-13_09h59.03.973,vbt_B2_day3,2022.2.4,Win32,61.40997298,,,,,,down,0,0.9246,,-0.068518533,-0.055555556,1,0,0,0,158,158,24,1,jurk,images/br_jurk.png,images/cb_jurk.png,0,,,,,,,,,,,,,,,,,,,,,,
,,,,,00113,2023-12-13_09h59.03.973,vbt_B2_day3,2022.2.4,Win32,61.40997298,,,,,,down,0,4.7487,,-0.068518533,-0.055555556,1,0,0,0,159,159,60,1,jasje,images/br_jasje.png,images/cb_jasje.png,1,jasje,,,,,,,,,,,,,,,,,,,,,
,,,,,00113,2023-12-13_09h59.03.973,vbt_B2_day3,2022.2.4,Win32,61.40997298,,,,,,down,0,0.8848,,-0.068518533,-0.055555556,1,0,0,0,160,160,184,1,aandelen,images/br_aandelen.png,images/cb_aandelen.png,0,,,,,,,,,,,,,,,,,,,,,,
,,,,,00113,2023-12-13_09h59.03.973,vbt_B2_day3,2022.2.4,Win32,61.40997298,,,,,,down,0,2.7368,,-0.068518533,-0.055555556,1,0,0,0,161,161,34,1,vorm,images/br_vorm.png,images/cb_vorm.png,0,,,,,,,,,,,,,,,,,,,,,,
,,,,,00113,2023-12-13_09h59.03.973,vbt_B2_day3,2022.2.4,Win32,61.40997298,,,,,,down,0,1.6322,,-0.068518533,-0.055555556,1,0,0,0,162,162,91,1,gezond,images/br_gezond.png,images/cb_gezond.png,0,,,,,,,,,,,,,,,,,,,,,,
,,,,,00113,2023-12-13_09h59.03.973,vbt_B2_day3,2022.2.4,Win32,61.40997298,,,,,,down,0,2.1173,,-0.068518533,-0.055555556,1,0,0,0,163,163,78,1,leren,images/br_leren.png,images/cb_leren.png,0,,,,,,,,,,,,,,,,,,,,,,
,,,,,00113,2023-12-13_09h59.03.973,vbt_B2_day3,2022.2.4,Win32,61.40997298,,,,,,down,0,1.118,,-0.068518533,-0.055555556,1,0,0,0,164,164,62,1,knaap,images/br_knaap.png,images/cb_knaap.png,1,knaap,,,,,,,,,,,,,,,,,,,,,
,,,,,00113,2023-12-13_09h59.03.973,vbt_B2_day3,2022.2.4,Win32,61.40997298,,,,,,down,0,0.151,,-0.068518533,-0.055555556,1,0,0,0,165,165,41,1,maken,images/br_maken.png,images/cb_maken.png,0,,,,,,,,,,,,,,,,,,,,,,
,,,,,00113,2023-12-13_09h59.03.973,vbt_B2_day3,2022.2.4,Win32,61.40997298,,,,,,down,0,0.9564,,-0.068518533,-0.055555556,1,0,0,0,166,166,163,1,schuilen,images/br_schuilen.png,images/cb_schuilen.png,0,,,,,,,,,,,,,,,,,,,,,,
,,,,,00113,2023-12-13_09h59.03.973,vbt_B2_day3,2022.2.4,Win32,61.40997298,,,,,,down,0,5.6305,,-0.068518533,-0.055555556,1,0,0,0,167,167,50,1,stoom,images/br_stoom.png,images/cb_stoom.png,0,,,,,,,,,,,,,,,,,,,,,,
,,,,,00113,2023-12-13_09h59.03.973,vbt_B2_day3,2022.2.4,Win32,61.40997298,,,,,,down,0,0.0733,,-0.068518533,-0.055555556,1,0,0,0,168,168,177,1,maaltijd,images/br_maaltijd.png,images/cb_maaltijd.png,0,,,,,,,,,,,,,,,,,,,,,,
,,,,,00113,2023-12-13_09h59.03.973,vbt_B2_day3,2022.2.4,Win32,61.40997298,,,,,,down,0,3.3293,,-0.068518533,-0.055555556,1,0,0,0,169,169,71,1,bever,images/br_bever.png,images/cb_bever.png,0,,,,,,,,,,,,,,,,,,,,,,
,,,,,00113,2023-12-13_09h59.03.973,vbt_B2_day3,2022.2.4,Win32,61.40997298,,,,,,down,0,0.4423,,-0.068518533,-0.055555556,1,0,0,0,170,170,0,1,slak,images/br_slak.png,images/cb_slak.png,0,,,,,,,,,,,,,,,,,,,,,,
,,,,,00113,2023-12-13_09h59.03.973,vbt_B2_day3,2022.2.4,Win32,61.40997298,,,,,,down,0,16.4015,,-0.040740755,-0.297222208,1,0,0,0,171,171,142,1,snuiven,images/br_snuiven.png,images/cb_snuiven.png,1,snuiven,,,,,,,,,,,,,,,,,,,,,
,,,,,00113,2023-12-13_09h59.03.973,vbt_B2_day3,2022.2.4,Win32,61.40997298,,,,,,down,0,3.5691,,-0.040740755,-0.297222208,1,0,0,0,172,172,29,1,baas,images/br_baas.png,images/cb_baas.png,0,,,,,,,,,,,,,,,,,,,,,,
,,,,,00113,2023-12-13_09h59.03.973,vbt_B2_day3,2022.2.4,Win32,61.40997298,,,,,,down,0,0.2842,,-0.040740755,-0.297222208,1,0,0,0,173,173,158,1,innemen,images/br_innemen.png,images/cb_innemen.png,0,,,,,,,,,,,,,,,,,,,,,,
,,,,,00113,2023-12-13_09h59.03.973,vbt_B2_day3,2022.2.4,Win32,61.40997298,,,,,,down,0,1.2224,,-0.040740755,-0.297222208,1,0,0,0,174,174,167,1,eenhoorn,images/br_eenhoorn.png,images/cb_eenhoorn.png,0,,,,,,,,,,,,,,,,,,,,,,
,,,,,00113,2023-12-13_09h59.03.973,vbt_B2_day3,2022.2.4,Win32,61.40997298,,,,,,down,0,0.77,,-0.040740755,-0.297222208,1,0,0,0,175,175,46,1,jagen,images/br_jagen.png,images/cb_jagen.png,0,,,,,,,,,,,,,,,,,,,,,,
,,,,,00113,2023-12-13_09h59.03.973,vbt_B2_day3,2022.2.4,Win32,61.40997298,,,,,,down,0,8.8071,,-0.040740755,-0.297222208,1,0,0,0,176,176,108,1,excuus,images/br_excuus.png,images/cb_excuus.png,0,,,,,,,,,,,,,,,,,,,,,,
,,,,,00113,2023-12-13_09h59.03.973,vbt_B2_day3,2022.2.4,Win32,61.40997298,,,,,,down,0,7.1119,,-0.040740755,-0.297222208,1,0,0,0,177,177,183,1,getuigen,images/br_getuigen.png,images/cb_getuigen.png,1,getuigen,,,,,,,,,,,,,,,,,,,,,
,,,,,00113,2023-12-13_09h59.03.973,vbt_B2_day3,2022.2.4,Win32,61.40997298,,,,,,down,0,2.763,,-0.040740755,-0.297222208,1,0,0,0,178,178,45,1,piste,images/br_piste.png,images/cb_piste.png,0,,,,,,,,,,,,,,,,,,,,,,
,,,,,00113,2023-12-13_09h59.03.973,vbt_B2_day3,2022.2.4,Win32,61.40997298,,,,,,down,0,5.1331,,-0.040740755,-0.297222208,1,0,0,0,179,179,26,1,leuk,images/br_leuk.png,images/cb_leuk.png,0,,,,,,,,,,,,,,,,,,,,,,
,,,,,00113,2023-12-13_09h59.03.973,vbt_B2_day3,2022.2.4,Win32,61.40997298,,,,,,down,0,1.2,,-0.040740755,-0.297222208,1,0,0,0,180,180,38,1,baai,images/br_baai.png,images/cb_baai.png,0,,,,,,,,,,,,,,,,,,,,,,
,,,,,00113,2023-12-13_09h59.03.973,vbt_B2_day3,2022.2.4,Win32,61.40997298,,,,,,down,0,4.9049,,-0.040740755,-0.297222208,1,0,0,0,181,181,180,1,openbaar,images/br_openbaar.png,images/cb_openbaar.png,1,openbaar,,,,,,,,,,,,,,,,,,,,,
,,,,,00113,2023-12-13_09h59.03.973,vbt_B2_day3,2022.2.4,Win32,61.40997298,,,,,,down,0,1.7371,,-0.040740755,-0.297222208,1,0,0,0,182,182,79,1,nodig,images/br_nodig.png,images/cb_nodig.png,0,,,,,,,,,,,,,,,,,,,,,,
,,,,,00113,2023-12-13_09h59.03.973,vbt_B2_day3,2022.2.4,Win32,61.40997298,,,,,,down,0,0.1007,,-0.040740755,-0.297222208,1,0,0,0,183,183,185,1,mijnheer,images/br_mijnheer.png,images/cb_mijnheer.png,0,,,,,,,,,,,,,,,,,,,,,,
,,,,,00113,2023-12-13_09h59.03.973,vbt_B2_day3,2022.2.4,Win32,61.40997298,,,,,,down,0,3.7698,,-0.040740755,-0.297222208,1,0,0,0,184,184,186,1,voorraad,images/br_voorraad.png,images/cb_voorraad.png,0,,,,,,,,,,,,,,,,,,,,,,
,,,,,00113,2023-12-13_09h59.03.973,vbt_B2_day3,2022.2.4,Win32,61.40997298,,,,,,down,0,1.6067,,-0.040740755,-0.297222208,1,0,0,0,185,185,95,1,vreten,images/br_vreten.png,images/cb_vreten.png,0,,,,,,,,,,,,,,,,,,,,,,
,,,,,00113,2023-12-13_09h59.03.973,vbt_B2_day3,2022.2.4,Win32,61.40997298,,,,,,down,0,0.6871,,-0.040740755,-0.297222208,1,0,0,0,186,186,99,1,koffie,images/br_koffie.png,images/cb_koffie.png,0,,,,,,,,,,,,,,,,,,,,,,
,,,,,00113,2023-12-13_09h59.03.973,vbt_B2_day3,2022.2.4,Win32,61.40997298,,,,,,down,0,0.6833,,-0.040740755,-0.297222208,1,0,0,0,187,187,160,1,daarheen,images/br_daarheen.png,images/cb_daarheen.png,0,,,,,,,,,,,,,,,,,,,,,,
,,,,,00113,2023-12-13_09h59.03.973,vbt_B2_day3,2022.2.4,Win32,61.40997298,,,,,,down,0,0.1009,,-0.040740755,-0.297222208,1,0,0,0,188,188,92,1,geheim,images/br_geheim.png,images/cb_geheim.png,0,,,,,,,,,,,,,,,,,,,,,,
,,,,,00113,2023-12-13_09h59.03.973,vbt_B2_day3,2022.2.4,Win32,61.40997298,,,,,,down,0,0.2655,,-0.040740755,-0.297222208,1,0,0,0,189,189,111,1,ticket,images/br_ticket.png,images/cb_ticket.png,0,,,,,,,,,,,,,,,,,,,,,,
,,,,,00113,2023-12-13_09h59.03.973,vbt_B2_day3,2022.2.4,Win32,61.40997298,,,,,,down,0,1.1793,,-0.040740755,-0.297222208,1,0,0,0,190,190,138,1,akkoord,images/br_akkoord.png,images/cb_akkoord.png,0,,,,,,,,,,,,,,,,,,,,,,
,,,,,00113,2023-12-13_09h59.03.973,vbt_B2_day3,2022.2.4,Win32,61.40997298,,,,,,down,0,1.0688,,-0.040740755,-0.297222208,1,0,0,0,191,191,188,1,strekken,images/br_strekken.png,images/cb_strekken.png,0,,,,,,,,,,,,,,,,,,,,,,
,,,,,00113,2023-12-13_09h59.03.973,vbt_B2_day3,2022.2.4,Win32,61.40997298,,,,,,down,0,8.9324,,-0.040740755,-0.297222208,1,0,0,0,192,192,182,1,bijkomen,images/br_bijkomen.png,images/cb_bijkomen.png,1,bijkomen,,,,,,,,,,,,,,,,,,,,,
,,,,,00113,2023-12-13_09h59.03.973,vbt_B2_day3,2022.2.4,Win32,61.40997298,,,,,,down,0,3.0805,,-0.040740755,-0.297222208,1,0,0,0,193,193,83,1,mening,images/br_mening.png,images/cb_mening.png,0,,,,,,,,,,,,,,,,,,,,,,
,,,,,00113,2023-12-13_09h59.03.973,vbt_B2_day3,2022.2.4,Win32,61.40997298,,,,,,down,0,0.5019,,-0.040740755,-0.297222208,1,0,0,0,194,194,18,1,blik,images/br_blik.png,images/cb_blik.png,0,,,,,,,,,,,,,,,,,,,,,,
,,,,,00113,2023-12-13_09h59.03.973,vbt_B2_day3,2022.2.4,Win32,61.40997298,,,,,,down,0,2.2487,,-0.040740755,-0.297222208,1,0,0,0,195,195,146,1,opkomen,images/br_opkomen.png,images/cb_opkomen.png,0,,,,,,,,,,,,,,,,,,,,,,
,,,,,00113,2023-12-13_09h59.03.973,vbt_B2_day3,2022.2.4,Win32,61.40997298,,,,,,down,0,1.6838,,-0.040740755,-0.297222208,1,0,0,0,196,196,194,1,driemaal,images/br_driemaal.png,images/cb_driemaal.png,0,,,,,,,,,,,,,,,,,,,,,,
,,,,,00113,2023-12-13_09h59.03.973,vbt_B2_day3,2022.2.4,Win32,61.40997298,,,,,,down,0,0.9676,,-0.040740755,-0.297222208,1,0,0,0,197,197,175,1,heengaan,images/br_heengaan.png,images/cb_heengaan.png,0,,,,,,,,,,,,,,,,,,,,,,
,,,,,00113,2023-12-13_09h59.03.973,vbt_B2_day3,2022.2.4,Win32,61.40997298,,,,,,down,0,0.4822,,-0.040740755,-0.297222208,1,0,0,0,198,198,73,1,volop,images/br_volop.png,images/cb_volop.png,0,,,,,,,,,,,,,,,,,,,,,,
,,,,,00113,2023-12-13_09h59.03.973,vbt_B2_day3,2022.2.4,Win32,61.40997298,,,,,,down,0,0.9546,,-0.040740755,-0.297222208,1,0,0,0,199,199,137,1,trekker,images/br_trekker.png,images/cb_trekker.png,0,,,,,,,,,,,,,,,,,,,,,,
,,,,,00113,2023-12-13_09h59.03.973,vbt_B2_day3,2022.2.4,Win32,61.40997298,,,,,,,,,,,,,,,,,,,,,,,,,0.068518533,-0.219444487,1,0,0,,,,,,,,,,,,,,,,
,,,,,00113,2023-12-13_09h59.03.973,vbt_B2_day3,2022.2.4,Win32,61.40997298,,,,,,,,,,,,,,,,,,,,,,,,,,,,,,0.068518533,-0.219444487,1,0,0,,,,,,,,,,,
,,,,,00113,2023-12-13_09h59.03.973,vbt_B2_day3,2022.2.4,Win32,61.40997298,,,,,,,,,,,,,,,,,,,,verraden,images/br_verraden.png,images/cb_verraden.png,,verraden,,,,,,,,,,,0.068518533,-0.219444487,1,0,0,verraden,0,0,0,58,1
,,,,,00113,2023-12-13_09h59.03.973,vbt_B2_day3,2022.2.4,Win32,61.40997298,,,,,,,,,,,,,,,,,,,,opzetten,images/br_opzetten.png,images/cb_opzetten.png,,opzetten,,,,,,,,,,,0.080555598,-0.27870369,1,0,0,opzetten,0,1,1,56,1
,,,,,00113,2023-12-13_09h59.03.973,vbt_B2_day3,2022.2.4,Win32,61.40997298,,,,,,,,,,,,,,,,,,,,uviek,images/br_uviek.png,images/cb_uviek.png,,uviek,,,,,,,,,,,0.080555598,-0.27870369,1,0,0,uviek,0,2,2,25,1
,,,,,00113,2023-12-13_09h59.03.973,vbt_B2_day3,2022.2.4,Win32,61.40997298,,,,,,,,,,,,,,,,,,,,sluier,images/br_sluier.png,images/cb_sluier.png,,sluier,,,,,,,,,,,0.064814815,-0.273148148,1,0,0,sluier,0,3,3,50,1
,,,,,00113,2023-12-13_09h59.03.973,vbt_B2_day3,2022.2.4,Win32,61.40997298,,,,,,,,,,,,,,,,,,,,gezond,images/br_gezond.png,images/cb_gezond.png,,gezond,,,,,,,,,,,0.064814815,-0.273148148,1,0,0,gezond,0,4,4,11,1
,,,,,00113,2023-12-13_09h59.03.973,vbt_B2_day3,2022.2.4,Win32,61.40997298,,,,,,,,,,,,,,,,,,,,uniek,images/br_uniek.png,images/cb_uniek.png,,uniek,,,,,,,,,,,0.064814815,-0.273148148,1,0,0,uniek,0,5,5,46,1
,,,,,00113,2023-12-13_09h59.03.973,vbt_B2_day3,2022.2.4,Win32,61.40997298,,,,,,,,,,,,,,,,,,,,theeting,images/br_theeting.png,images/cb_theeting.png,,theeting,,,,,,,,,,,0.064814815,-0.273148148,1,0,0,theeting,0,6,6,38,1
,,,,,00113,2023-12-13_09h59.03.973,vbt_B2_day3,2022.2.4,Win32,61.40997298,,,,,,,,,,,,,,,,,,,,slapen,images/br_slapen.png,images/cb_slapen.png,,slapen,,,,,,,,,,,0.064814815,-0.273148148,1,0,0,slapen,0,7,7,9,1
,,,,,00113,2023-12-13_09h59.03.973,vbt_B2_day3,2022.2.4,Win32,61.40997298,,,,,,,,,,,,,,,,,,,,schatten,images/br_schatten.png,images/cb_schatten.png,,schatten,,,,,,,,,,,0.064814815,-0.273148148,1,0,0,schatten,0,8,8,18,1
,,,,,00113,2023-12-13_09h59.03.973,vbt_B2_day3,2022.2.4,Win32,61.40997298,,,,,,,,,,,,,,,,,,,,mugeek,images/br_mugeek.png,images/cb_mugeek.png,,mugeek,,,,,,,,,,,0.064814815,-0.273148148,1,0,0,mugeek,0,9,9,29,1
,,,,,00113,2023-12-13_09h59.03.973,vbt_B2_day3,2022.2.4,Win32,61.40997298,,,,,,,,,,,,,,,,,,,,croo,images/br_croo.png,images/cb_croo.png,,croo,,,,,,,,,,,0.064814815,-0.273148148,1,0,0,croo,0,10,10,22,1
,,,,,00113,2023-12-13_09h59.03.973,vbt_B2_day3,2022.2.4,Win32,61.40997298,,,,,,,,,,,,,,,,,,,,twaaf,images/br_twaaf.png,images/cb_twaaf.png,,twaaf,,,,,,,,,,,0.064814815,-0.273148148,1,0,0,twaaf,0,11,11,24,1
,,,,,00113,2023-12-13_09h59.03.973,vbt_B2_day3,2022.2.4,Win32,61.40997298,,,,,,,,,,,,,,,,,,,,leek,images/br_leek.png,images/cb_leek.png,,leew,,,,,,,,,,,0.064814815,-0.273148148,1,0,0,leew,0,12,12,2,1
,,,,,00113,2023-12-13_09h59.03.973,vbt_B2_day3,2022.2.4,Win32,61.40997298,,,,,,,,,,,,,,,,,,,,booien,images/br_booien.png,images/cb_booien.png,,boeien,,,,,,,,,,,0.069444444,-0.275925954,1,0,0,boeien,0,13,13,31,1
,,,,,00113,2023-12-13_09h59.03.973,vbt_B2_day3,2022.2.4,Win32,61.40997298,,,,,,,,,,,,,,,,,,,,mode,images/br_mode.png,images/cb_mode.png,, mode,,,,,,,,,,,0.069444444,-0.275925954,1,0,0, mode,0,14,14,3,1
,,,,,00113,2023-12-13_09h59.03.973,vbt_B2_day3,2022.2.4,Win32,61.40997298,,,,,,,,,,,,,,,,,,,,hier,images/br_hier.png,images/cb_hier.png,,hier,,,,,,,,,,,0.069444444,-0.275925954,1,0,0,hier,0,15,15,1,1
,,,,,00113,2023-12-13_09h59.03.973,vbt_B2_day3,2022.2.4,Win32,61.40997298,,,,,,,,,,,,,,,,,,,,verhaal,images/br_verhaal.png,images/cb_verhaal.png,,verhaal,,,,,,,,,,,0.069444444,-0.275925954,1,0,0,verhaal,0,16,16,13,1
,,,,,00113,2023-12-13_09h59.03.973,vbt_B2_day3,2022.2.4,Win32,61.40997298,,,,,,,,,,,,,,,,,,,,kwaas,images/br_kwaas.png,images/cb_kwaas.png,,kwaas,,,,,,,,,,,0.069444444,-0.275925954,1,0,0,kwaas,0,17,17,26,1
,,,,,00113,2023-12-13_09h59.03.973,vbt_B2_day3,2022.2.4,Win32,61.40997298,,,,,,,,,,,,,,,,,,,,bevret,images/br_bevret.png,images/cb_bevret.png,,bevret,,,,,,,,,,,0.069444444,-0.275925954,1,0,0,bevret,0,18,18,30,1
,,,,,00113,2023-12-13_09h59.03.973,vbt_B2_day3,2022.2.4,Win32,61.40997298,,,,,,,,,,,,,,,,,,,,schodel,images/br_schodel.png,images/cb_schodel.png,,schodel,,,,,,,,,,,0.069444444,-0.275925954,1,0,0,schodel,0,19,19,33,1
,,,,,00113,2023-12-13_09h59.03.973,vbt_B2_day3,2022.2.4,Win32,61.40997298,,,,,,,,,,,,,,,,,,,,aarzelen,images/br_aarzelen.png,images/cb_aarzelen.png,,aarzelen,,,,,,,,,,,0.069444444,-0.275925954,1,0,0,aarzelen,0,20,20,19,1
,,,,,00113,2023-12-13_09h59.03.973,vbt_B2_day3,2022.2.4,Win32,61.40997298,,,,,,,,,,,,,,,,,,,,opzicht,images/br_opzicht.png,images/cb_opzicht.png,,opzicht,,,,,,,,,,,0.069444444,-0.275925954,1,0,0,opzicht,0,21,21,15,1
,,,,,00113,2023-12-13_09h59.03.973,vbt_B2_day3,2022.2.4,Win32,61.40997298,,,,,,,,,,,,,,,,,,,,begrip,images/br_begrip.png,images/cb_begrip.png,,begrip,,,,,,,,,,,0.069444444,-0.275925954,1,0,0,begrip,0,22,22,48,1
,,,,,00113,2023-12-13_09h59.03.973,vbt_B2_day3,2022.2.4,Win32,61.40997298,,,,,,,,,,,,,,,,,,,,stoom,images/br_stoom.png,images/cb_stoom.png,,stoom,,,,,,,,,,,0.069444444,-0.275925954,1,0,0,stoom,0,23,23,6,1
,,,,,00113,2023-12-13_09h59.03.973,vbt_B2_day3,2022.2.4,Win32,61.40997298,,,,,,,,,,,,,,,,,,,,invallen,images/br_invallen.png,images/cb_invallen.png,,envallen,,,,,,,,,,,-0.039814772,-0.211111139,1,0,0,envallen,0,24,24,57,1
,,,,,00113,2023-12-13_09h59.03.973,vbt_B2_day3,2022.2.4,Win32,61.40997298,,,,,,,,,,,,,,,,,,,,brappen,images/br_brappen.png,images/cb_brappen.png,,brappen,,,,,,,,,,,0.025000042,-0.391666695,1,0,0,brappen,0,25,25,35,1
,,,,,00113,2023-12-13_09h59.03.973,vbt_B2_day3,2022.2.4,Win32,61.40997298,,,,,,,,,,,,,,,,,,,,stikken,images/br_stikken.png,images/cb_stikken.png,,stikken,,,,,,,,,,,0.025000042,-0.391666695,1,0,0,stikken,0,26,26,54,1
,,,,,00113,2023-12-13_09h59.03.973,vbt_B2_day3,2022.2.4,Win32,61.40997298,,,,,,,,,,,,,,,,,,,,knie,images/br_knie.png,images/cb_knie.png,,knie,,,,,,,,,,,0.025000042,-0.391666695,1,0,0,knie,0,27,27,0,1
,,,,,00113,2023-12-13_09h59.03.973,vbt_B2_day3,2022.2.4,Win32,61.40997298,,,,,,,,,,,,,,,,,,,,alsof,images/br_alsof.png,images/cb_alsof.png,,alsof,,,,,,,,,,,0.025000042,-0.391666695,1,0,0,alsof,0,28,28,44,1
,,,,,00113,2023-12-13_09h59.03.973,vbt_B2_day3,2022.2.4,Win32,61.40997298,,,,,,,,,,,,,,,,,,,,hust,images/br_hust.png,images/cb_hust.png,,hust,,,,,,,,,,,0.025000042,-0.391666695,1,0,0,hust,0,29,29,23,1
,,,,,00113,2023-12-13_09h59.03.973,vbt_B2_day3,2022.2.4,Win32,61.40997298,,,,,,,,,,,,,,,,,,,,leugeren,images/br_leugeren.png,images/cb_leugeren.png,,leugeren,,,,,,,,,,,0.025000042,-0.391666695,1,0,0,leugeren,0,30,30,37,1
,,,,,00113,2023-12-13_09h59.03.973,vbt_B2_day3,2022.2.4,Win32,61.40997298,,,,,,,,,,,,,,,,,,,,kaas,images/br_kaas.png,images/cb_kaas.png,,kaas,,,,,,,,,,,0.025000042,-0.391666695,1,0,0,kaas,0,31,31,42,1
,,,,,00113,2023-12-13_09h59.03.973,vbt_B2_day3,2022.2.4,Win32,61.40997298,,,,,,,,,,,,,,,,,,,,kest,images/br_kest.png,images/cb_kest.png,,kest,,,,,,,,,,,-0.014814801,-0.332407422,1,0,0,kest,0,32,32,21,1
,,,,,00113,2023-12-13_09h59.03.973,vbt_B2_day3,2022.2.4,Win32,61.40997298,,,,,,,,,,,,,,,,,,,,dwang,images/br_dwang.png,images/cb_dwang.png,,dwang,,,,,,,,,,,-0.014814801,-0.332407422,1,0,0,dwang,0,33,33,47,1
,,,,,00113,2023-12-13_09h59.03.973,vbt_B2_day3,2022.2.4,Win32,61.40997298,,,,,,,,,,,,,,,,,,,,afbopen,images/br_afbopen.png,images/cb_afbopen.png,,afbopen,,,,,,,,,,,-0.014814801,-0.332407422,1,0,0,afbopen,0,34,34,34,1
,,,,,00113,2023-12-13_09h59.03.973,vbt_B2_day3,2022.2.4,Win32,61.40997298,,,,,,,,,,,,,,,,,,,,stallen,images/br_stallen.png,images/cb_stallen.png,,stallen,,,,,,,,,,,-0.014814801,-0.332407422,1,0,0,stallen,0,35,35,52,1
,,,,,00113,2023-12-13_09h59.03.973,vbt_B2_day3,2022.2.4,Win32,61.40997298,,,,,,,,,,,,,,,,,,,,gout,images/br_gout.png,images/cb_gout.png,,gout,,,,,,,,,,,-0.014814801,-0.332407422,1,0,0,gout,0,36,36,20,1
,,,,,00113,2023-12-13_09h59.03.973,vbt_B2_day3,2022.2.4,Win32,61.40997298,,,,,,,,,,,,,,,,,,,,verwoor,images/br_verwoor.png,images/cb_verwoor.png,,verwoop,,,,,,,,,,,-0.014814801,-0.332407422,1,0,0,verwoop,0,37,37,32,1
,,,,,00113,2023-12-13_09h59.03.973,vbt_B2_day3,2022.2.4,Win32,61.40997298,,,,,,,,,,,,,,,,,,,,beslag,images/br_beslag.png,images/cb_beslag.png,,beslag,,,,,,,,,,,-0.014814801,-0.332407422,1,0,0,beslag,0,38,38,51,1
,,,,,00113,2023-12-13_09h59.03.973,vbt_B2_day3,2022.2.4,Win32,61.40997298,,,,,,,,,,,,,,,,,,,,steel,images/br_steel.png,images/cb_steel.png,,steel,,,,,,,,,,,-0.014814801,-0.332407422,1,0,0,steel,0,39,39,4,1
,,,,,00113,2023-12-13_09h59.03.973,vbt_B2_day3,2022.2.4,Win32,61.40997298,,,,,,,,,,,,,,,,,,,,prikken,images/br_prikken.png,images/cb_prikken.png,,prikken,,,,,,,,,,,-0.014814801,-0.332407422,1,0,0,prikken,0,40,40,12,1
,,,,,00113,2023-12-13_09h59.03.973,vbt_B2_day3,2022.2.4,Win32,61.40997298,,,,,,,,,,,,,,,,,,,,oprotten,images/br_oprotten.png,images/cb_oprotten.png,,oprotten,,,,,,,,,,,-0.014814801,-0.332407422,1,0,0,oprotten,0,41,41,17,1
,,,,,00113,2023-12-13_09h59.03.973,vbt_B2_day3,2022.2.4,Win32,61.40997298,,,,,,,,,,,,,,,,,,,,jongelui,images/br_jongelui.png,images/cb_jongelui.png,,jongelui,,,,,,,,,,,-0.014814801,-0.332407422,1,0,0,jongelui,0,42,42,59,1
,,,,,00113,2023-12-13_09h59.03.973,vbt_B2_day3,2022.2.4,Win32,61.40997298,,,,,,,,,,,,,,,,,,,,boeien,images/br_boeien.png,images/cb_boeien.png,,boeien,,,,,,,,,,,-0.014814801,-0.332407422,1,0,0,boeien,0,43,43,8,1
,,,,,00113,2023-12-13_09h59.03.973,vbt_B2_day3,2022.2.4,Win32,61.40997298,,,,,,,,,,,,,,,,,,,,keihard,images/br_keihard.png,images/cb_keihard.png,,krijhard,,,,,,,,,,,-0.010185171,-0.207407422,1,0,0,krijhard,0,44,44,14,1
,,,,,00113,2023-12-13_09h59.03.973,vbt_B2_day3,2022.2.4,Win32,61.40997298,,,,,,,,,,,,,,,,,,,,vlager,images/br_vlager.png,images/cb_vlager.png,,vlager,,,,,,,,,,,0.018518519,-0.338888875,1,0,0,vlager,0,45,45,28,1
,,,,,00113,2023-12-13_09h59.03.973,vbt_B2_day3,2022.2.4,Win32,61.40997298,,,,,,,,,,,,,,,,,,,,onrecht,images/br_onrecht.png,images/cb_onrecht.png,,onrecht,,,,,,,,,,,0.05277782,-0.381481524,1,0,0,onrecht,0,46,46,55,1
,,,,,00113,2023-12-13_09h59.03.973,vbt_B2_day3,2022.2.4,Win32,61.40997298,,,,,,,,,,,,,,,,,,,,eens,images/br_eens.png,images/cb_eens.png,,eens,,,,,,,,,,,0.05277782,-0.381481524,1,0,0,eens,0,47,47,40,1
,,,,,00113,2023-12-13_09h59.03.973,vbt_B2_day3,2022.2.4,Win32,61.40997298,,,,,,,,,,,,,,,,,,,,laken,images/br_laken.png,images/cb_laken.png,,laken,,,,,,,,,,,0.05277782,-0.381481524,1,0,0,laken,0,48,48,5,1
,,,,,00113,2023-12-13_09h59.03.973,vbt_B2_day3,2022.2.4,Win32,61.40997298,,,,,,,,,,,,,,,,,,,,paken,images/br_paken.png,images/cb_paken.png,,pawen,,,,,,,,,,,0.05277782,-0.381481524,1,0,0,pawen,0,49,49,27,1
,,,,,00113,2023-12-13_09h59.03.973,vbt_B2_day3,2022.2.4,Win32,61.40997298,,,,,,,,,,,,,,,,,,,,sultan,images/br_sultan.png,images/cb_sultan.png,,sultan,,,,,,,,,,,0.05277782,-0.381481524,1,0,0,sultan,0,50,50,49,1
,,,,,00113,2023-12-13_09h59.03.973,vbt_B2_day3,2022.2.4,Win32,61.40997298,,,,,,,,,,,,,,,,,,,,gebod,images/br_gebod.png,images/cb_gebod.png,,gebod,,,,,,,,,,,0.05277782,-0.381481524,1,0,0,gebod,0,51,51,45,1
,,,,,00113,2023-12-13_09h59.03.973,vbt_B2_day3,2022.2.4,Win32,61.40997298,,,,,,,,,,,,,,,,,,,,glijden,images/br_glijden.png,images/cb_glijden.png,,glijden,,,,,,,,,,,0.05277782,-0.381481524,1,0,0,glijden,0,52,52,53,1
,,,,,00113,2023-12-13_09h59.03.973,vbt_B2_day3,2022.2.4,Win32,61.40997298,,,,,,,,,,,,,,,,,,,,makieren,images/br_makieren.png,images/cb_makieren.png,,makieren,,,,,,,,,,,0.05277782,-0.381481524,1,0,0,makieren,0,53,53,36,1
,,,,,00113,2023-12-13_09h59.03.973,vbt_B2_day3,2022.2.4,Win32,61.40997298,,,,,,,,,,,,,,,,,,,,leemaken,images/br_leemaken.png,images/cb_leemaken.png,,leemaken,,,,,,,,,,,0.05277782,-0.381481524,1,0,0,leemaken,0,54,54,39,1
,,,,,00113,2023-12-13_09h59.03.973,vbt_B2_day3,2022.2.4,Win32,61.40997298,,,,,,,,,,,,,,,,,,,,hint,images/br_hint.png,images/cb_hint.png,,hint,,,,,,,,,,,0.05277782,-0.381481524,1,0,0,hint,0,55,55,43,1
,,,,,00113,2023-12-13_09h59.03.973,vbt_B2_day3,2022.2.4,Win32,61.40997298,,,,,,,,,,,,,,,,,,,,geluid,images/br_geluid.png,images/cb_geluid.png,,geluid,,,,,,,,,,,0.05277782,-0.381481524,1,0,0,geluid,0,56,56,10,1
,,,,,00113,2023-12-13_09h59.03.973,vbt_B2_day3,2022.2.4,Win32,61.40997298,,,,,,,,,,,,,,,,,,,,bisschop,images/br_bisschop.png,images/cb_bisschop.png,,bisschop,,,,,,,,,,,0.05277782,-0.381481524,1,0,0,bisschop,0,57,57,16,1
,,,,,00113,2023-12-13_09h59.03.973,vbt_B2_day3,2022.2.4,Win32,61.40997298,,,,,,,,,,,,,,,,,,,,zone,images/br_zone.png,images/cb_zone.png,,zose,,,,,,,,,,,0.062962991,-0.425000014,1,0,0,zose,0,58,58,41,1
,,,,,00113,2023-12-13_09h59.03.973,vbt_B2_day3,2022.2.4,Win32,61.40997298,,,,,,,,,,,,,,,,,,,,samen,images/br_samen.png,images/cb_samen.png,,samen,,,,,,,,,,,0.062962991,-0.425000014,1,0,0,samen,0,59,59,7,1
,,,,,00113,2023-12-13_09h59.03.973,vbt_B2_day3,2022.2.4,Win32,61.40997298,,,,,,,,,,,,,,,,,,,,,,,,,,,,,,,,,,,,,,,,,,,,,
