welcome_mouse.x,welcome_mouse.y,welcome_mouse.leftButton,welcome_mouse.midButton,welcome_mouse.rightButton,"ID",date,expName,psychopyVersion,OS,frameRate,participant,trainInstr_mouse.x,trainInstr_mouse.y,trainInstr_mouse.leftButton,trainInstr_mouse.midButton,trainInstr_mouse.rightButton,translation_key.keys,translation_key.corr,translation_key.rt,word_rsp.text,trWrd_mouse.x,trWrd_mouse.y,trWrd_mouse.leftButton,trWrd_mouse.midButton,trWrd_mouse.rightButton,train_loop.thisRepN,train_loop.thisTrialN,train_loop.thisN,train_loop.thisIndex,train_loop.ran,nlWrd,brWrd,cbWrd,test,testResp,mouse.x,mouse.y,mouse.leftButton,mouse.midButton,mouse.rightButton,testInstr_mouse.x,testInstr_mouse.y,testInstr_mouse.leftButton,testInstr_mouse.midButton,testInstr_mouse.rightButton,test_mouse.x,test_mouse.y,test_mouse.leftButton,test_mouse.midButton,test_mouse.rightButton,test_response.text,test_loop.thisRepN,test_loop.thisTrialN,test_loop.thisN,test_loop.thisIndex,test_loop.ran
-0.15,-0.251851908,1,0,0,55987,2023-09-29_09h13.06.226,vbt_B2_day3,2022.2.4,Win32,60.35003018,55987,,,,,,,,,,,,,,,,,,,,,,,,,,,,,,,,,,,,,,,,,,,,,
,,,,,55987,2023-09-29_09h13.06.226,vbt_B2_day3,2022.2.4,Win32,60.35003018,55987,-0.15,-0.251851908,1,0,0,,,,,,,,,,,,,,,,,,,,,,,,,,,,,,,,,,,,,,,,
,,,,,55987,2023-09-29_09h13.06.226,vbt_B2_day3,2022.2.4,Win32,60.35003018,55987,,,,,,down,0,4.8962,,-0.15,-0.251851908,1,0,0,0,0,0,110,1,zuster,images/br_zuster.png,images/cb_zuster.png,0,,,,,,,,,,,,,,,,,,,,,,
,,,,,55987,2023-09-29_09h13.06.226,vbt_B2_day3,2022.2.4,Win32,60.35003018,55987,,,,,,down,0,8.1535,,-0.15,-0.251851908,1,0,0,0,1,1,159,1,sufferd,images/br_sufferd.png,images/cb_sufferd.png,0,,,,,,,,,,,,,,,,,,,,,,
,,,,,55987,2023-09-29_09h13.06.226,vbt_B2_day3,2022.2.4,Win32,60.35003018,55987,,,,,,down,0,4.224,,-0.15,-0.251851908,1,0,0,0,2,2,51,1,samen,images/br_samen.png,images/cb_samen.png,0,,,,,,,,,,,,,,,,,,,,,,
,,,,,55987,2023-09-29_09h13.06.226,vbt_B2_day3,2022.2.4,Win32,60.35003018,55987,,,,,,down,0,31.1863,,-0.15,-0.251851908,1,0,0,0,3,3,176,1,techniek,images/br_techniek.png,images/cb_techniek.png,0,,,,,,,,,,,,,,,,,,,,,,
,,,,,55987,2023-09-29_09h13.06.226,vbt_B2_day3,2022.2.4,Win32,60.35003018,55987,,,,,,down,0,8.5875,,-0.15,-0.251851908,1,0,0,0,4,4,153,1,vervoer,images/br_vervoer.png,images/cb_vervoer.png,0,,,,,,,,,,,,,,,,,,,,,,
,,,,,55987,2023-09-29_09h13.06.226,vbt_B2_day3,2022.2.4,Win32,60.35003018,55987,,,,,,down,0,3.8778,,-0.15,-0.251851908,1,0,0,0,5,5,40,1,schep,images/br_schep.png,images/cb_schep.png,0,,,,,,,,,,,,,,,,,,,,,,
,,,,,55987,2023-09-29_09h13.06.226,vbt_B2_day3,2022.2.4,Win32,60.35003018,55987,,,,,,down,0,5.5261,,-0.15,-0.251851908,1,0,0,0,6,6,61,1,groen,images/br_groen.png,images/cb_groen.png,1,GROEN,,,,,,,,,,,,,,,,,,,,,
,,,,,55987,2023-09-29_09h13.06.226,vbt_B2_day3,2022.2.4,Win32,60.35003018,55987,,,,,,down,0,11.8708,,-0.15,-0.251851908,1,0,0,0,7,7,46,1,jagen,images/br_jagen.png,images/cb_jagen.png,0,,,,,,,,,,,,,,,,,,,,,,
,,,,,55987,2023-09-29_09h13.06.226,vbt_B2_day3,2022.2.4,Win32,60.35003018,55987,,,,,,down,0,7.4464,,-0.158333333,-0.424074131,1,0,0,0,8,8,49,1,laken,images/br_laken.png,images/cb_laken.png,0,,,,,,,,,,,,,,,,,,,,,,
,,,,,55987,2023-09-29_09h13.06.226,vbt_B2_day3,2022.2.4,Win32,60.35003018,55987,,,,,,down,0,8.27,,-0.158333333,-0.424074131,1,0,0,0,9,9,79,1,nodig,images/br_nodig.png,images/cb_nodig.png,0,,,,,,,,,,,,,,,,,,,,,,
,,,,,55987,2023-09-29_09h13.06.226,vbt_B2_day3,2022.2.4,Win32,60.35003018,55987,,,,,,down,0,5.8371,,-0.158333333,-0.424074131,1,0,0,0,10,10,115,1,kleren,images/br_kleren.png,images/cb_kleren.png,0,,,,,,,,,,,,,,,,,,,,,,
,,,,,55987,2023-09-29_09h13.06.226,vbt_B2_day3,2022.2.4,Win32,60.35003018,55987,,,,,,down,0,4.4204,,-0.158333333,-0.424074131,1,0,0,0,11,11,59,1,kring,images/br_kring.png,images/cb_kring.png,0,,,,,,,,,,,,,,,,,,,,,,
,,,,,55987,2023-09-29_09h13.06.226,vbt_B2_day3,2022.2.4,Win32,60.35003018,55987,,,,,,down,0,4.3936,,-0.158333333,-0.424074131,1,0,0,0,12,12,72,1,strak,images/br_strak.png,images/cb_strak.png,0,,,,,,,,,,,,,,,,,,,,,,
,,,,,55987,2023-09-29_09h13.06.226,vbt_B2_day3,2022.2.4,Win32,60.35003018,55987,,,,,,down,0,1.9267,,-0.158333333,-0.424074131,1,0,0,0,13,13,4,1,moes,images/br_moes.png,images/cb_moes.png,0,,,,,,,,,,,,,,,,,,,,,,
,,,,,55987,2023-09-29_09h13.06.226,vbt_B2_day3,2022.2.4,Win32,60.35003018,55987,,,,,,down,0,18.4849,,-0.095370314,-0.332407464,1,0,0,0,14,14,3,1,mand,images/br_mand.png,images/cb_mand.png,0,,,,,,,,,,,,,,,,,,,,,,
,,,,,55987,2023-09-29_09h13.06.226,vbt_B2_day3,2022.2.4,Win32,60.35003018,55987,,,,,,down,0,3.0699,,-0.095370314,-0.332407464,1,0,0,0,15,15,113,1,koppen,images/br_koppen.png,images/cb_koppen.png,0,,,,,,,,,,,,,,,,,,,,,,
,,,,,55987,2023-09-29_09h13.06.226,vbt_B2_day3,2022.2.4,Win32,60.35003018,55987,,,,,,down,0,5.866,,-0.095370314,-0.332407464,1,0,0,0,16,16,186,1,voorraad,images/br_voorraad.png,images/cb_voorraad.png,0,,,,,,,,,,,,,,,,,,,,,,
,,,,,55987,2023-09-29_09h13.06.226,vbt_B2_day3,2022.2.4,Win32,60.35003018,55987,,,,,,down,0,8.5761,,-0.095370314,-0.332407464,1,0,0,0,17,17,155,1,gerucht,images/br_gerucht.png,images/cb_gerucht.png,0,,,,,,,,,,,,,,,,,,,,,,
,,,,,55987,2023-09-29_09h13.06.226,vbt_B2_day3,2022.2.4,Win32,60.35003018,55987,,,,,,down,0,6.3665,,-0.095370314,-0.332407464,1,0,0,0,18,18,94,1,oceaan,images/br_oceaan.png,images/cb_oceaan.png,0,,,,,,,,,,,,,,,,,,,,,,
,,,,,55987,2023-09-29_09h13.06.226,vbt_B2_day3,2022.2.4,Win32,60.35003018,55987,,,,,,down,0,7.1367,,-0.095370314,-0.332407464,1,0,0,0,19,19,114,1,vullen,images/br_vullen.png,images/cb_vullen.png,0,,,,,,,,,,,,,,,,,,,,,,
,,,,,55987,2023-09-29_09h13.06.226,vbt_B2_day3,2022.2.4,Win32,60.35003018,55987,,,,,,down,0,3.0836,,-0.095370314,-0.332407464,1,0,0,0,20,20,135,1,gedicht,images/br_gedicht.png,images/cb_gedicht.png,0,,,,,,,,,,,,,,,,,,,,,,
,,,,,55987,2023-09-29_09h13.06.226,vbt_B2_day3,2022.2.4,Win32,60.35003018,55987,,,,,,down,0,12.6879,,-0.067592536,-0.408333333,1,0,0,0,21,21,63,1,flirt,images/br_flirt.png,images/cb_flirt.png,1,flirt,,,,,,,,,,,,,,,,,,,,,
,,,,,55987,2023-09-29_09h13.06.226,vbt_B2_day3,2022.2.4,Win32,60.35003018,55987,,,,,,down,0,13.3278,,0.428703732,-0.151851866,1,0,0,0,22,22,178,1,huisdier,images/br_huisdier.png,images/cb_huisdier.png,0,,,,,,,,,,,,,,,,,,,,,,
,,,,,55987,2023-09-29_09h13.06.226,vbt_B2_day3,2022.2.4,Win32,60.35003018,55987,,,,,,down,0,3.8856,,0.428703732,-0.151851866,1,0,0,0,23,23,138,1,akkoord,images/br_akkoord.png,images/cb_akkoord.png,0,,,,,,,,,,,,,,,,,,,,,,
,,,,,55987,2023-09-29_09h13.06.226,vbt_B2_day3,2022.2.4,Win32,60.35003018,55987,,,,,,down,0,9.2345,,0.428703732,-0.151851866,1,0,0,0,24,24,85,1,heilig,images/br_heilig.png,images/cb_heilig.png,0,,,,,,,,,,,,,,,,,,,,,,
,,,,,55987,2023-09-29_09h13.06.226,vbt_B2_day3,2022.2.4,Win32,60.35003018,55987,,,,,,down,0,5.1573,,0.428703732,-0.151851866,1,0,0,0,25,25,171,1,aarzelen,images/br_aarzelen.png,images/cb_aarzelen.png,0,,,,,,,,,,,,,,,,,,,,,,
,,,,,55987,2023-09-29_09h13.06.226,vbt_B2_day3,2022.2.4,Win32,60.35003018,55987,,,,,,down,0,7.427,,0.428703732,-0.151851866,1,0,0,0,26,26,147,1,komisch,images/br_komisch.png,images/cb_komisch.png,0,,,,,,,,,,,,,,,,,,,,,,
,,,,,55987,2023-09-29_09h13.06.226,vbt_B2_day3,2022.2.4,Win32,60.35003018,55987,,,,,,down,0,9.9349,,0.428703732,-0.151851866,1,0,0,0,27,27,169,1,oprotten,images/br_oprotten.png,images/cb_oprotten.png,0,,,,,,,,,,,,,,,,,,,,,,
,,,,,55987,2023-09-29_09h13.06.226,vbt_B2_day3,2022.2.4,Win32,60.35003018,55987,,,,,,down,0,8.021,,0.428703732,-0.151851866,1,0,0,0,28,28,38,1,baai,images/br_baai.png,images/cb_baai.png,0,,,,,,,,,,,,,,,,,,,,,,
,,,,,55987,2023-09-29_09h13.06.226,vbt_B2_day3,2022.2.4,Win32,60.35003018,55987,,,,,,down,0,6.492,,0.428703732,-0.151851866,1,0,0,0,29,29,162,1,uitdelen,images/br_uitdelen.png,images/cb_uitdelen.png,0,,,,,,,,,,,,,,,,,,,,,,
,,,,,55987,2023-09-29_09h13.06.226,vbt_B2_day3,2022.2.4,Win32,60.35003018,55987,,,,,,down,0,11.7162,,0.428703732,-0.151851866,1,0,0,0,30,30,128,1,prikken,images/br_prikken.png,images/cb_prikken.png,0,,,,,,,,,,,,,,,,,,,,,,
,,,,,55987,2023-09-29_09h13.06.226,vbt_B2_day3,2022.2.4,Win32,60.35003018,55987,,,,,,down,0,10.8934,,0.428703732,-0.151851866,1,0,0,0,31,31,185,1,mijnheer,images/br_mijnheer.png,images/cb_mijnheer.png,0,,,,,,,,,,,,,,,,,,,,,,
,,,,,55987,2023-09-29_09h13.06.226,vbt_B2_day3,2022.2.4,Win32,60.35003018,55987,,,,,,down,0,6.2752,,0.428703732,-0.151851866,1,0,0,0,32,32,93,1,waarop,images/br_waarop.png,images/cb_waarop.png,0,,,,,,,,,,,,,,,,,,,,,,
,,,,,55987,2023-09-29_09h13.06.226,vbt_B2_day3,2022.2.4,Win32,60.35003018,55987,,,,,,down,0,13.0418,,0.428703732,-0.151851866,1,0,0,0,33,33,41,1,maken,images/br_maken.png,images/cb_maken.png,0,,,,,,,,,,,,,,,,,,,,,,
,,,,,55987,2023-09-29_09h13.06.226,vbt_B2_day3,2022.2.4,Win32,60.35003018,55987,,,,,,down,0,8.9054,,0.428703732,-0.139814843,1,0,0,0,34,34,102,1,legaal,images/br_legaal.png,images/cb_legaal.png,1,legaal,,,,,,,,,,,,,,,,,,,,,
,,,,,55987,2023-09-29_09h13.06.226,vbt_B2_day3,2022.2.4,Win32,60.35003018,55987,,,,,,down,0,17.6348,,0.428703732,-0.139814843,1,0,0,0,35,35,143,1,hechten,images/br_hechten.png,images/cb_hechten.png,1,hechten,,,,,,,,,,,,,,,,,,,,,
,,,,,55987,2023-09-29_09h13.06.226,vbt_B2_day3,2022.2.4,Win32,60.35003018,55987,,,,,,down,0,4.7844,,0.432407464,-0.137037065,1,0,0,0,36,36,27,1,dans,images/br_dans.png,images/cb_dans.png,0,,,,,,,,,,,,,,,,,,,,,,
,,,,,55987,2023-09-29_09h13.06.226,vbt_B2_day3,2022.2.4,Win32,60.35003018,55987,,,,,,down,0,8.6438,,0.43148151,-0.133333333,1,0,0,0,37,37,76,1,afval,images/br_afval.png,images/cb_afval.png,0,,,,,,,,,,,,,,,,,,,,,,
,,,,,55987,2023-09-29_09h13.06.226,vbt_B2_day3,2022.2.4,Win32,60.35003018,55987,,,,,,down,0,5.0914,,0.43148151,-0.133333333,1,0,0,0,38,38,60,1,jasje,images/br_jasje.png,images/cb_jasje.png,1,jasje,,,,,,,,,,,,,,,,,,,,,
,,,,,55987,2023-09-29_09h13.06.226,vbt_B2_day3,2022.2.4,Win32,60.35003018,55987,,,,,,down,0,4.1079,,0.43148151,-0.133333333,1,0,0,0,39,39,156,1,rechten,images/br_rechten.png,images/cb_rechten.png,0,,,,,,,,,,,,,,,,,,,,,,
,,,,,55987,2023-09-29_09h13.06.226,vbt_B2_day3,2022.2.4,Win32,60.35003018,55987,,,,,,down,0,7.2681,,0.43148151,-0.133333333,1,0,0,0,40,40,65,1,parel,images/br_parel.png,images/cb_parel.png,0,,,,,,,,,,,,,,,,,,,,,,
,,,,,55987,2023-09-29_09h13.06.226,vbt_B2_day3,2022.2.4,Win32,60.35003018,55987,,,,,,down,0,5.0896,,0.43148151,-0.133333333,1,0,0,0,41,41,198,1,bedoelen,images/br_bedoelen.png,images/cb_bedoelen.png,0,,,,,,,,,,,,,,,,,,,,,,
,,,,,55987,2023-09-29_09h13.06.226,vbt_B2_day3,2022.2.4,Win32,60.35003018,55987,,,,,,down,0,7.7276,,0.43148151,-0.133333333,1,0,0,0,42,42,160,1,daarheen,images/br_daarheen.png,images/cb_daarheen.png,0,,,,,,,,,,,,,,,,,,,,,,
,,,,,55987,2023-09-29_09h13.06.226,vbt_B2_day3,2022.2.4,Win32,60.35003018,55987,,,,,,down,0,15.5041,,0.43148151,-0.133333333,1,0,0,0,43,43,177,1,maaltijd,images/br_maaltijd.png,images/cb_maaltijd.png,0,,,,,,,,,,,,,,,,,,,,,,
,,,,,55987,2023-09-29_09h13.06.226,vbt_B2_day3,2022.2.4,Win32,60.35003018,55987,,,,,,down,0,1.787,,0.43148151,-0.133333333,1,0,0,0,44,44,150,1,gegeven,images/br_gegeven.png,images/cb_gegeven.png,0,,,,,,,,,,,,,,,,,,,,,,
,,,,,55987,2023-09-29_09h13.06.226,vbt_B2_day3,2022.2.4,Win32,60.35003018,55987,,,,,,down,0,3.7168,,0.43148151,-0.133333333,1,0,0,0,45,45,151,1,aanzoek,images/br_aanzoek.png,images/cb_aanzoek.png,0,,,,,,,,,,,,,,,,,,,,,,
,,,,,55987,2023-09-29_09h13.06.226,vbt_B2_day3,2022.2.4,Win32,60.35003018,55987,,,,,,down,0,2.8888,,0.43148151,-0.133333333,1,0,0,0,46,46,170,1,schatten,images/br_schatten.png,images/cb_schatten.png,0,,,,,,,,,,,,,,,,,,,,,,
,,,,,55987,2023-09-29_09h13.06.226,vbt_B2_day3,2022.2.4,Win32,60.35003018,55987,,,,,,down,0,6.2887,,-0.053703647,-0.304629686,1,0,0,0,47,47,182,1,bijkomen,images/br_bijkomen.png,images/cb_bijkomen.png,1,bejkomen,,,,,,,,,,,,,,,,,,,,,
,,,,,55987,2023-09-29_09h13.06.226,vbt_B2_day3,2022.2.4,Win32,60.35003018,55987,,,,,,down,0,29.1853,,-0.048148092,-0.3,1,0,0,0,48,48,131,1,opzicht,images/br_opzicht.png,images/cb_opzicht.png,0,,,,,,,,,,,,,,,,,,,,,,
,,,,,55987,2023-09-29_09h13.06.226,vbt_B2_day3,2022.2.4,Win32,60.35003018,55987,,,,,,down,0,8.6514,,-0.048148092,-0.3,1,0,0,0,49,49,83,1,mening,images/br_mening.png,images/cb_mening.png,0,,,,,,,,,,,,,,,,,,,,,,
,,,,,55987,2023-09-29_09h13.06.226,vbt_B2_day3,2022.2.4,Win32,60.35003018,55987,,,,,,down,0,14.0203,,-0.048148092,-0.3,1,0,0,0,50,50,130,1,keihard,images/br_keihard.png,images/cb_keihard.png,0,,,,,,,,,,,,,,,,,,,,,,
,,,,,55987,2023-09-29_09h13.06.226,vbt_B2_day3,2022.2.4,Win32,60.35003018,55987,,,,,,down,0,2.1363,,-0.048148092,-0.3,1,0,0,0,51,51,89,1,slapen,images/br_slapen.png,images/cb_slapen.png,0,,,,,,,,,,,,,,,,,,,,,,
,,,,,55987,2023-09-29_09h13.06.226,vbt_B2_day3,2022.2.4,Win32,60.35003018,55987,,,,,,down,0,2.6833,,-0.048148092,-0.3,1,0,0,0,52,52,12,1,kust,images/br_kust.png,images/cb_kust.png,0,,,,,,,,,,,,,,,,,,,,,,
,,,,,55987,2023-09-29_09h13.06.226,vbt_B2_day3,2022.2.4,Win32,60.35003018,55987,,,,,,down,0,2.7005,,-0.048148092,-0.3,1,0,0,0,53,53,58,1,tekst,images/br_tekst.png,images/cb_tekst.png,0,,,,,,,,,,,,,,,,,,,,,,
,,,,,55987,2023-09-29_09h13.06.226,vbt_B2_day3,2022.2.4,Win32,60.35003018,55987,,,,,,down,0,12.2004,,-0.048148092,-0.3,1,0,0,0,54,54,86,1,woning,images/br_woning.png,images/cb_woning.png,0,,,,,,,,,,,,,,,,,,,,,,
,,,,,55987,2023-09-29_09h13.06.226,vbt_B2_day3,2022.2.4,Win32,60.35003018,55987,,,,,,down,0,4.4332,,-0.048148092,-0.3,1,0,0,0,55,55,30,1,uien,images/br_uien.png,images/cb_uien.png,0,,,,,,,,,,,,,,,,,,,,,,
,,,,,55987,2023-09-29_09h13.06.226,vbt_B2_day3,2022.2.4,Win32,60.35003018,55987,,,,,,down,0,3.636,,-0.048148092,-0.3,1,0,0,0,56,56,119,1,liefje,images/br_liefje.png,images/cb_liefje.png,0,,,,,,,,,,,,,,,,,,,,,,
,,,,,55987,2023-09-29_09h13.06.226,vbt_B2_day3,2022.2.4,Win32,60.35003018,55987,,,,,,down,0,7.2393,,-0.048148092,-0.3,1,0,0,0,57,57,120,1,klimmen,images/br_klimmen.png,images/cb_klimmen.png,0,,,,,,,,,,,,,,,,,,,,,,
,,,,,55987,2023-09-29_09h13.06.226,vbt_B2_day3,2022.2.4,Win32,60.35003018,55987,,,,,,down,0,15.7865,,-0.048148092,-0.3,1,0,0,0,58,58,34,1,vorm,images/br_vorm.png,images/cb_vorm.png,0,,,,,,,,,,,,,,,,,,,,,,
,,,,,55987,2023-09-29_09h13.06.226,vbt_B2_day3,2022.2.4,Win32,60.35003018,55987,,,,,,down,0,9.1343,,-0.048148092,-0.3,1,0,0,0,59,59,180,1,openbaar,images/br_openbaar.png,images/cb_openbaar.png,1,openbaar,,,,,,,,,,,,,,,,,,,,,
,,,,,55987,2023-09-29_09h13.06.226,vbt_B2_day3,2022.2.4,Win32,60.35003018,55987,,,,,,down,0,8.8664,,-0.064814758,-0.3,1,0,0,0,60,60,33,1,vlek,images/br_vlek.png,images/cb_vlek.png,0,,,,,,,,,,,,,,,,,,,,,,
,,,,,55987,2023-09-29_09h13.06.226,vbt_B2_day3,2022.2.4,Win32,60.35003018,55987,,,,,,down,0,3.7013,,-0.004629601,-0.240740797,1,0,0,0,61,61,20,1,site,images/br_site.png,images/cb_site.png,1,site,,,,,,,,,,,,,,,,,,,,,
,,,,,55987,2023-09-29_09h13.06.226,vbt_B2_day3,2022.2.4,Win32,60.35003018,55987,,,,,,down,0,4.5578,,-0.004629601,-0.239814843,1,0,0,0,62,62,132,1,grappen,images/br_grappen.png,images/cb_grappen.png,0,,,,,,,,,,,,,,,,,,,,,,
,,,,,55987,2023-09-29_09h13.06.226,vbt_B2_day3,2022.2.4,Win32,60.35003018,55987,,,,,,down,0,12.303,,-0.004629601,-0.239814843,1,0,0,0,63,63,192,1,schaamte,images/br_schaamte.png,images/cb_schaamte.png,0,,,,,,,,,,,,,,,,,,,,,,
,,,,,55987,2023-09-29_09h13.06.226,vbt_B2_day3,2022.2.4,Win32,60.35003018,55987,,,,,,down,0,0.2986,,-0.004629601,-0.239814843,1,0,0,0,64,64,19,1,geit,images/br_geit.png,images/cb_geit.png,0,,,,,,,,,,,,,,,,,,,,,,
,,,,,55987,2023-09-29_09h13.06.226,vbt_B2_day3,2022.2.4,Win32,60.35003018,55987,,,,,,down,0,4.9027,,-0.004629601,-0.239814843,1,0,0,0,65,65,37,1,mijn,images/br_mijn.png,images/cb_mijn.png,0,,,,,,,,,,,,,,,,,,,,,,
,,,,,55987,2023-09-29_09h13.06.226,vbt_B2_day3,2022.2.4,Win32,60.35003018,55987,,,,,,down,0,10.4037,,-0.004629601,-0.239814843,1,0,0,0,66,66,121,1,twijfel,images/br_twijfel.png,images/cb_twijfel.png,0,,,,,,,,,,,,,,,,,,,,,,
,,,,,55987,2023-09-29_09h13.06.226,vbt_B2_day3,2022.2.4,Win32,60.35003018,55987,,,,,,down,0,5.0773,,-0.004629601,-0.239814843,1,0,0,0,67,67,187,1,opkijken,images/br_opkijken.png,images/cb_opkijken.png,0,,,,,,,,,,,,,,,,,,,,,,
,,,,,55987,2023-09-29_09h13.06.226,vbt_B2_day3,2022.2.4,Win32,60.35003018,55987,,,,,,down,0,1.7116,,-0.004629601,-0.239814843,1,0,0,0,68,68,66,1,lever,images/br_lever.png,images/cb_lever.png,0,,,,,,,,,,,,,,,,,,,,,,
,,,,,55987,2023-09-29_09h13.06.226,vbt_B2_day3,2022.2.4,Win32,60.35003018,55987,,,,,,down,0,2.7766,,-0.004629601,-0.239814843,1,0,0,0,69,69,196,1,nakijken,images/br_nakijken.png,images/cb_nakijken.png,0,,,,,,,,,,,,,,,,,,,,,,
,,,,,55987,2023-09-29_09h13.06.226,vbt_B2_day3,2022.2.4,Win32,60.35003018,55987,,,,,,down,0,4.1499,,-0.004629601,-0.239814843,1,0,0,0,70,70,127,1,doodmoe,images/br_doodmoe.png,images/cb_doodmoe.png,0,,,,,,,,,,,,,,,,,,,,,,
,,,,,55987,2023-09-29_09h13.06.226,vbt_B2_day3,2022.2.4,Win32,60.35003018,55987,,,,,,down,0,18.0753,,-0.004629601,-0.239814843,1,0,0,0,71,71,129,1,verhaal,images/br_verhaal.png,images/cb_verhaal.png,0,,,,,,,,,,,,,,,,,,,,,,
,,,,,55987,2023-09-29_09h13.06.226,vbt_B2_day3,2022.2.4,Win32,60.35003018,55987,,,,,,down,0,3.8007,,-0.004629601,-0.239814843,1,0,0,0,72,72,23,1,zout,images/br_zout.png,images/cb_zout.png,1,zout,,,,,,,,,,,,,,,,,,,,,
,,,,,55987,2023-09-29_09h13.06.226,vbt_B2_day3,2022.2.4,Win32,60.35003018,55987,,,,,,down,0,27.853,,-0.004629601,-0.239814843,1,0,0,0,73,73,199,1,beseffen,images/br_beseffen.png,images/cb_beseffen.png,0,,,,,,,,,,,,,,,,,,,,,,
,,,,,55987,2023-09-29_09h13.06.226,vbt_B2_day3,2022.2.4,Win32,60.35003018,55987,,,,,,down,0,5.3835,,-0.004629601,-0.239814843,1,0,0,0,74,74,142,1,snuiven,images/br_snuiven.png,images/cb_snuiven.png,1,snuiven,,,,,,,,,,,,,,,,,,,,,
,,,,,55987,2023-09-29_09h13.06.226,vbt_B2_day3,2022.2.4,Win32,60.35003018,55987,,,,,,down,0,12.734,,-0.004629601,-0.239814843,1,0,0,0,75,75,90,1,geluid,images/br_geluid.png,images/cb_geluid.png,0,,,,,,,,,,,,,,,,,,,,,,
,,,,,55987,2023-09-29_09h13.06.226,vbt_B2_day3,2022.2.4,Win32,60.35003018,55987,,,,,,down,0,4.3347,,-0.004629601,-0.239814843,1,0,0,0,76,76,97,1,loyaal,images/br_loyaal.png,images/cb_loyaal.png,0,,,,,,,,,,,,,,,,,,,,,,
,,,,,55987,2023-09-29_09h13.06.226,vbt_B2_day3,2022.2.4,Win32,60.35003018,55987,,,,,,down,0,4.8759,,-0.004629601,-0.239814843,1,0,0,0,77,77,32,1,palm,images/br_palm.png,images/cb_palm.png,0,,,,,,,,,,,,,,,,,,,,,,
,,,,,55987,2023-09-29_09h13.06.226,vbt_B2_day3,2022.2.4,Win32,60.35003018,55987,,,,,,down,0,6.9911,,-0.004629601,-0.239814843,1,0,0,0,78,78,164,1,anarchie,images/br_anarchie.png,images/cb_anarchie.png,0,,,,,,,,,,,,,,,,,,,,,,
,,,,,55987,2023-09-29_09h13.06.226,vbt_B2_day3,2022.2.4,Win32,60.35003018,55987,,,,,,down,0,8.4108,,0.462037065,-0.219444444,1,0,0,0,79,79,100,1,geduld,images/br_geduld.png,images/cb_geduld.png,1,geduld,,,,,,,,,,,,,,,,,,,,,
,,,,,55987,2023-09-29_09h13.06.226,vbt_B2_day3,2022.2.4,Win32,60.35003018,55987,,,,,,down,0,4.1834,,0.462037065,-0.219444444,1,0,0,0,80,80,96,1,slagen,images/br_slagen.png,images/cb_slagen.png,0,,,,,,,,,,,,,,,,,,,,,,
,,,,,55987,2023-09-29_09h13.06.226,vbt_B2_day3,2022.2.4,Win32,60.35003018,55987,,,,,,down,0,10.4005,,0.462037065,-0.219444444,1,0,0,0,81,81,158,1,innemen,images/br_innemen.png,images/cb_innemen.png,0,,,,,,,,,,,,,,,,,,,,,,
,,,,,55987,2023-09-29_09h13.06.226,vbt_B2_day3,2022.2.4,Win32,60.35003018,55987,,,,,,down,0,6.767,,0.462037065,-0.219444444,1,0,0,0,82,82,84,1,lokken,images/br_lokken.png,images/cb_lokken.png,0,,,,,,,,,,,,,,,,,,,,,,
,,,,,55987,2023-09-29_09h13.06.226,vbt_B2_day3,2022.2.4,Win32,60.35003018,55987,,,,,,down,0,2.8904,,0.462037065,-0.219444444,1,0,0,0,83,83,22,1,stof,images/br_stof.png,images/cb_stof.png,1,stof,,,,,,,,,,,,,,,,,,,,,
,,,,,55987,2023-09-29_09h13.06.226,vbt_B2_day3,2022.2.4,Win32,60.35003018,55987,,,,,,down,0,1.3006,,0.462037065,-0.219444444,1,0,0,0,84,84,28,1,stal,images/br_stal.png,images/cb_stal.png,0,,,,,,,,,,,,,,,,,,,,,,
,,,,,55987,2023-09-29_09h13.06.226,vbt_B2_day3,2022.2.4,Win32,60.35003018,55987,,,,,,down,0,5.2864,,0.462037065,-0.219444444,1,0,0,0,85,85,116,1,besmet,images/br_besmet.png,images/cb_besmet.png,0,,,,,,,,,,,,,,,,,,,,,,
,,,,,55987,2023-09-29_09h13.06.226,vbt_B2_day3,2022.2.4,Win32,60.35003018,55987,,,,,,down,0,8.5482,,0.462037065,-0.219444444,1,0,0,0,86,86,197,1,spanning,images/br_spanning.png,images/cb_spanning.png,0,,,,,,,,,,,,,,,,,,,,,,
,,,,,55987,2023-09-29_09h13.06.226,vbt_B2_day3,2022.2.4,Win32,60.35003018,55987,,,,,,down,0,2.9721,,0.462037065,-0.219444444,1,0,0,0,87,87,172,1,weigeren,images/br_weigeren.png,images/cb_weigeren.png,0,,,,,,,,,,,,,,,,,,,,,,
,,,,,55987,2023-09-29_09h13.06.226,vbt_B2_day3,2022.2.4,Win32,60.35003018,55987,,,,,,down,0,7.4562,,0.462037065,-0.219444444,1,0,0,0,88,88,53,1,baron,images/br_baron.png,images/cb_baron.png,0,,,,,,,,,,,,,,,,,,,,,,
,,,,,55987,2023-09-29_09h13.06.226,vbt_B2_day3,2022.2.4,Win32,60.35003018,55987,,,,,,down,0,2.5047,,0.462037065,-0.219444444,1,0,0,0,89,89,7,1,geld,images/br_geld.png,images/cb_geld.png,0,,,,,,,,,,,,,,,,,,,,,,
,,,,,55987,2023-09-29_09h13.06.226,vbt_B2_day3,2022.2.4,Win32,60.35003018,55987,,,,,,down,0,12.551,,0.462037065,-0.219444444,1,0,0,0,90,90,2,1,jaar,images/br_jaar.png,images/cb_jaar.png,0,,,,,,,,,,,,,,,,,,,,,,
,,,,,55987,2023-09-29_09h13.06.226,vbt_B2_day3,2022.2.4,Win32,60.35003018,55987,,,,,,down,0,8.202,,0.462037065,-0.219444444,1,0,0,0,91,91,44,1,flits,images/br_flits.png,images/cb_flits.png,0,,,,,,,,,,,,,,,,,,,,,,
,,,,,55987,2023-09-29_09h13.06.226,vbt_B2_day3,2022.2.4,Win32,60.35003018,55987,,,,,,down,0,5.7876,,0.462037065,-0.219444444,1,0,0,0,92,92,47,1,kabel,images/br_kabel.png,images/cb_kabel.png,0,,,,,,,,,,,,,,,,,,,,,,
,,,,,55987,2023-09-29_09h13.06.226,vbt_B2_day3,2022.2.4,Win32,60.35003018,55987,,,,,,down,0,9.5004,,0.462037065,-0.219444444,1,0,0,0,93,93,167,1,eenhoorn,images/br_eenhoorn.png,images/cb_eenhoorn.png,0,,,,,,,,,,,,,,,,,,,,,,
,,,,,55987,2023-09-29_09h13.06.226,vbt_B2_day3,2022.2.4,Win32,60.35003018,55987,,,,,,down,0,28.1557,,0.462037065,-0.219444444,1,0,0,0,94,94,149,1,redding,images/br_redding.png,images/cb_redding.png,0,,,,,,,,,,,,,,,,,,,,,,
,,,,,55987,2023-09-29_09h13.06.226,vbt_B2_day3,2022.2.4,Win32,60.35003018,55987,,,,,,down,0,4.9007,,0.462037065,-0.219444444,1,0,0,0,95,95,101,1,staren,images/br_staren.png,images/cb_staren.png,1,staren,,,,,,,,,,,,,,,,,,,,,
,,,,,55987,2023-09-29_09h13.06.226,vbt_B2_day3,2022.2.4,Win32,60.35003018,55987,,,,,,down,0,6.0499,,0.462037065,-0.219444444,1,0,0,0,96,96,103,1,joggen,images/br_joggen.png,images/cb_joggen.png,1,joggen,,,,,,,,,,,,,,,,,,,,,
,,,,,55987,2023-09-29_09h13.06.226,vbt_B2_day3,2022.2.4,Win32,60.35003018,55987,,,,,,down,0,5.6562,,0.462037065,-0.219444444,1,0,0,0,97,97,52,1,wagon,images/br_wagon.png,images/cb_wagon.png,0,,,,,,,,,,,,,,,,,,,,,,
,,,,,55987,2023-09-29_09h13.06.226,vbt_B2_day3,2022.2.4,Win32,60.35003018,55987,,,,,,down,0,0.9155,,0.462037065,-0.219444444,1,0,0,0,98,98,16,1,ziek,images/br_ziek.png,images/cb_ziek.png,0,,,,,,,,,,,,,,,,,,,,,,
,,,,,55987,2023-09-29_09h13.06.226,vbt_B2_day3,2022.2.4,Win32,60.35003018,55987,,,,,,down,0,4.2194,,0.462037065,-0.219444444,1,0,0,0,99,99,188,1,strekken,images/br_strekken.png,images/cb_strekken.png,0,,,,,,,,,,,,,,,,,,,,,,
,,,,,55987,2023-09-29_09h13.06.226,vbt_B2_day3,2022.2.4,Win32,60.35003018,55987,,,,,,down,0,10.4347,,0.462037065,-0.219444444,1,0,0,0,100,100,133,1,seizoen,images/br_seizoen.png,images/cb_seizoen.png,0,,,,,,,,,,,,,,,,,,,,,,
,,,,,55987,2023-09-29_09h13.06.226,vbt_B2_day3,2022.2.4,Win32,60.35003018,55987,,,,,,down,0,9.253,,0.462037065,-0.219444444,1,0,0,0,101,101,105,1,wijlen,images/br_wijlen.png,images/cb_wijlen.png,0,,,,,,,,,,,,,,,,,,,,,,
,,,,,55987,2023-09-29_09h13.06.226,vbt_B2_day3,2022.2.4,Win32,60.35003018,55987,,,,,,down,0,8.6906,,0.462037065,-0.219444444,1,0,0,0,102,102,179,1,woestijn,images/br_woestijn.png,images/cb_woestijn.png,0,,,,,,,,,,,,,,,,,,,,,,
,,,,,55987,2023-09-29_09h13.06.226,vbt_B2_day3,2022.2.4,Win32,60.35003018,55987,,,,,,down,0,19.0622,,0.462037065,-0.220370399,1,0,0,0,103,103,91,1,gezond,images/br_gezond.png,images/cb_gezond.png,0,,,,,,,,,,,,,,,,,,,,,,
,,,,,55987,2023-09-29_09h13.06.226,vbt_B2_day3,2022.2.4,Win32,60.35003018,55987,,,,,,down,0,2.1761,,0.462037065,-0.220370399,1,0,0,0,104,104,25,1,plek,images/br_plek.png,images/cb_plek.png,0,,,,,,,,,,,,,,,,,,,,,,
,,,,,55987,2023-09-29_09h13.06.226,vbt_B2_day3,2022.2.4,Win32,60.35003018,55987,,,,,,down,0,4.8214,,0.462037065,-0.220370399,1,0,0,0,105,105,95,1,vreten,images/br_vreten.png,images/cb_vreten.png,0,,,,,,,,,,,,,,,,,,,,,,
,,,,,55987,2023-09-29_09h13.06.226,vbt_B2_day3,2022.2.4,Win32,60.35003018,55987,,,,,,down,0,13.2113,,0.462037065,-0.220370399,1,0,0,0,106,106,8,1,knie,images/br_knie.png,images/cb_knie.png,0,,,,,,,,,,,,,,,,,,,,,,
,,,,,55987,2023-09-29_09h13.06.226,vbt_B2_day3,2022.2.4,Win32,60.35003018,55987,,,,,,down,0,4.8541,,0.462037065,-0.220370399,1,0,0,0,107,107,189,1,aanraden,images/br_aanraden.png,images/cb_aanraden.png,0,,,,,,,,,,,,,,,,,,,,,,
,,,,,55987,2023-09-29_09h13.06.226,vbt_B2_day3,2022.2.4,Win32,60.35003018,55987,,,,,,down,0,5.9657,,0.462037065,-0.220370399,1,0,0,0,108,108,118,1,vinger,images/br_vinger.png,images/cb_vinger.png,0,,,,,,,,,,,,,,,,,,,,,,
,,,,,55987,2023-09-29_09h13.06.226,vbt_B2_day3,2022.2.4,Win32,60.35003018,55987,,,,,,down,0,5.3689,,0.462037065,-0.220370399,1,0,0,0,109,109,141,1,knielen,images/br_knielen.png,images/cb_knielen.png,1,knielen,,,,,,,,,,,,,,,,,,,,,
,,,,,55987,2023-09-29_09h13.06.226,vbt_B2_day3,2022.2.4,Win32,60.35003018,55987,,,,,,down,0,12.6392,,0.462037065,-0.220370399,1,0,0,0,110,110,145,1,invloed,images/br_invloed.png,images/cb_invloed.png,0,,,,,,,,,,,,,,,,,,,,,,
,,,,,55987,2023-09-29_09h13.06.226,vbt_B2_day3,2022.2.4,Win32,60.35003018,55987,,,,,,down,0,23.0266,,0.462037065,-0.220370399,1,0,0,0,111,111,70,1,ijdel,images/br_ijdel.png,images/cb_ijdel.png,0,,,,,,,,,,,,,,,,,,,,,,
,,,,,55987,2023-09-29_09h13.06.226,vbt_B2_day3,2022.2.4,Win32,60.35003018,55987,,,,,,down,0,12.7317,,0.462037065,-0.220370399,1,0,0,0,112,112,82,1,muziek,images/br_muziek.png,images/cb_muziek.png,0,,,,,,,,,,,,,,,,,,,,,,
,,,,,55987,2023-09-29_09h13.06.226,vbt_B2_day3,2022.2.4,Win32,60.35003018,55987,,,,,,down,0,13.4847,,0.462037065,-0.220370399,1,0,0,0,113,113,80,1,kanjer,images/br_kanjer.png,images/cb_kanjer.png,0,,,,,,,,,,,,,,,,,,,,,,
,,,,,55987,2023-09-29_09h13.06.226,vbt_B2_day3,2022.2.4,Win32,60.35003018,55987,,,,,,down,0,5.9818,,0.462037065,-0.220370399,1,0,0,0,114,114,56,1,traag,images/br_traag.png,images/cb_traag.png,0,,,,,,,,,,,,,,,,,,,,,,
,,,,,55987,2023-09-29_09h13.06.226,vbt_B2_day3,2022.2.4,Win32,60.35003018,55987,,,,,,down,0,5.6077,,0.462037065,-0.220370399,1,0,0,0,115,115,144,1,eetlust,images/br_eetlust.png,images/cb_eetlust.png,0,,,,,,,,,,,,,,,,,,,,,,
,,,,,55987,2023-09-29_09h13.06.226,vbt_B2_day3,2022.2.4,Win32,60.35003018,55987,,,,,,down,0,2.6045,,0.462037065,-0.220370399,1,0,0,0,116,116,134,1,geliefd,images/br_geliefd.png,images/cb_geliefd.png,0,,,,,,,,,,,,,,,,,,,,,,
,,,,,55987,2023-09-29_09h13.06.226,vbt_B2_day3,2022.2.4,Win32,60.35003018,55987,,,,,,down,0,1.735,,0.462037065,-0.220370399,1,0,0,0,117,117,139,1,stiekem,images/br_stiekem.png,images/cb_stiekem.png,0,,,,,,,,,,,,,,,,,,,,,,
,,,,,55987,2023-09-29_09h13.06.226,vbt_B2_day3,2022.2.4,Win32,60.35003018,55987,,,,,,down,0,1.268,,0.462037065,-0.220370399,1,0,0,0,118,118,39,1,laag,images/br_laag.png,images/cb_laag.png,0,,,,,,,,,,,,,,,,,,,,,,
,,,,,55987,2023-09-29_09h13.06.226,vbt_B2_day3,2022.2.4,Win32,60.35003018,55987,,,,,,down,0,3.4591,,0.462037065,-0.220370399,1,0,0,0,119,119,35,1,lust,images/br_lust.png,images/cb_lust.png,0,,,,,,,,,,,,,,,,,,,,,,
,,,,,55987,2023-09-29_09h13.06.226,vbt_B2_day3,2022.2.4,Win32,60.35003018,55987,,,,,,down,0,5.0862,,0.462037065,-0.220370399,1,0,0,0,120,120,26,1,leuk,images/br_leuk.png,images/cb_leuk.png,0,,,,,,,,,,,,,,,,,,,,,,
,,,,,55987,2023-09-29_09h13.06.226,vbt_B2_day3,2022.2.4,Win32,60.35003018,55987,,,,,,down,0,5.0564,,0.462037065,-0.220370399,1,0,0,0,121,121,77,1,woede,images/br_woede.png,images/cb_woede.png,0,,,,,,,,,,,,,,,,,,,,,,
,,,,,55987,2023-09-29_09h13.06.226,vbt_B2_day3,2022.2.4,Win32,60.35003018,55987,,,,,,down,0,1.1794,,0.462037065,-0.220370399,1,0,0,0,122,122,9,1,hier,images/br_hier.png,images/cb_hier.png,0,,,,,,,,,,,,,,,,,,,,,,
,,,,,55987,2023-09-29_09h13.06.226,vbt_B2_day3,2022.2.4,Win32,60.35003018,55987,,,,,,down,0,4.1919,,0.462037065,-0.220370399,1,0,0,0,123,123,106,1,zingen,images/br_zingen.png,images/cb_zingen.png,0,,,,,,,,,,,,,,,,,,,,,,
,,,,,55987,2023-09-29_09h13.06.226,vbt_B2_day3,2022.2.4,Win32,60.35003018,55987,,,,,,down,0,8.2379,,0.462037065,-0.220370399,1,0,0,0,124,124,24,1,jurk,images/br_jurk.png,images/cb_jurk.png,0,,,,,,,,,,,,,,,,,,,,,,
,,,,,55987,2023-09-29_09h13.06.226,vbt_B2_day3,2022.2.4,Win32,60.35003018,55987,,,,,,down,0,4.6338,,0.462037065,-0.220370399,1,0,0,0,125,125,166,1,strikken,images/br_strikken.png,images/cb_strikken.png,0,,,,,,,,,,,,,,,,,,,,,,
,,,,,55987,2023-09-29_09h13.06.226,vbt_B2_day3,2022.2.4,Win32,60.35003018,55987,,,,,,down,0,6.7164,,0.462037065,-0.220370399,1,0,0,0,126,126,87,1,toeval,images/br_toeval.png,images/cb_toeval.png,0,,,,,,,,,,,,,,,,,,,,,,
,,,,,55987,2023-09-29_09h13.06.226,vbt_B2_day3,2022.2.4,Win32,60.35003018,55987,,,,,,down,0,2.5615,,0.462037065,-0.220370399,1,0,0,0,127,127,64,1,wegen,images/br_wegen.png,images/cb_wegen.png,0,,,,,,,,,,,,,,,,,,,,,,
,,,,,55987,2023-09-29_09h13.06.226,vbt_B2_day3,2022.2.4,Win32,60.35003018,55987,,,,,,down,0,3.4836,,0.462037065,-0.220370399,1,0,0,0,128,128,191,1,opheffen,images/br_opheffen.png,images/cb_opheffen.png,0,,,,,,,,,,,,,,,,,,,,,,
,,,,,55987,2023-09-29_09h13.06.226,vbt_B2_day3,2022.2.4,Win32,60.35003018,55987,,,,,,down,0,8.1054,,0.462037065,-0.220370399,1,0,0,0,129,129,81,1,dubbel,images/br_dubbel.png,images/cb_dubbel.png,0,,,,,,,,,,,,,,,,,,,,,,
,,,,,55987,2023-09-29_09h13.06.226,vbt_B2_day3,2022.2.4,Win32,60.35003018,55987,,,,,,down,0,3.2201,,0.462037065,-0.220370399,1,0,0,0,130,130,193,1,weeshuis,images/br_weeshuis.png,images/cb_weeshuis.png,0,,,,,,,,,,,,,,,,,,,,,,
,,,,,55987,2023-09-29_09h13.06.226,vbt_B2_day3,2022.2.4,Win32,60.35003018,55987,,,,,,down,0,3.0555,,0.462037065,-0.220370399,1,0,0,0,131,131,57,1,steek,images/br_steek.png,images/cb_steek.png,0,,,,,,,,,,,,,,,,,,,,,,
,,,,,55987,2023-09-29_09h13.06.226,vbt_B2_day3,2022.2.4,Win32,60.35003018,55987,,,,,,down,0,4.9384,,0.462037065,-0.220370399,0,0,1,0,132,132,107,1,maling,images/br_maling.png,images/cb_maling.png,0,,,,,,,,,,,,,,,,,,,,,,
,,,,,55987,2023-09-29_09h13.06.226,vbt_B2_day3,2022.2.4,Win32,60.35003018,55987,,,,,,down,0,8.5595,,0.355555556,-0.295370399,1,0,0,0,133,133,125,1,aanzien,images/br_aanzien.png,images/cb_aanzien.png,0,,,,,,,,,,,,,,,,,,,,,,
,,,,,55987,2023-09-29_09h13.06.226,vbt_B2_day3,2022.2.4,Win32,60.35003018,55987,,,,,,down,0,8.5175,,0.355555556,-0.295370399,1,0,0,0,134,134,194,1,driemaal,images/br_driemaal.png,images/cb_driemaal.png,0,,,,,,,,,,,,,,,,,,,,,,
,,,,,55987,2023-09-29_09h13.06.226,vbt_B2_day3,2022.2.4,Win32,60.35003018,55987,,,,,,down,0,4.4109,,0.355555556,-0.295370399,1,0,0,0,135,135,43,1,klauw,images/br_klauw.png,images/cb_klauw.png,0,,,,,,,,,,,,,,,,,,,,,,
,,,,,55987,2023-09-29_09h13.06.226,vbt_B2_day3,2022.2.4,Win32,60.35003018,55987,,,,,,down,0,2.0504,,0.355555556,-0.295370399,1,0,0,0,136,136,112,1,lukken,images/br_lukken.png,images/cb_lukken.png,0,,,,,,,,,,,,,,,,,,,,,,
,,,,,55987,2023-09-29_09h13.06.226,vbt_B2_day3,2022.2.4,Win32,60.35003018,55987,,,,,,down,0,2.1171,,0.355555556,-0.295370399,1,0,0,0,137,137,126,1,kasteel,images/br_kasteel.png,images/cb_kasteel.png,0,,,,,,,,,,,,,,,,,,,,,,
,,,,,55987,2023-09-29_09h13.06.226,vbt_B2_day3,2022.2.4,Win32,60.35003018,55987,,,,,,down,0,13.915,,0.355555556,-0.295370399,1,0,0,0,138,138,175,1,heengaan,images/br_heengaan.png,images/cb_heengaan.png,0,,,,,,,,,,,,,,,,,,,,,,
,,,,,55987,2023-09-29_09h13.06.226,vbt_B2_day3,2022.2.4,Win32,60.35003018,55987,,,,,,down,0,9.7275,,0.355555556,-0.295370399,1,0,0,0,139,139,122,1,waarvan,images/br_waarvan.png,images/cb_waarvan.png,0,,,,,,,,,,,,,,,,,,,,,,
,,,,,55987,2023-09-29_09h13.06.226,vbt_B2_day3,2022.2.4,Win32,60.35003018,55987,,,,,,down,0,3.3729,,0.355555556,-0.295370399,1,0,0,0,140,140,124,1,bloeien,images/br_bloeien.png,images/cb_bloeien.png,0,,,,,,,,,,,,,,,,,,,,,,
,,,,,55987,2023-09-29_09h13.06.226,vbt_B2_day3,2022.2.4,Win32,60.35003018,55987,,,,,,down,0,3.3827,,0.355555556,-0.295370399,1,0,0,0,141,141,45,1,piste,images/br_piste.png,images/cb_piste.png,0,,,,,,,,,,,,,,,,,,,,,,
,,,,,55987,2023-09-29_09h13.06.226,vbt_B2_day3,2022.2.4,Win32,60.35003018,55987,,,,,,down,0,7.2361,,0.355555556,-0.295370399,1,0,0,0,142,142,165,1,feestdag,images/br_feestdag.png,images/cb_feestdag.png,0,,,,,,,,,,,,,,,,,,,,,,
,,,,,55987,2023-09-29_09h13.06.226,vbt_B2_day3,2022.2.4,Win32,60.35003018,55987,,,,,,down,0,2.668,,0.355555556,-0.295370399,1,0,0,0,143,143,21,1,mist,images/br_mist.png,images/cb_mist.png,1,mist,,,,,,,,,,,,,,,,,,,,,
,,,,,55987,2023-09-29_09h13.06.226,vbt_B2_day3,2022.2.4,Win32,60.35003018,55987,,,,,,down,0,8.5162,,0.355555556,-0.295370399,1,0,0,0,144,144,98,1,kreeft,images/br_kreeft.png,images/cb_kreeft.png,0,,,,,,,,,,,,,,,,,,,,,,
,,,,,55987,2023-09-29_09h13.06.226,vbt_B2_day3,2022.2.4,Win32,60.35003018,55987,,,,,,down,0,1.8073,,0.355555556,-0.295370399,1,0,0,0,145,145,68,1,schat,images/br_schat.png,images/cb_schat.png,0,,,,,,,,,,,,,,,,,,,,,,
,,,,,55987,2023-09-29_09h13.06.226,vbt_B2_day3,2022.2.4,Win32,60.35003018,55987,,,,,,down,0,2.9498,,0.355555556,-0.295370399,1,0,0,0,146,146,55,1,praat,images/br_praat.png,images/cb_praat.png,0,,,,,,,,,,,,,,,,,,,,,,
,,,,,55987,2023-09-29_09h13.06.226,vbt_B2_day3,2022.2.4,Win32,60.35003018,55987,,,,,,down,0,6.7713,,0.355555556,-0.295370399,1,0,0,0,147,147,161,1,attentie,images/br_attentie.png,images/cb_attentie.png,0,,,,,,,,,,,,,,,,,,,,,,
,,,,,55987,2023-09-29_09h13.06.226,vbt_B2_day3,2022.2.4,Win32,60.35003018,55987,,,,,,down,0,3.0346,,0.355555556,-0.295370399,1,0,0,0,148,148,146,1,opkomen,images/br_opkomen.png,images/cb_opkomen.png,0,,,,,,,,,,,,,,,,,,,,,,
,,,,,55987,2023-09-29_09h13.06.226,vbt_B2_day3,2022.2.4,Win32,60.35003018,55987,,,,,,down,0,2.5718,,0.355555556,-0.295370399,1,0,0,0,149,149,174,1,stemming,images/br_stemming.png,images/cb_stemming.png,0,,,,,,,,,,,,,,,,,,,,,,
,,,,,55987,2023-09-29_09h13.06.226,vbt_B2_day3,2022.2.4,Win32,60.35003018,55987,,,,,,down,0,4.0605,,0.355555556,-0.295370399,1,0,0,0,150,150,137,1,trekker,images/br_trekker.png,images/cb_trekker.png,0,,,,,,,,,,,,,,,,,,,,,,
,,,,,55987,2023-09-29_09h13.06.226,vbt_B2_day3,2022.2.4,Win32,60.35003018,55987,,,,,,down,0,4.434,,0.355555556,-0.295370399,1,0,0,0,151,151,71,1,bever,images/br_bever.png,images/cb_bever.png,0,,,,,,,,,,,,,,,,,,,,,,
,,,,,55987,2023-09-29_09h13.06.226,vbt_B2_day3,2022.2.4,Win32,60.35003018,55987,,,,,,down,0,7.3508,,0.355555556,-0.295370399,1,0,0,0,152,152,173,1,apparaat,images/br_apparaat.png,images/cb_apparaat.png,0,,,,,,,,,,,,,,,,,,,,,,
,,,,,55987,2023-09-29_09h13.06.226,vbt_B2_day3,2022.2.4,Win32,60.35003018,55987,,,,,,down,0,12.1838,,0.355555556,-0.295370399,1,0,0,0,153,153,92,1,geheim,images/br_geheim.png,images/cb_geheim.png,0,,,,,,,,,,,,,,,,,,,,,,
,,,,,55987,2023-09-29_09h13.06.226,vbt_B2_day3,2022.2.4,Win32,60.35003018,55987,,,,,,down,0,3.326,,0.355555556,-0.295370399,1,0,0,0,154,154,163,1,schuilen,images/br_schuilen.png,images/cb_schuilen.png,0,,,,,,,,,,,,,,,,,,,,,,
,,,,,55987,2023-09-29_09h13.06.226,vbt_B2_day3,2022.2.4,Win32,60.35003018,55987,,,,,,down,0,9.3926,,0.355555556,-0.295370399,1,0,0,0,155,155,108,1,excuus,images/br_excuus.png,images/cb_excuus.png,0,,,,,,,,,,,,,,,,,,,,,,
,,,,,55987,2023-09-29_09h13.06.226,vbt_B2_day3,2022.2.4,Win32,60.35003018,55987,,,,,,down,0,6.117,,0.355555556,-0.295370399,1,0,0,0,156,156,104,1,zweven,images/br_zweven.png,images/cb_zweven.png,0,,,,,,,,,,,,,,,,,,,,,,
,,,,,55987,2023-09-29_09h13.06.226,vbt_B2_day3,2022.2.4,Win32,60.35003018,55987,,,,,,down,0,5.6919,,0.355555556,-0.295370399,1,0,0,0,157,157,184,1,aandelen,images/br_aandelen.png,images/cb_aandelen.png,0,,,,,,,,,,,,,,,,,,,,,,
,,,,,55987,2023-09-29_09h13.06.226,vbt_B2_day3,2022.2.4,Win32,60.35003018,55987,,,,,,down,0,11.4565,,0.355555556,-0.295370399,1,0,0,0,158,158,152,1,afnemen,images/br_afnemen.png,images/cb_afnemen.png,0,,,,,,,,,,,,,,,,,,,,,,
,,,,,55987,2023-09-29_09h13.06.226,vbt_B2_day3,2022.2.4,Win32,60.35003018,55987,,,,,,down,0,10.0729,,0.355555556,-0.295370399,1,0,0,0,159,159,181,1,toegeven,images/br_toegeven.png,images/cb_toegeven.png,1,toegeven,,,,,,,,,,,,,,,,,,,,,
,,,,,55987,2023-09-29_09h13.06.226,vbt_B2_day3,2022.2.4,Win32,60.35003018,55987,,,,,,down,0,11.92,,0.355555556,-0.295370399,1,0,0,0,160,160,111,1,ticket,images/br_ticket.png,images/cb_ticket.png,0,,,,,,,,,,,,,,,,,,,,,,
,,,,,55987,2023-09-29_09h13.06.226,vbt_B2_day3,2022.2.4,Win32,60.35003018,55987,,,,,,down,0,1.1662,,0.355555556,-0.295370399,1,0,0,0,161,161,10,1,leek,images/br_leek.png,images/cb_leek.png,0,,,,,,,,,,,,,,,,,,,,,,
,,,,,55987,2023-09-29_09h13.06.226,vbt_B2_day3,2022.2.4,Win32,60.35003018,55987,,,,,,down,0,12.6347,,0.363888889,-0.23148151,1,0,0,0,162,162,140,1,blijven,images/br_blijven.png,images/cb_blijven.png,1,blijven,,,,,,,,,,,,,,,,,,,,,
,,,,,55987,2023-09-29_09h13.06.226,vbt_B2_day3,2022.2.4,Win32,60.35003018,55987,,,,,,down,0,2.9592,,0.363888889,-0.23148151,1,0,0,0,163,163,11,1,mode,images/br_mode.png,images/cb_mode.png,0,,,,,,,,,,,,,,,,,,,,,,
,,,,,55987,2023-09-29_09h13.06.226,vbt_B2_day3,2022.2.4,Win32,60.35003018,55987,,,,,,down,0,6.7256,,0.363888889,-0.23148151,1,0,0,0,164,164,168,1,bisschop,images/br_bisschop.png,images/cb_bisschop.png,0,,,,,,,,,,,,,,,,,,,,,,
,,,,,55987,2023-09-29_09h13.06.226,vbt_B2_day3,2022.2.4,Win32,60.35003018,55987,,,,,,down,0,2.8839,,0.363888889,-0.23148151,1,0,0,0,165,165,73,1,volop,images/br_volop.png,images/cb_volop.png,0,,,,,,,,,,,,,,,,,,,,,,
,,,,,55987,2023-09-29_09h13.06.226,vbt_B2_day3,2022.2.4,Win32,60.35003018,55987,,,,,,down,0,2.1847,,0.363888889,-0.23148151,1,0,0,0,166,166,75,1,snoep,images/br_snoep.png,images/cb_snoep.png,0,,,,,,,,,,,,,,,,,,,,,,
,,,,,55987,2023-09-29_09h13.06.226,vbt_B2_day3,2022.2.4,Win32,60.35003018,55987,,,,,,down,0,0.5424,,0.363888889,-0.23148151,1,0,0,0,167,167,0,1,slak,images/br_slak.png,images/cb_slak.png,0,,,,,,,,,,,,,,,,,,,,,,
,,,,,55987,2023-09-29_09h13.06.226,vbt_B2_day3,2022.2.4,Win32,60.35003018,55987,,,,,,down,0,0.874,,0.363888889,-0.23148151,1,0,0,0,168,168,88,1,boeien,images/br_boeien.png,images/cb_boeien.png,0,,,,,,,,,,,,,,,,,,,,,,
,,,,,55987,2023-09-29_09h13.06.226,vbt_B2_day3,2022.2.4,Win32,60.35003018,55987,,,,,,down,0,4.2884,,0.363888889,-0.23148151,1,0,0,0,169,169,99,1,koffie,images/br_koffie.png,images/cb_koffie.png,0,,,,,,,,,,,,,,,,,,,,,,
,,,,,55987,2023-09-29_09h13.06.226,vbt_B2_day3,2022.2.4,Win32,60.35003018,55987,,,,,,down,0,2.6711,,0.363888889,-0.23148151,1,0,0,0,170,170,148,1,smullen,images/br_smullen.png,images/cb_smullen.png,0,,,,,,,,,,,,,,,,,,,,,,
,,,,,55987,2023-09-29_09h13.06.226,vbt_B2_day3,2022.2.4,Win32,60.35003018,55987,,,,,,down,0,5.7592,,0.363888889,-0.23148151,1,0,0,0,171,171,183,1,getuigen,images/br_getuigen.png,images/cb_getuigen.png,1,getuigen,,,,,,,,,,,,,,,,,,,,,
,,,,,55987,2023-09-29_09h13.06.226,vbt_B2_day3,2022.2.4,Win32,60.35003018,55987,,,,,,down,0,3.5173,,0.363888889,-0.23148151,1,0,0,0,172,172,1,1,zaal,images/br_zaal.png,images/cb_zaal.png,0,,,,,,,,,,,,,,,,,,,,,,
,,,,,55987,2023-09-29_09h13.06.226,vbt_B2_day3,2022.2.4,Win32,60.35003018,55987,,,,,,down,0,3.8194,,0.363888889,-0.23148151,1,0,0,0,173,173,117,1,kennis,images/br_kennis.png,images/cb_kennis.png,0,,,,,,,,,,,,,,,,,,,,,,
,,,,,55987,2023-09-29_09h13.06.226,vbt_B2_day3,2022.2.4,Win32,60.35003018,55987,,,,,,down,0,8.0999,,0.363888889,-0.23148151,1,0,0,0,174,174,69,1,waken,images/br_waken.png,images/cb_waken.png,0,,,,,,,,,,,,,,,,,,,,,,
,,,,,55987,2023-09-29_09h13.06.226,vbt_B2_day3,2022.2.4,Win32,60.35003018,55987,,,,,,down,0,2.1395,,0.363888889,-0.23148151,1,0,0,0,175,175,74,1,graaf,images/br_graaf.png,images/cb_graaf.png,0,,,,,,,,,,,,,,,,,,,,,,
,,,,,55987,2023-09-29_09h13.06.226,vbt_B2_day3,2022.2.4,Win32,60.35003018,55987,,,,,,down,0,2.784,,0.363888889,-0.23148151,1,0,0,0,176,176,54,1,gebit,images/br_gebit.png,images/cb_gebit.png,0,,,,,,,,,,,,,,,,,,,,,,
,,,,,55987,2023-09-29_09h13.06.226,vbt_B2_day3,2022.2.4,Win32,60.35003018,55987,,,,,,down,0,1.5222,,0.363888889,-0.23148151,1,0,0,0,177,177,78,1,leren,images/br_leren.png,images/cb_leren.png,0,,,,,,,,,,,,,,,,,,,,,,
,,,,,55987,2023-09-29_09h13.06.226,vbt_B2_day3,2022.2.4,Win32,60.35003018,55987,,,,,,down,0,1.1491,,0.363888889,-0.23148151,1,0,0,0,178,178,5,1,blad,images/br_blad.png,images/cb_blad.png,0,,,,,,,,,,,,,,,,,,,,,,
,,,,,55987,2023-09-29_09h13.06.226,vbt_B2_day3,2022.2.4,Win32,60.35003018,55987,,,,,,down,0,1.9429,,0.363888889,-0.23148151,1,0,0,0,179,179,36,1,vuur,images/br_vuur.png,images/cb_vuur.png,0,,,,,,,,,,,,,,,,,,,,,,
,,,,,55987,2023-09-29_09h13.06.226,vbt_B2_day3,2022.2.4,Win32,60.35003018,55987,,,,,,down,0,6.084,,0.363888889,-0.23148151,1,0,0,0,180,180,154,1,aflopen,images/br_aflopen.png,images/cb_aflopen.png,0,,,,,,,,,,,,,,,,,,,,,,
,,,,,55987,2023-09-29_09h13.06.226,vbt_B2_day3,2022.2.4,Win32,60.35003018,55987,,,,,,down,0,0.9537,,0.363888889,-0.23148151,1,0,0,0,181,181,6,1,diep,images/br_diep.png,images/cb_diep.png,0,,,,,,,,,,,,,,,,,,,,,,
,,,,,55987,2023-09-29_09h13.06.226,vbt_B2_day3,2022.2.4,Win32,60.35003018,55987,,,,,,down,0,0.7364,,0.363888889,-0.23148151,1,0,0,0,182,182,31,1,poes,images/br_poes.png,images/cb_poes.png,0,,,,,,,,,,,,,,,,,,,,,,
,,,,,55987,2023-09-29_09h13.06.226,vbt_B2_day3,2022.2.4,Win32,60.35003018,55987,,,,,,down,0,10.7003,,0.363888889,-0.23148151,1,0,0,0,183,183,195,1,middelen,images/br_middelen.png,images/cb_middelen.png,0,,,,,,,,,,,,,,,,,,,,,,
,,,,,55987,2023-09-29_09h13.06.226,vbt_B2_day3,2022.2.4,Win32,60.35003018,55987,,,,,,down,0,1.5893,,0.363888889,-0.23148151,1,0,0,0,184,184,18,1,blik,images/br_blik.png,images/cb_blik.png,0,,,,,,,,,,,,,,,,,,,,,,
,,,,,55987,2023-09-29_09h13.06.226,vbt_B2_day3,2022.2.4,Win32,60.35003018,55987,,,,,,down,0,0.6954,,0.363888889,-0.23148151,1,0,0,0,185,185,48,1,steel,images/br_steel.png,images/cb_steel.png,0,,,,,,,,,,,,,,,,,,,,,,
,,,,,55987,2023-09-29_09h13.06.226,vbt_B2_day3,2022.2.4,Win32,60.35003018,55987,,,,,,down,0,5.3442,,0.363888889,-0.23148151,1,0,0,0,186,186,67,1,zwart,images/br_zwart.png,images/cb_zwart.png,0,,,,,,,,,,,,,,,,,,,,,,
,,,,,55987,2023-09-29_09h13.06.226,vbt_B2_day3,2022.2.4,Win32,60.35003018,55987,,,,,,down,0,0.4615,,0.363888889,-0.23148151,1,0,0,0,187,187,50,1,stoom,images/br_stoom.png,images/cb_stoom.png,0,,,,,,,,,,,,,,,,,,,,,,
,,,,,55987,2023-09-29_09h13.06.226,vbt_B2_day3,2022.2.4,Win32,60.35003018,55987,,,,,,down,0,0.0169,,0.363888889,-0.23148151,1,0,0,0,188,188,42,1,bleek,images/br_bleek.png,images/cb_bleek.png,0,,,,,,,,,,,,,,,,,,,,,,
,,,,,55987,2023-09-29_09h13.06.226,vbt_B2_day3,2022.2.4,Win32,60.35003018,55987,,,,,,down,0,5.4186,,0.363888889,-0.23148151,1,0,0,0,189,189,123,1,hiervan,images/br_hiervan.png,images/cb_hiervan.png,0,,,,,,,,,,,,,,,,,,,,,,
,,,,,55987,2023-09-29_09h13.06.226,vbt_B2_day3,2022.2.4,Win32,60.35003018,55987,,,,,,down,0,1.4256,,0.363888889,-0.23148151,1,0,0,0,190,190,109,1,totaal,images/br_totaal.png,images/cb_totaal.png,0,,,,,,,,,,,,,,,,,,,,,,
,,,,,55987,2023-09-29_09h13.06.226,vbt_B2_day3,2022.2.4,Win32,60.35003018,55987,,,,,,down,0,2.207,,0.363888889,-0.23148151,1,0,0,0,191,191,14,1,rijp,images/br_rijp.png,images/cb_rijp.png,0,,,,,,,,,,,,,,,,,,,,,,
,,,,,55987,2023-09-29_09h13.06.226,vbt_B2_day3,2022.2.4,Win32,60.35003018,55987,,,,,,down,0,0.6828,,0.363888889,-0.23148151,1,0,0,0,192,192,13,1,kaal,images/br_kaal.png,images/cb_kaal.png,0,,,,,,,,,,,,,,,,,,,,,,
,,,,,55987,2023-09-29_09h13.06.226,vbt_B2_day3,2022.2.4,Win32,60.35003018,55987,,,,,,down,0,4.6075,,0.363888889,-0.23148151,1,0,0,0,193,193,190,1,goedkoop,images/br_goedkoop.png,images/cb_goedkoop.png,0,,,,,,,,,,,,,,,,,,,,,,
,,,,,55987,2023-09-29_09h13.06.226,vbt_B2_day3,2022.2.4,Win32,60.35003018,55987,,,,,,down,0,1.8835,,0.363888889,-0.23148151,1,0,0,0,194,194,29,1,baas,images/br_baas.png,images/cb_baas.png,0,,,,,,,,,,,,,,,,,,,,,,
,,,,,55987,2023-09-29_09h13.06.226,vbt_B2_day3,2022.2.4,Win32,60.35003018,55987,,,,,,down,0,6.2457,,0.363888889,-0.23148151,1,0,0,0,195,195,15,1,soda,images/br_soda.png,images/cb_soda.png,0,,,,,,,,,,,,,,,,,,,,,,
,,,,,55987,2023-09-29_09h13.06.226,vbt_B2_day3,2022.2.4,Win32,60.35003018,55987,,,,,,down,0,5.0567,,0.363888889,-0.23148151,1,0,0,0,196,196,157,1,uitlaat,images/br_uitlaat.png,images/cb_uitlaat.png,0,,,,,,,,,,,,,,,,,,,,,,
,,,,,55987,2023-09-29_09h13.06.226,vbt_B2_day3,2022.2.4,Win32,60.35003018,55987,,,,,,down,0,8.6659,,0.363888889,-0.23148151,1,0,0,0,197,197,136,1,waarbij,images/br_waarbij.png,images/cb_waarbij.png,0,,,,,,,,,,,,,,,,,,,,,,
,,,,,55987,2023-09-29_09h13.06.226,vbt_B2_day3,2022.2.4,Win32,60.35003018,55987,,,,,,down,0,0.8189,,0.363888889,-0.23148151,1,0,0,0,198,198,17,1,taal,images/br_taal.png,images/cb_taal.png,0,,,,,,,,,,,,,,,,,,,,,,
,,,,,55987,2023-09-29_09h13.06.226,vbt_B2_day3,2022.2.4,Win32,60.35003018,55987,,,,,,down,0,4.2269,,0.363888889,-0.23148151,1,0,0,0,199,199,62,1,knaap,images/br_knaap.png,images/cb_knaap.png,1,knaap,,,,,,,,,,,,,,,,,,,,,
,,,,,55987,2023-09-29_09h13.06.226,vbt_B2_day3,2022.2.4,Win32,60.35003018,55987,,,,,,,,,,,,,,,,,,,,,,,,,0.363888889,-0.23148151,1,0,0,,,,,,,,,,,,,,,,
,,,,,55987,2023-09-29_09h13.06.226,vbt_B2_day3,2022.2.4,Win32,60.35003018,55987,,,,,,,,,,,,,,,,,,,,,,,,,,,,,,0.363888889,-0.23148151,1,0,0,,,,,,,,,,,
,,,,,55987,2023-09-29_09h13.06.226,vbt_B2_day3,2022.2.4,Win32,60.35003018,55987,,,,,,,,,,,,,,,,,,,,keihard,images/br_keihard.png,images/cb_keihard.png,,keihard,,,,,,,,,,,0.363888889,-0.23148151,1,0,0,keihard,0,0,0,14,1
,,,,,55987,2023-09-29_09h13.06.226,vbt_B2_day3,2022.2.4,Win32,60.35003018,55987,,,,,,,,,,,,,,,,,,,,opzetten,images/br_opzetten.png,images/cb_opzetten.png,,opzetten,,,,,,,,,,,0.363888889,-0.23148151,1,0,0,opzetten,0,1,1,56,1
,,,,,55987,2023-09-29_09h13.06.226,vbt_B2_day3,2022.2.4,Win32,60.35003018,55987,,,,,,,,,,,,,,,,,,,,eens,images/br_eens.png,images/cb_eens.png,,eens,,,,,,,,,,,0.363888889,-0.23148151,1,0,0,eens,0,2,2,40,1
,,,,,55987,2023-09-29_09h13.06.226,vbt_B2_day3,2022.2.4,Win32,60.35003018,55987,,,,,,,,,,,,,,,,,,,,hier,images/br_hier.png,images/cb_hier.png,,hier,,,,,,,,,,,0.370370399,-0.299074131,1,0,0,hier,0,3,3,1,1
,,,,,55987,2023-09-29_09h13.06.226,vbt_B2_day3,2022.2.4,Win32,60.35003018,55987,,,,,,,,,,,,,,,,,,,,jongelui,images/br_jongelui.png,images/cb_jongelui.png,,.....,,,,,,,,,,,0.370370399,-0.299074131,1,0,0,.....,0,4,4,59,1
,,,,,55987,2023-09-29_09h13.06.226,vbt_B2_day3,2022.2.4,Win32,60.35003018,55987,,,,,,,,,,,,,,,,,,,,brappen,images/br_brappen.png,images/cb_brappen.png,,brappen,,,,,,,,,,,0.370370399,-0.299074131,1,0,0,brappen,0,5,5,35,1
,,,,,55987,2023-09-29_09h13.06.226,vbt_B2_day3,2022.2.4,Win32,60.35003018,55987,,,,,,,,,,,,,,,,,,,,stoom,images/br_stoom.png,images/cb_stoom.png,,stoom,,,,,,,,,,,0.370370399,-0.299074131,1,0,0,stoom,0,6,6,6,1
,,,,,55987,2023-09-29_09h13.06.226,vbt_B2_day3,2022.2.4,Win32,60.35003018,55987,,,,,,,,,,,,,,,,,,,,sultan,images/br_sultan.png,images/cb_sultan.png,,sultan,,,,,,,,,,,0.370370399,-0.299074131,1,0,0,sultan,0,7,7,49,1
,,,,,55987,2023-09-29_09h13.06.226,vbt_B2_day3,2022.2.4,Win32,60.35003018,55987,,,,,,,,,,,,,,,,,,,,glijden,images/br_glijden.png,images/cb_glijden.png,,glijden,,,,,,,,,,,0.370370399,-0.299074131,1,0,0,glijden,0,8,8,53,1
,,,,,55987,2023-09-29_09h13.06.226,vbt_B2_day3,2022.2.4,Win32,60.35003018,55987,,,,,,,,,,,,,,,,,,,,twaaf,images/br_twaaf.png,images/cb_twaaf.png,,twaaf,,,,,,,,,,,0.370370399,-0.299074131,1,0,0,twaaf,0,9,9,24,1
,,,,,55987,2023-09-29_09h13.06.226,vbt_B2_day3,2022.2.4,Win32,60.35003018,55987,,,,,,,,,,,,,,,,,,,,bisschop,images/br_bisschop.png,images/cb_bisschop.png,,besschof.,,,,,,,,,,,0.370370399,-0.299074131,1,0,0,besschof.,0,10,10,16,1
,,,,,55987,2023-09-29_09h13.06.226,vbt_B2_day3,2022.2.4,Win32,60.35003018,55987,,,,,,,,,,,,,,,,,,,,booien,images/br_booien.png,images/cb_booien.png,,booie.,,,,,,,,,,,0.370370399,-0.299074131,1,0,0,booie.,0,11,11,31,1
,,,,,55987,2023-09-29_09h13.06.226,vbt_B2_day3,2022.2.4,Win32,60.35003018,55987,,,,,,,,,,,,,,,,,,,,verhaal,images/br_verhaal.png,images/cb_verhaal.png,,verhaal,,,,,,,,,,,0.370370399,-0.299074131,1,0,0,verhaal,0,12,12,13,1
,,,,,55987,2023-09-29_09h13.06.226,vbt_B2_day3,2022.2.4,Win32,60.35003018,55987,,,,,,,,,,,,,,,,,,,,prikken,images/br_prikken.png,images/cb_prikken.png,,prikken,,,,,,,,,,,0.370370399,-0.299074131,1,0,0,prikken,0,13,13,12,1
,,,,,55987,2023-09-29_09h13.06.226,vbt_B2_day3,2022.2.4,Win32,60.35003018,55987,,,,,,,,,,,,,,,,,,,,gebod,images/br_gebod.png,images/cb_gebod.png,,gebod,,,,,,,,,,,0.370370399,-0.304629686,1,0,0,gebod,0,14,14,45,1
,,,,,55987,2023-09-29_09h13.06.226,vbt_B2_day3,2022.2.4,Win32,60.35003018,55987,,,,,,,,,,,,,,,,,,,,bevret,images/br_bevret.png,images/cb_bevret.png,,bevref,,,,,,,,,,,0.370370399,-0.304629686,1,0,0,bevref,0,15,15,30,1
,,,,,55987,2023-09-29_09h13.06.226,vbt_B2_day3,2022.2.4,Win32,60.35003018,55987,,,,,,,,,,,,,,,,,,,,hint,images/br_hint.png,images/cb_hint.png,,hint,,,,,,,,,,,0.370370399,-0.304629686,1,0,0,hint,0,16,16,43,1
,,,,,55987,2023-09-29_09h13.06.226,vbt_B2_day3,2022.2.4,Win32,60.35003018,55987,,,,,,,,,,,,,,,,,,,,invallen,images/br_invallen.png,images/cb_invallen.png,,invall..,,,,,,,,,,,0.370370399,-0.304629686,1,0,0,invall..,0,17,17,57,1
,,,,,55987,2023-09-29_09h13.06.226,vbt_B2_day3,2022.2.4,Win32,60.35003018,55987,,,,,,,,,,,,,,,,,,,,schatten,images/br_schatten.png,images/cb_schatten.png,,schatten,,,,,,,,,,,0.370370399,-0.304629686,1,0,0,schatten,0,18,18,18,1
,,,,,55987,2023-09-29_09h13.06.226,vbt_B2_day3,2022.2.4,Win32,60.35003018,55987,,,,,,,,,,,,,,,,,,,,sluier,images/br_sluier.png,images/cb_sluier.png,,sluier,,,,,,,,,,,0.217592621,-0.325925954,1,0,0,sluier,0,19,19,50,1
,,,,,55987,2023-09-29_09h13.06.226,vbt_B2_day3,2022.2.4,Win32,60.35003018,55987,,,,,,,,,,,,,,,,,,,,makieren,images/br_makieren.png,images/cb_makieren.png,,makie....,,,,,,,,,,,0.217592621,-0.325925954,1,0,0,makie....,0,20,20,36,1
,,,,,55987,2023-09-29_09h13.06.226,vbt_B2_day3,2022.2.4,Win32,60.35003018,55987,,,,,,,,,,,,,,,,,,,,knie,images/br_knie.png,images/cb_knie.png,,knie,,,,,,,,,,,0.217592621,-0.325925954,1,0,0,knie,0,21,21,0,1
,,,,,55987,2023-09-29_09h13.06.226,vbt_B2_day3,2022.2.4,Win32,60.35003018,55987,,,,,,,,,,,,,,,,,,,,paken,images/br_paken.png,images/cb_paken.png,,paken,,,,,,,,,,,0.217592621,-0.325925954,1,0,0,paken,0,22,22,27,1
,,,,,55987,2023-09-29_09h13.06.226,vbt_B2_day3,2022.2.4,Win32,60.35003018,55987,,,,,,,,,,,,,,,,,,,,beslag,images/br_beslag.png,images/cb_beslag.png,,beslag,,,,,,,,,,,0.217592621,-0.325925954,1,0,0,beslag,0,23,23,51,1
,,,,,55987,2023-09-29_09h13.06.226,vbt_B2_day3,2022.2.4,Win32,60.35003018,55987,,,,,,,,,,,,,,,,,,,,verraden,images/br_verraden.png,images/cb_verraden.png,,bevrad...,,,,,,,,,,,0.217592621,-0.325925954,1,0,0,bevrad...,0,24,24,58,1
,,,,,55987,2023-09-29_09h13.06.226,vbt_B2_day3,2022.2.4,Win32,60.35003018,55987,,,,,,,,,,,,,,,,,,,,mugeek,images/br_mugeek.png,images/cb_mugeek.png,,mugeek,,,,,,,,,,,0.217592621,-0.325925954,1,0,0,mugeek,0,25,25,29,1
,,,,,55987,2023-09-29_09h13.06.226,vbt_B2_day3,2022.2.4,Win32,60.35003018,55987,,,,,,,,,,,,,,,,,,,,opzicht,images/br_opzicht.png,images/cb_opzicht.png,,opzich,,,,,,,,,,,0.217592621,-0.325925954,1,0,0,opzich,0,26,26,15,1
,,,,,55987,2023-09-29_09h13.06.226,vbt_B2_day3,2022.2.4,Win32,60.35003018,55987,,,,,,,,,,,,,,,,,,,,uniek,images/br_uniek.png,images/cb_uniek.png,,uniek,,,,,,,,,,,0.217592621,-0.325925954,1,0,0,uniek,0,27,27,46,1
,,,,,55987,2023-09-29_09h13.06.226,vbt_B2_day3,2022.2.4,Win32,60.35003018,55987,,,,,,,,,,,,,,,,,,,,stikken,images/br_stikken.png,images/cb_stikken.png,,stikken,,,,,,,,,,,0.217592621,-0.325925954,1,0,0,stikken,0,28,28,54,1
,,,,,55987,2023-09-29_09h13.06.226,vbt_B2_day3,2022.2.4,Win32,60.35003018,55987,,,,,,,,,,,,,,,,,,,,boeien,images/br_boeien.png,images/cb_boeien.png,,boeien,,,,,,,,,,,0.217592621,-0.325925954,1,0,0,boeien,0,29,29,8,1
,,,,,55987,2023-09-29_09h13.06.226,vbt_B2_day3,2022.2.4,Win32,60.35003018,55987,,,,,,,,,,,,,,,,,,,,gout,images/br_gout.png,images/cb_gout.png,,gout,,,,,,,,,,,0.217592621,-0.325925954,1,0,0,gout,0,30,30,20,1
,,,,,55987,2023-09-29_09h13.06.226,vbt_B2_day3,2022.2.4,Win32,60.35003018,55987,,,,,,,,,,,,,,,,,,,,leugeren,images/br_leugeren.png,images/cb_leugeren.png,,luigeren,,,,,,,,,,,0.217592621,-0.325925954,1,0,0,luigeren,0,31,31,37,1
,,,,,55987,2023-09-29_09h13.06.226,vbt_B2_day3,2022.2.4,Win32,60.35003018,55987,,,,,,,,,,,,,,,,,,,,mode,images/br_mode.png,images/cb_mode.png,,mode,,,,,,,,,,,0.217592621,-0.325925954,1,0,0,mode,0,32,32,3,1
,,,,,55987,2023-09-29_09h13.06.226,vbt_B2_day3,2022.2.4,Win32,60.35003018,55987,,,,,,,,,,,,,,,,,,,,verwoor,images/br_verwoor.png,images/cb_verwoor.png,,merwaa.,,,,,,,,,,,0.217592621,-0.325925954,1,0,0,merwaa.,0,33,33,32,1
,,,,,55987,2023-09-29_09h13.06.226,vbt_B2_day3,2022.2.4,Win32,60.35003018,55987,,,,,,,,,,,,,,,,,,,,kaas,images/br_kaas.png,images/cb_kaas.png,,kaas,,,,,,,,,,,0.217592621,-0.325925954,1,0,0,kaas,0,34,34,42,1
,,,,,55987,2023-09-29_09h13.06.226,vbt_B2_day3,2022.2.4,Win32,60.35003018,55987,,,,,,,,,,,,,,,,,,,,onrecht,images/br_onrecht.png,images/cb_onrecht.png,,onrecht,,,,,,,,,,,0.217592621,-0.325925954,1,0,0,onrecht,0,35,35,55,1
,,,,,55987,2023-09-29_09h13.06.226,vbt_B2_day3,2022.2.4,Win32,60.35003018,55987,,,,,,,,,,,,,,,,,,,,afbopen,images/br_afbopen.png,images/cb_afbopen.png,,afbopen,,,,,,,,,,,0.217592621,-0.325925954,1,0,0,afbopen,0,36,36,34,1
,,,,,55987,2023-09-29_09h13.06.226,vbt_B2_day3,2022.2.4,Win32,60.35003018,55987,,,,,,,,,,,,,,,,,,,,oprotten,images/br_oprotten.png,images/cb_oprotten.png,,oprotten,,,,,,,,,,,0.217592621,-0.325925954,1,0,0,oprotten,0,37,37,17,1
,,,,,55987,2023-09-29_09h13.06.226,vbt_B2_day3,2022.2.4,Win32,60.35003018,55987,,,,,,,,,,,,,,,,,,,,kest,images/br_kest.png,images/cb_kest.png,,kest,,,,,,,,,,,0.217592621,-0.325925954,1,0,0,kest,0,38,38,21,1
,,,,,55987,2023-09-29_09h13.06.226,vbt_B2_day3,2022.2.4,Win32,60.35003018,55987,,,,,,,,,,,,,,,,,,,,geluid,images/br_geluid.png,images/cb_geluid.png,,geluid,,,,,,,,,,,0.217592621,-0.325925954,1,0,0,geluid,0,39,39,10,1
,,,,,55987,2023-09-29_09h13.06.226,vbt_B2_day3,2022.2.4,Win32,60.35003018,55987,,,,,,,,,,,,,,,,,,,,theeting,images/br_theeting.png,images/cb_theeting.png,,theet....,,,,,,,,,,,0.217592621,-0.325925954,1,0,0,theet....,0,40,40,38,1
,,,,,55987,2023-09-29_09h13.06.226,vbt_B2_day3,2022.2.4,Win32,60.35003018,55987,,,,,,,,,,,,,,,,,,,,schodel,images/br_schodel.png,images/cb_schodel.png,,schodel,,,,,,,,,,,0.217592621,-0.325925954,1,0,0,schodel,0,41,41,33,1
,,,,,55987,2023-09-29_09h13.06.226,vbt_B2_day3,2022.2.4,Win32,60.35003018,55987,,,,,,,,,,,,,,,,,,,,croo,images/br_croo.png,images/cb_croo.png,,croo,,,,,,,,,,,0.217592621,-0.325925954,1,0,0,croo,0,42,42,22,1
,,,,,55987,2023-09-29_09h13.06.226,vbt_B2_day3,2022.2.4,Win32,60.35003018,55987,,,,,,,,,,,,,,,,,,,,alsof,images/br_alsof.png,images/cb_alsof.png,,alsof,,,,,,,,,,,0.217592621,-0.325925954,1,0,0,alsof,0,43,43,44,1
,,,,,55987,2023-09-29_09h13.06.226,vbt_B2_day3,2022.2.4,Win32,60.35003018,55987,,,,,,,,,,,,,,,,,,,,begrip,images/br_begrip.png,images/cb_begrip.png,,begrip,,,,,,,,,,,0.382407464,-0.294444444,1,0,0,begrip,0,44,44,48,1
,,,,,55987,2023-09-29_09h13.06.226,vbt_B2_day3,2022.2.4,Win32,60.35003018,55987,,,,,,,,,,,,,,,,,,,,uviek,images/br_uviek.png,images/cb_uviek.png,,ufiek,,,,,,,,,,,0.382407464,-0.294444444,1,0,0,ufiek,0,45,45,25,1
,,,,,55987,2023-09-29_09h13.06.226,vbt_B2_day3,2022.2.4,Win32,60.35003018,55987,,,,,,,,,,,,,,,,,,,,leek,images/br_leek.png,images/cb_leek.png,,leek,,,,,,,,,,,0.382407464,-0.294444444,1,0,0,leek,0,46,46,2,1
,,,,,55987,2023-09-29_09h13.06.226,vbt_B2_day3,2022.2.4,Win32,60.35003018,55987,,,,,,,,,,,,,,,,,,,,gezond,images/br_gezond.png,images/cb_gezond.png,,gezond,,,,,,,,,,,0.382407464,-0.294444444,1,0,0,gezond,0,47,47,11,1
,,,,,55987,2023-09-29_09h13.06.226,vbt_B2_day3,2022.2.4,Win32,60.35003018,55987,,,,,,,,,,,,,,,,,,,,aarzelen,images/br_aarzelen.png,images/cb_aarzelen.png,,aarzelen,,,,,,,,,,,0.500925954,-0.239814843,1,0,0,aarzelen,0,48,48,19,1
,,,,,55987,2023-09-29_09h13.06.226,vbt_B2_day3,2022.2.4,Win32,60.35003018,55987,,,,,,,,,,,,,,,,,,,,zone,images/br_zone.png,images/cb_zone.png,,zone,,,,,,,,,,,0.564814928,-0.315740797,1,0,0,zone,0,49,49,41,1
,,,,,55987,2023-09-29_09h13.06.226,vbt_B2_day3,2022.2.4,Win32,60.35003018,55987,,,,,,,,,,,,,,,,,,,,vlager,images/br_vlager.png,images/cb_vlager.png,,vlager,,,,,,,,,,,0.403703732,-0.316666667,1,0,0,vlager,0,50,50,28,1
,,,,,55987,2023-09-29_09h13.06.226,vbt_B2_day3,2022.2.4,Win32,60.35003018,55987,,,,,,,,,,,,,,,,,,,,laken,images/br_laken.png,images/cb_laken.png,,laken,,,,,,,,,,,0.403703732,-0.316666667,1,0,0,laken,0,51,51,5,1
,,,,,55987,2023-09-29_09h13.06.226,vbt_B2_day3,2022.2.4,Win32,60.35003018,55987,,,,,,,,,,,,,,,,,,,,hust,images/br_hust.png,images/cb_hust.png,,hust,,,,,,,,,,,0.403703732,-0.316666667,1,0,0,hust,0,52,52,23,1
,,,,,55987,2023-09-29_09h13.06.226,vbt_B2_day3,2022.2.4,Win32,60.35003018,55987,,,,,,,,,,,,,,,,,,,,leemaken,images/br_leemaken.png,images/cb_leemaken.png,,leemakker,,,,,,,,,,,0.290740797,-0.315740797,1,0,0,leemakker,0,53,53,39,1
,,,,,55987,2023-09-29_09h13.06.226,vbt_B2_day3,2022.2.4,Win32,60.35003018,55987,,,,,,,,,,,,,,,,,,,,steel,images/br_steel.png,images/cb_steel.png,,steel,,,,,,,,,,,0.290740797,-0.315740797,1,0,0,steel,0,54,54,4,1
,,,,,55987,2023-09-29_09h13.06.226,vbt_B2_day3,2022.2.4,Win32,60.35003018,55987,,,,,,,,,,,,,,,,,,,,dwang,images/br_dwang.png,images/cb_dwang.png,,dwan.,,,,,,,,,,,0.413888889,-0.363888889,1,0,0,dwan.,0,55,55,47,1
,,,,,55987,2023-09-29_09h13.06.226,vbt_B2_day3,2022.2.4,Win32,60.35003018,55987,,,,,,,,,,,,,,,,,,,,stallen,images/br_stallen.png,images/cb_stallen.png,,stallen,,,,,,,,,,,0.413888889,-0.363888889,1,0,0,stallen,0,56,56,52,1
,,,,,55987,2023-09-29_09h13.06.226,vbt_B2_day3,2022.2.4,Win32,60.35003018,55987,,,,,,,,,,,,,,,,,,,,kwaas,images/br_kwaas.png,images/cb_kwaas.png,,kwaas,,,,,,,,,,,0.413888889,-0.363888889,1,0,0,kwaas,0,57,57,26,1
,,,,,55987,2023-09-29_09h13.06.226,vbt_B2_day3,2022.2.4,Win32,60.35003018,55987,,,,,,,,,,,,,,,,,,,,samen,images/br_samen.png,images/cb_samen.png,,samen,,,,,,,,,,,0.462963019,-0.325,1,0,0,samen,0,58,58,7,1
,,,,,55987,2023-09-29_09h13.06.226,vbt_B2_day3,2022.2.4,Win32,60.35003018,55987,,,,,,,,,,,,,,,,,,,,slapen,images/br_slapen.png,images/cb_slapen.png,,slapen,,,,,,,,,,,0.473148176,-0.30648151,1,0,0,slapen,0,59,59,9,1
,,,,,55987,2023-09-29_09h13.06.226,vbt_B2_day3,2022.2.4,Win32,60.35003018,55987,,,,,,,,,,,,,,,,,,,,,,,,,,,,,,,,,,,,,,,,,,,,,
