welcome_mouse.x,welcome_mouse.y,welcome_mouse.leftButton,welcome_mouse.midButton,welcome_mouse.rightButton,"ID",date,expName,psychopyVersion,OS,frameRate,trainInstr_mouse.x,trainInstr_mouse.y,trainInstr_mouse.leftButton,trainInstr_mouse.midButton,trainInstr_mouse.rightButton,translation_key.keys,translation_key.corr,translation_key.rt,word_rsp.text,trWrd_mouse.x,trWrd_mouse.y,trWrd_mouse.leftButton,trWrd_mouse.midButton,trWrd_mouse.rightButton,train_loop.thisRepN,train_loop.thisTrialN,train_loop.thisN,train_loop.thisIndex,train_loop.ran,nlWrd,brWrd,cbWrd,test,testResp,mouse.x,mouse.y,mouse.leftButton,mouse.midButton,mouse.rightButton,testInstr_mouse.x,testInstr_mouse.y,testInstr_mouse.leftButton,testInstr_mouse.midButton,testInstr_mouse.rightButton,test_mouse.x,test_mouse.y,test_mouse.leftButton,test_mouse.midButton,test_mouse.rightButton,test_response.text,test_loop.thisRepN,test_loop.thisTrialN,test_loop.thisN,test_loop.thisIndex,test_loop.ran
0.083333333,-0.014814843,1,0,0,00067,2023-10-19_14h03.33.825,vbt_B2_day3,2022.2.4,Win32,59.80861244,,,,,,,,,,,,,,,,,,,,,,,,,,,,,,,,,,,,,,,,,,,,,
,,,,,00067,2023-10-19_14h03.33.825,vbt_B2_day3,2022.2.4,Win32,59.80861244,0.375925954,0.275462956,1,0,0,,,,,,,,,,,,,,,,,,,,,,,,,,,,,,,,,,,,,,,,
,,,,,00067,2023-10-19_14h03.33.825,vbt_B2_day3,2022.2.4,Win32,59.80861244,,,,,,down,0,4.4865,,0.376851908,0.283333333,1,0,0,0,0,0,93,1,waarop,images/br_waarop.png,images/cb_waarop.png,0,,,,,,,,,,,,,,,,,,,,,,
,,,,,00067,2023-10-19_14h03.33.825,vbt_B2_day3,2022.2.4,Win32,59.80861244,,,,,,down,0,3.9147,,0.376851908,0.283333333,1,0,0,0,1,1,120,1,klimmen,images/br_klimmen.png,images/cb_klimmen.png,0,,,,,,,,,,,,,,,,,,,,,,
,,,,,00067,2023-10-19_14h03.33.825,vbt_B2_day3,2022.2.4,Win32,59.80861244,,,,,,down,0,5.2863,,0.376851908,0.283333333,1,0,0,0,2,2,49,1,laken,images/br_laken.png,images/cb_laken.png,0,,,,,,,,,,,,,,,,,,,,,,
,,,,,00067,2023-10-19_14h03.33.825,vbt_B2_day3,2022.2.4,Win32,59.80861244,,,,,,down,0,6.7571,,0.376851908,0.283333333,1,0,0,0,3,3,20,1,site,images/br_site.png,images/cb_site.png,1,sitesite,,,,,,,,,,,,,,,,,,,,,
,,,,,00067,2023-10-19_14h03.33.825,vbt_B2_day3,2022.2.4,Win32,59.80861244,,,,,,down,0,5.3091,,0.377777778,0.283333333,1,0,0,0,4,4,53,1,baron,images/br_baron.png,images/cb_baron.png,0,,,,,,,,,,,,,,,,,,,,,,
,,,,,00067,2023-10-19_14h03.33.825,vbt_B2_day3,2022.2.4,Win32,59.80861244,,,,,,down,0,1.9997,,0.499074131,0.072222222,1,0,0,0,5,5,82,1,muziek,images/br_muziek.png,images/cb_muziek.png,0,,,,,,,,,,,,,,,,,,,,,,
,,,,,00067,2023-10-19_14h03.33.825,vbt_B2_day3,2022.2.4,Win32,59.80861244,,,,,,down,0,0.743,,0.499074131,0.072222222,1,0,0,0,6,6,114,1,vullen,images/br_vullen.png,images/cb_vullen.png,0,,,,,,,,,,,,,,,,,,,,,,
,,,,,00067,2023-10-19_14h03.33.825,vbt_B2_day3,2022.2.4,Win32,59.80861244,,,,,,down,0,4.0013,,0.499074131,0.072222222,1,0,0,0,7,7,63,1,flirt,images/br_flirt.png,images/cb_flirt.png,1,flirt,,,,,,,,,,,,,,,,,,,,,
,,,,,00067,2023-10-19_14h03.33.825,vbt_B2_day3,2022.2.4,Win32,59.80861244,,,,,,down,0,2.125,,0.498611111,0.072222222,1,0,0,0,8,8,5,1,blad,images/br_blad.png,images/cb_blad.png,0,,,,,,,,,,,,,,,,,,,,,,
,,,,,00067,2023-10-19_14h03.33.825,vbt_B2_day3,2022.2.4,Win32,59.80861244,,,,,,down,0,9.632,,0.498611111,0.072222222,1,0,0,0,9,9,178,1,huisdier,images/br_huisdier.png,images/cb_huisdier.png,0,,,,,,,,,,,,,,,,,,,,,,
,,,,,00067,2023-10-19_14h03.33.825,vbt_B2_day3,2022.2.4,Win32,59.80861244,,,,,,down,0,3.0233,,0.498611111,0.072222222,1,0,0,0,10,10,66,1,lever,images/br_lever.png,images/cb_lever.png,0,,,,,,,,,,,,,,,,,,,,,,
,,,,,00067,2023-10-19_14h03.33.825,vbt_B2_day3,2022.2.4,Win32,59.80861244,,,,,,down,0,17.6515,,0.498611111,0.074074046,1,0,0,0,11,11,125,1,aanzien,images/br_aanzien.png,images/cb_aanzien.png,0,,,,,,,,,,,,,,,,,,,,,,
,,,,,00067,2023-10-19_14h03.33.825,vbt_B2_day3,2022.2.4,Win32,59.80861244,,,,,,down,0,4.3886,,0.497685242,0.080555556,1,0,0,0,12,12,86,1,woning,images/br_woning.png,images/cb_woning.png,0,,,,,,,,,,,,,,,,,,,,,,
,,,,,00067,2023-10-19_14h03.33.825,vbt_B2_day3,2022.2.4,Win32,59.80861244,,,,,,down,0,8.2735,,0.5,0.080555556,1,0,0,0,13,13,143,1,hechten,images/br_hechten.png,images/cb_hechten.png,1,hechten,,,,,,,,,,,,,,,,,,,,,
,,,,,00067,2023-10-19_14h03.33.825,vbt_B2_day3,2022.2.4,Win32,59.80861244,,,,,,down,0,6.4948,,0.504629686,0.082407379,1,0,0,0,14,14,41,1,maken,images/br_maken.png,images/cb_maken.png,0,,,,,,,,,,,,,,,,,,,,,,
,,,,,00067,2023-10-19_14h03.33.825,vbt_B2_day3,2022.2.4,Win32,59.80861244,,,,,,down,0,1.5567,,0.504629686,0.082407379,1,0,0,0,15,15,4,1,moes,images/br_moes.png,images/cb_moes.png,0,,,,,,,,,,,,,,,,,,,,,,
,,,,,00067,2023-10-19_14h03.33.825,vbt_B2_day3,2022.2.4,Win32,59.80861244,,,,,,down,0,2.5471,,0.504629686,0.082407379,1,0,0,0,16,16,68,1,schat,images/br_schat.png,images/cb_schat.png,0,,,,,,,,,,,,,,,,,,,,,,
,,,,,00067,2023-10-19_14h03.33.825,vbt_B2_day3,2022.2.4,Win32,59.80861244,,,,,,down,0,44.8888,,0.504629686,0.083333333,1,0,0,0,17,17,91,1,gezond,images/br_gezond.png,images/cb_gezond.png,0,,,,,,,,,,,,,,,,,,,,,,
,,,,,00067,2023-10-19_14h03.33.825,vbt_B2_day3,2022.2.4,Win32,59.80861244,,,,,,down,0,10.7019,,0.504629686,0.083333333,1,0,0,0,18,18,185,1,mijnheer,images/br_mijnheer.png,images/cb_mijnheer.png,0,,,,,,,,,,,,,,,,,,,,,,
,,,,,00067,2023-10-19_14h03.33.825,vbt_B2_day3,2022.2.4,Win32,59.80861244,,,,,,down,0,2.344,,0.504629686,0.08101849,1,0,0,0,19,19,2,1,jaar,images/br_jaar.png,images/cb_jaar.png,0,,,,,,,,,,,,,,,,,,,,,,
,,,,,00067,2023-10-19_14h03.33.825,vbt_B2_day3,2022.2.4,Win32,59.80861244,,,,,,down,0,2.8098,,0.504629686,0.08101849,1,0,0,0,20,20,148,1,smullen,images/br_smullen.png,images/cb_smullen.png,0,,,,,,,,,,,,,,,,,,,,,,
,,,,,00067,2023-10-19_14h03.33.825,vbt_B2_day3,2022.2.4,Win32,59.80861244,,,,,,down,0,4.6027,,0.504629686,0.080555556,1,0,0,0,21,21,158,1,innemen,images/br_innemen.png,images/cb_innemen.png,0,,,,,,,,,,,,,,,,,,,,,,
,,,,,00067,2023-10-19_14h03.33.825,vbt_B2_day3,2022.2.4,Win32,59.80861244,,,,,,down,0,2.1912,,0.504629686,0.080555556,1,0,0,0,22,22,62,1,knaap,images/br_knaap.png,images/cb_knaap.png,1,knaap,,,,,,,,,,,,,,,,,,,,,
,,,,,00067,2023-10-19_14h03.33.825,vbt_B2_day3,2022.2.4,Win32,59.80861244,,,,,,down,0,15.8494,,0.504629686,0.080555556,1,0,0,0,23,23,140,1,blijven,images/br_blijven.png,images/cb_blijven.png,1,blijven,,,,,,,,,,,,,,,,,,,,,
,,,,,00067,2023-10-19_14h03.33.825,vbt_B2_day3,2022.2.4,Win32,59.80861244,,,,,,down,0,3.5329,,0.504629686,0.079629601,1,0,0,0,24,24,38,1,baai,images/br_baai.png,images/cb_baai.png,0,,,,,,,,,,,,,,,,,,,,,,
,,,,,00067,2023-10-19_14h03.33.825,vbt_B2_day3,2022.2.4,Win32,59.80861244,,,,,,down,0,7.9571,,0.490740797,0.077777778,1,0,0,0,25,25,127,1,doodmoe,images/br_doodmoe.png,images/cb_doodmoe.png,0,,,,,,,,,,,,,,,,,,,,,,
,,,,,00067,2023-10-19_14h03.33.825,vbt_B2_day3,2022.2.4,Win32,59.80861244,,,,,,down,0,1.4112,,0.490740797,0.077314801,1,0,0,0,26,26,159,1,sufferd,images/br_sufferd.png,images/cb_sufferd.png,0,,,,,,,,,,,,,,,,,,,,,,
,,,,,00067,2023-10-19_14h03.33.825,vbt_B2_day3,2022.2.4,Win32,59.80861244,,,,,,down,0,6.5322,,0.495370399,0.067592578,1,0,0,0,27,27,142,1,snuiven,images/br_snuiven.png,images/cb_snuiven.png,1,snuiven,,,,,,,,,,,,,,,,,,,,,
,,,,,00067,2023-10-19_14h03.33.825,vbt_B2_day3,2022.2.4,Win32,59.80861244,,,,,,down,0,0.0347,,0.495370399,0.067592578,1,0,0,0,28,28,157,1,uitlaat,images/br_uitlaat.png,images/cb_uitlaat.png,0,,,,,,,,,,,,,,,,,,,,,,
,,,,,00067,2023-10-19_14h03.33.825,vbt_B2_day3,2022.2.4,Win32,59.80861244,,,,,,down,0,6.1707,,0.495370399,0.067592578,1,0,0,0,29,29,90,1,geluid,images/br_geluid.png,images/cb_geluid.png,0,,,,,,,,,,,,,,,,,,,,,,
,,,,,00067,2023-10-19_14h03.33.825,vbt_B2_day3,2022.2.4,Win32,59.80861244,,,,,,down,0,11.4817,,0.495370399,0.067592578,1,0,0,0,30,30,141,1,knielen,images/br_knielen.png,images/cb_knielen.png,1,knielen,,,,,,,,,,,,,,,,,,,,,
,,,,,00067,2023-10-19_14h03.33.825,vbt_B2_day3,2022.2.4,Win32,59.80861244,,,,,,down,0,11.1108,,0.547685242,0.030092578,1,0,0,0,31,31,139,1,stiekem,images/br_stiekem.png,images/cb_stiekem.png,0,,,,,,,,,,,,,,,,,,,,,,
,,,,,00067,2023-10-19_14h03.33.825,vbt_B2_day3,2022.2.4,Win32,59.80861244,,,,,,down,0,11.5321,,0.547685242,0.030092578,1,0,0,0,32,32,144,1,eetlust,images/br_eetlust.png,images/cb_eetlust.png,0,,,,,,,,,,,,,,,,,,,,,,
,,,,,00067,2023-10-19_14h03.33.825,vbt_B2_day3,2022.2.4,Win32,59.80861244,,,,,,down,0,4.9001,,0.547685242,0.030092578,1,0,0,0,33,33,72,1,strak,images/br_strak.png,images/cb_strak.png,0,,,,,,,,,,,,,,,,,,,,,,
,,,,,00067,2023-10-19_14h03.33.825,vbt_B2_day3,2022.2.4,Win32,59.80861244,,,,,,down,0,20.9666,,0.548611111,0.029166667,1,0,0,0,34,34,27,1,dans,images/br_dans.png,images/cb_dans.png,0,,,,,,,,,,,,,,,,,,,,,,
,,,,,00067,2023-10-19_14h03.33.825,vbt_B2_day3,2022.2.4,Win32,59.80861244,,,,,,down,0,9.3686,,0.548611111,0.029166667,1,0,0,0,35,35,112,1,lukken,images/br_lukken.png,images/cb_lukken.png,0,,,,,,,,,,,,,,,,,,,,,,
,,,,,00067,2023-10-19_14h03.33.825,vbt_B2_day3,2022.2.4,Win32,59.80861244,,,,,,down,0,0.4617,,0.548611111,0.029166667,1,0,0,0,36,36,99,1,koffie,images/br_koffie.png,images/cb_koffie.png,0,,,,,,,,,,,,,,,,,,,,,,
,,,,,00067,2023-10-19_14h03.33.825,vbt_B2_day3,2022.2.4,Win32,59.80861244,,,,,,down,0,1.6379,,0.548611111,0.02870369,1,0,0,0,37,37,29,1,baas,images/br_baas.png,images/cb_baas.png,0,,,,,,,,,,,,,,,,,,,,,,
,,,,,00067,2023-10-19_14h03.33.825,vbt_B2_day3,2022.2.4,Win32,59.80861244,,,,,,down,0,5.8237,,0.548611111,0.02870369,1,0,0,0,38,38,34,1,vorm,images/br_vorm.png,images/cb_vorm.png,0,,,,,,,,,,,,,,,,,,,,,,
,,,,,00067,2023-10-19_14h03.33.825,vbt_B2_day3,2022.2.4,Win32,59.80861244,,,,,,down,0,9.5168,,0.548611111,0.02870369,1,0,0,0,39,39,56,1,traag,images/br_traag.png,images/cb_traag.png,0,,,,,,,,,,,,,,,,,,,,,,
,,,,,00067,2023-10-19_14h03.33.825,vbt_B2_day3,2022.2.4,Win32,59.80861244,,,,,,down,0,4.5141,,0.548611111,0.02870369,1,0,0,0,40,40,123,1,hiervan,images/br_hiervan.png,images/cb_hiervan.png,0,,,,,,,,,,,,,,,,,,,,,,
,,,,,00067,2023-10-19_14h03.33.825,vbt_B2_day3,2022.2.4,Win32,59.80861244,,,,,,down,0,8.3394,,0.548148261,0.034259245,1,0,0,0,41,41,187,1,opkijken,images/br_opkijken.png,images/cb_opkijken.png,0,,,,,,,,,,,,,,,,,,,,,,
,,,,,00067,2023-10-19_14h03.33.825,vbt_B2_day3,2022.2.4,Win32,59.80861244,,,,,,down,0,4.9567,,0.556481595,0.018055556,1,0,0,0,42,42,13,1,kaal,images/br_kaal.png,images/cb_kaal.png,0,,,,,,,,,,,,,,,,,,,,,,
,,,,,00067,2023-10-19_14h03.33.825,vbt_B2_day3,2022.2.4,Win32,59.80861244,,,,,,down,0,9.8946,,0.556481595,0.018055556,1,0,0,0,43,43,85,1,heilig,images/br_heilig.png,images/cb_heilig.png,0,,,,,,,,,,,,,,,,,,,,,,
,,,,,00067,2023-10-19_14h03.33.825,vbt_B2_day3,2022.2.4,Win32,59.80861244,,,,,,down,0,4.1757,,0.556944444,0.018055556,1,0,0,0,44,44,89,1,slapen,images/br_slapen.png,images/cb_slapen.png,0,,,,,,,,,,,,,,,,,,,,,,
,,,,,00067,2023-10-19_14h03.33.825,vbt_B2_day3,2022.2.4,Win32,59.80861244,,,,,,down,0,3.2901,,0.556944444,0.018055556,1,0,0,0,45,45,160,1,daarheen,images/br_daarheen.png,images/cb_daarheen.png,0,,,,,,,,,,,,,,,,,,,,,,
,,,,,00067,2023-10-19_14h03.33.825,vbt_B2_day3,2022.2.4,Win32,59.80861244,,,,,,down,0,22.0569,,0.556018575,0.052314801,1,0,0,0,46,46,192,1,schaamte,images/br_schaamte.png,images/cb_schaamte.png,0,,,,,,,,,,,,,,,,,,,,,,
,,,,,00067,2023-10-19_14h03.33.825,vbt_B2_day3,2022.2.4,Win32,59.80861244,,,,,,down,0,18.3702,,0.557870483,0.038888889,1,0,0,0,47,47,22,1,stof,images/br_stof.png,images/cb_stof.png,1,stofstof,,,,,,,,,,,,,,,,,,,,,
,,,,,00067,2023-10-19_14h03.33.825,vbt_B2_day3,2022.2.4,Win32,59.80861244,,,,,,down,0,6.2087,,0.558333333,0.038425912,1,0,0,0,48,48,18,1,blik,images/br_blik.png,images/cb_blik.png,0,,,,,,,,,,,,,,,,,,,,,,
,,,,,00067,2023-10-19_14h03.33.825,vbt_B2_day3,2022.2.4,Win32,59.80861244,,,,,,down,0,26.2147,,0.558333333,0.037037023,1,0,0,0,49,49,175,1,heengaan,images/br_heengaan.png,images/cb_heengaan.png,0,,,,,,,,,,,,,,,,,,,,,,
,,,,,00067,2023-10-19_14h03.33.825,vbt_B2_day3,2022.2.4,Win32,59.80861244,,,,,,down,0,2.541,,0.552777778,0.037962935,1,0,0,0,50,50,0,1,slak,images/br_slak.png,images/cb_slak.png,0,,,,,,,,,,,,,,,,,,,,,,
,,,,,00067,2023-10-19_14h03.33.825,vbt_B2_day3,2022.2.4,Win32,59.80861244,,,,,,down,0,5.7998,,0.552777778,0.039351824,1,0,0,0,51,51,21,1,mist,images/br_mist.png,images/cb_mist.png,1,mist,,,,,,,,,,,,,,,,,,,,,
,,,,,00067,2023-10-19_14h03.33.825,vbt_B2_day3,2022.2.4,Win32,59.80861244,,,,,,down,0,3.2166,,0.564351908,0.011111111,1,0,0,0,52,52,108,1,excuus,images/br_excuus.png,images/cb_excuus.png,0,,,,,,,,,,,,,,,,,,,,,,
,,,,,00067,2023-10-19_14h03.33.825,vbt_B2_day3,2022.2.4,Win32,59.80861244,,,,,,down,0,38.1184,,0.564814928,-0.0125,1,0,0,0,53,53,182,1,bijkomen,images/br_bijkomen.png,images/cb_bijkomen.png,1,bijkomen,,,,,,,,,,,,,,,,,,,,,
,,,,,00067,2023-10-19_14h03.33.825,vbt_B2_day3,2022.2.4,Win32,59.80861244,,,,,,down,0,0.2518,,0.563426039,-0.004629644,1,0,0,0,54,54,58,1,tekst,images/br_tekst.png,images/cb_tekst.png,0,,,,,,,,,,,,,,,,,,,,,,
,,,,,00067,2023-10-19_14h03.33.825,vbt_B2_day3,2022.2.4,Win32,59.80861244,,,,,,down,0,4.4787,,0.403240797,-0.049537065,1,0,0,0,55,55,23,1,zout,images/br_zout.png,images/cb_zout.png,1,zout,,,,,,,,,,,,,,,,,,,,,
,,,,,00067,2023-10-19_14h03.33.825,vbt_B2_day3,2022.2.4,Win32,59.80861244,,,,,,down,0,8.8238,,0.403240797,-0.046759288,1,0,0,0,56,56,147,1,komisch,images/br_komisch.png,images/cb_komisch.png,0,,,,,,,,,,,,,,,,,,,,,,
,,,,,00067,2023-10-19_14h03.33.825,vbt_B2_day3,2022.2.4,Win32,59.80861244,,,,,,down,0,5.3887,,0.398611111,-0.044444444,1,0,0,0,57,57,8,1,knie,images/br_knie.png,images/cb_knie.png,0,,,,,,,,,,,,,,,,,,,,,,
,,,,,00067,2023-10-19_14h03.33.825,vbt_B2_day3,2022.2.4,Win32,59.80861244,,,,,,down,0,16.0597,,0.398148176,-0.041666667,1,0,0,0,58,58,103,1,joggen,images/br_joggen.png,images/cb_joggen.png,1,joggen,,,,,,,,,,,,,,,,,,,,,
,,,,,00067,2023-10-19_14h03.33.825,vbt_B2_day3,2022.2.4,Win32,59.80861244,,,,,,down,0,0.1433,,0.398148176,-0.042592621,1,0,0,0,59,59,43,1,klauw,images/br_klauw.png,images/cb_klauw.png,0,,,,,,,,,,,,,,,,,,,,,,
,,,,,00067,2023-10-19_14h03.33.825,vbt_B2_day3,2022.2.4,Win32,59.80861244,,,,,,down,0,4.172,,0.38148151,-0.040277778,1,0,0,0,60,60,154,1,aflopen,images/br_aflopen.png,images/cb_aflopen.png,0,,,,,,,,,,,,,,,,,,,,,,
,,,,,00067,2023-10-19_14h03.33.825,vbt_B2_day3,2022.2.4,Win32,59.80861244,,,,,,down,0,0.5588,,0.38148151,-0.039814843,1,0,0,0,61,61,129,1,verhaal,images/br_verhaal.png,images/cb_verhaal.png,0,,,,,,,,,,,,,,,,,,,,,,
,,,,,00067,2023-10-19_14h03.33.825,vbt_B2_day3,2022.2.4,Win32,59.80861244,,,,,,down,0,1.9349,,0.380092621,-0.040277778,1,0,0,0,62,62,54,1,gebit,images/br_gebit.png,images/cb_gebit.png,0,,,,,,,,,,,,,,,,,,,,,,
,,,,,00067,2023-10-19_14h03.33.825,vbt_B2_day3,2022.2.4,Win32,59.80861244,,,,,,down,0,1.9301,,0.380092621,-0.040277778,1,0,0,0,63,63,164,1,anarchie,images/br_anarchie.png,images/cb_anarchie.png,0,,,,,,,,,,,,,,,,,,,,,,
,,,,,00067,2023-10-19_14h03.33.825,vbt_B2_day3,2022.2.4,Win32,59.80861244,,,,,,down,0,9.5384,,0.380092621,-0.038425954,1,0,0,0,64,64,183,1,getuigen,images/br_getuigen.png,images/cb_getuigen.png,1,getuigen,,,,,,,,,,,,,,,,,,,,,
,,,,,00067,2023-10-19_14h03.33.825,vbt_B2_day3,2022.2.4,Win32,59.80861244,,,,,,down,0,0.2752,,0.380092621,-0.038425954,1,0,0,0,65,65,177,1,maaltijd,images/br_maaltijd.png,images/cb_maaltijd.png,0,,,,,,,,,,,,,,,,,,,,,,
,,,,,00067,2023-10-19_14h03.33.825,vbt_B2_day3,2022.2.4,Win32,59.80861244,,,,,,down,0,0.0505,,0.380092621,-0.038425954,1,0,0,0,66,66,44,1,flits,images/br_flits.png,images/cb_flits.png,0,,,,,,,,,,,,,,,,,,,,,,
,,,,,00067,2023-10-19_14h03.33.825,vbt_B2_day3,2022.2.4,Win32,59.80861244,,,,,,down,0,2.1268,,0.379166667,-0.036111111,1,0,0,0,67,67,104,1,zweven,images/br_zweven.png,images/cb_zweven.png,0,,,,,,,,,,,,,,,,,,,,,,
,,,,,00067,2023-10-19_14h03.33.825,vbt_B2_day3,2022.2.4,Win32,59.80861244,,,,,,down,0,2.5838,,0.403703732,-0.050925954,1,0,0,0,68,68,133,1,seizoen,images/br_seizoen.png,images/cb_seizoen.png,0,,,,,,,,,,,,,,,,,,,,,,
,,,,,00067,2023-10-19_14h03.33.825,vbt_B2_day3,2022.2.4,Win32,59.80861244,,,,,,down,0,20.5546,,0.400463019,-0.050925954,1,0,0,0,69,69,6,1,diep,images/br_diep.png,images/cb_diep.png,0,,,,,,,,,,,,,,,,,,,,,,
,,,,,00067,2023-10-19_14h03.33.825,vbt_B2_day3,2022.2.4,Win32,59.80861244,,,,,,down,0,23.0077,,-0.022222222,-0.29398151,1,0,0,0,70,70,11,1,mode,images/br_mode.png,images/cb_mode.png,0,,,,,,,,,,,,,,,,,,,,,,
,,,,,00067,2023-10-19_14h03.33.825,vbt_B2_day3,2022.2.4,Win32,59.80861244,,,,,,down,0,4.2746,,-0.008333333,-0.323611111,1,0,0,0,71,71,79,1,nodig,images/br_nodig.png,images/cb_nodig.png,0,,,,,,,,,,,,,,,,,,,,,,
,,,,,00067,2023-10-19_14h03.33.825,vbt_B2_day3,2022.2.4,Win32,59.80861244,,,,,,down,0,2.3058,,-0.008333333,-0.323611111,1,0,0,0,72,72,156,1,rechten,images/br_rechten.png,images/cb_rechten.png,0,,,,,,,,,,,,,,,,,,,,,,
,,,,,00067,2023-10-19_14h03.33.825,vbt_B2_day3,2022.2.4,Win32,59.80861244,,,,,,down,0,0.3565,,-0.008333333,-0.323611111,1,0,0,0,73,73,1,1,zaal,images/br_zaal.png,images/cb_zaal.png,0,,,,,,,,,,,,,,,,,,,,,,
,,,,,00067,2023-10-19_14h03.33.825,vbt_B2_day3,2022.2.4,Win32,59.80861244,,,,,,down,0,7.7945,,-0.008333333,-0.323611111,1,0,0,0,74,74,9,1,hier,images/br_hier.png,images/cb_hier.png,0,,,,,,,,,,,,,,,,,,,,,,
,,,,,00067,2023-10-19_14h03.33.825,vbt_B2_day3,2022.2.4,Win32,59.80861244,,,,,,down,0,1.09,,-0.008333333,-0.323611111,1,0,0,0,75,75,191,1,opheffen,images/br_opheffen.png,images/cb_opheffen.png,0,,,,,,,,,,,,,,,,,,,,,,
,,,,,00067,2023-10-19_14h03.33.825,vbt_B2_day3,2022.2.4,Win32,59.80861244,,,,,,down,0,10.7665,,-0.008796268,-0.323611111,1,0,0,0,76,76,76,1,afval,images/br_afval.png,images/cb_afval.png,0,,,,,,,,,,,,,,,,,,,,,,
,,,,,00067,2023-10-19_14h03.33.825,vbt_B2_day3,2022.2.4,Win32,59.80861244,,,,,,down,0,11.4462,,-0.008333333,-0.323611111,1,0,0,0,77,77,64,1,wegen,images/br_wegen.png,images/cb_wegen.png,0,,,,,,,,,,,,,,,,,,,,,,
,,,,,00067,2023-10-19_14h03.33.825,vbt_B2_day3,2022.2.4,Win32,59.80861244,,,,,,down,0,5.432,,-0.008333333,-0.323611111,1,0,0,0,78,78,134,1,geliefd,images/br_geliefd.png,images/cb_geliefd.png,0,,,,,,,,,,,,,,,,,,,,,,
,,,,,00067,2023-10-19_14h03.33.825,vbt_B2_day3,2022.2.4,Win32,59.80861244,,,,,,down,0,4.9695,,0.15,-0.152777778,1,0,0,0,79,79,98,1,kreeft,images/br_kreeft.png,images/cb_kreeft.png,0,,,,,,,,,,,,,,,,,,,,,,
,,,,,00067,2023-10-19_14h03.33.825,vbt_B2_day3,2022.2.4,Win32,59.80861244,,,,,,down,0,6.0949,,0.150463019,-0.152777778,1,0,0,0,80,80,19,1,geit,images/br_geit.png,images/cb_geit.png,0,,,,,,,,,,,,,,,,,,,,,,
,,,,,00067,2023-10-19_14h03.33.825,vbt_B2_day3,2022.2.4,Win32,59.80861244,,,,,,down,0,1.4327,,0.139814843,-0.161574088,1,0,0,0,81,81,166,1,strikken,images/br_strikken.png,images/cb_strikken.png,0,,,,,,,,,,,,,,,,,,,,,,
,,,,,00067,2023-10-19_14h03.33.825,vbt_B2_day3,2022.2.4,Win32,59.80861244,,,,,,down,0,16.3545,,0.135185242,-0.161574088,1,0,0,0,82,82,135,1,gedicht,images/br_gedicht.png,images/cb_gedicht.png,0,,,,,,,,,,,,,,,,,,,,,,
,,,,,00067,2023-10-19_14h03.33.825,vbt_B2_day3,2022.2.4,Win32,59.80861244,,,,,,down,0,5.9002,,0.135185242,-0.161574088,1,0,0,0,83,83,190,1,goedkoop,images/br_goedkoop.png,images/cb_goedkoop.png,0,,,,,,,,,,,,,,,,,,,,,,
,,,,,00067,2023-10-19_14h03.33.825,vbt_B2_day3,2022.2.4,Win32,59.80861244,,,,,,down,0,18.4797,,0.134722222,-0.161574088,1,0,0,0,84,84,3,1,mand,images/br_mand.png,images/cb_mand.png,0,,,,,,,,,,,,,,,,,,,,,,
,,,,,00067,2023-10-19_14h03.33.825,vbt_B2_day3,2022.2.4,Win32,59.80861244,,,,,,down,0,7.959,,0.134722222,-0.161574088,1,0,0,0,85,85,153,1,vervoer,images/br_vervoer.png,images/cb_vervoer.png,0,,,,,,,,,,,,,,,,,,,,,,
,,,,,00067,2023-10-19_14h03.33.825,vbt_B2_day3,2022.2.4,Win32,59.80861244,,,,,,down,0,3.756,,0.134722222,-0.161574088,1,0,0,0,86,86,33,1,vlek,images/br_vlek.png,images/cb_vlek.png,0,,,,,,,,,,,,,,,,,,,,,,
,,,,,00067,2023-10-19_14h03.33.825,vbt_B2_day3,2022.2.4,Win32,59.80861244,,,,,,down,0,2.6063,,0.134722222,-0.161574088,1,0,0,0,87,87,25,1,plek,images/br_plek.png,images/cb_plek.png,0,,,,,,,,,,,,,,,,,,,,,,
,,,,,00067,2023-10-19_14h03.33.825,vbt_B2_day3,2022.2.4,Win32,59.80861244,,,,,,down,0,8.1004,,0.134722222,-0.161574088,1,0,0,0,88,88,169,1,oprotten,images/br_oprotten.png,images/cb_oprotten.png,0,,,,,,,,,,,,,,,,,,,,,,
,,,,,00067,2023-10-19_14h03.33.825,vbt_B2_day3,2022.2.4,Win32,59.80861244,,,,,,down,0,8.2161,,0.134722222,-0.161574088,1,0,0,0,89,89,150,1,gegeven,images/br_gegeven.png,images/cb_gegeven.png,0,,,,,,,,,,,,,,,,,,,,,,
,,,,,00067,2023-10-19_14h03.33.825,vbt_B2_day3,2022.2.4,Win32,59.80861244,,,,,,down,0,6.2735,,0.134722222,-0.161574088,1,0,0,0,90,90,197,1,spanning,images/br_spanning.png,images/cb_spanning.png,0,,,,,,,,,,,,,,,,,,,,,,
,,,,,00067,2023-10-19_14h03.33.825,vbt_B2_day3,2022.2.4,Win32,59.80861244,,,,,,down,0,5.5168,,0.134722222,-0.161574088,1,0,0,0,91,91,161,1,attentie,images/br_attentie.png,images/cb_attentie.png,0,,,,,,,,,,,,,,,,,,,,,,
,,,,,00067,2023-10-19_14h03.33.825,vbt_B2_day3,2022.2.4,Win32,59.80861244,,,,,,down,0,4.4407,,0.134722222,-0.161574088,1,0,0,0,92,92,168,1,bisschop,images/br_bisschop.png,images/cb_bisschop.png,0,,,,,,,,,,,,,,,,,,,,,,
,,,,,00067,2023-10-19_14h03.33.825,vbt_B2_day3,2022.2.4,Win32,59.80861244,,,,,,down,0,5.0591,,0.134722222,-0.161574088,1,0,0,0,93,93,75,1,snoep,images/br_snoep.png,images/cb_snoep.png,0,,,,,,,,,,,,,,,,,,,,,,
,,,,,00067,2023-10-19_14h03.33.825,vbt_B2_day3,2022.2.4,Win32,59.80861244,,,,,,down,0,6.351,,0.134722222,-0.161574088,1,0,0,0,94,94,199,1,beseffen,images/br_beseffen.png,images/cb_beseffen.png,0,,,,,,,,,,,,,,,,,,,,,,
,,,,,00067,2023-10-19_14h03.33.825,vbt_B2_day3,2022.2.4,Win32,59.80861244,,,,,,down,0,2.3431,,0.134722222,-0.161574088,1,0,0,0,95,95,61,1,groen,images/br_groen.png,images/cb_groen.png,1,groen,,,,,,,,,,,,,,,,,,,,,
,,,,,00067,2023-10-19_14h03.33.825,vbt_B2_day3,2022.2.4,Win32,59.80861244,,,,,,down,0,0.4168,,0.134722222,-0.161574088,1,0,0,0,96,96,10,1,leek,images/br_leek.png,images/cb_leek.png,0,,,,,,,,,,,,,,,,,,,,,,
,,,,,00067,2023-10-19_14h03.33.825,vbt_B2_day3,2022.2.4,Win32,59.80861244,,,,,,down,0,18.6993,,0.134722222,-0.161574088,1,0,0,0,97,97,167,1,eenhoorn,images/br_eenhoorn.png,images/cb_eenhoorn.png,0,,,,,,,,,,,,,,,,,,,,,,
,,,,,00067,2023-10-19_14h03.33.825,vbt_B2_day3,2022.2.4,Win32,59.80861244,,,,,,down,0,19.8364,,0.134722222,-0.161574088,1,0,0,0,98,98,132,1,grappen,images/br_grappen.png,images/cb_grappen.png,0,,,,,,,,,,,,,,,,,,,,,,
,,,,,00067,2023-10-19_14h03.33.825,vbt_B2_day3,2022.2.4,Win32,59.80861244,,,,,,down,0,2.1258,,0.135185242,-0.161574088,1,0,0,0,99,99,152,1,afnemen,images/br_afnemen.png,images/cb_afnemen.png,0,,,,,,,,,,,,,,,,,,,,,,
,,,,,00067,2023-10-19_14h03.33.825,vbt_B2_day3,2022.2.4,Win32,59.80861244,,,,,,down,0,32.7882,,0.134722222,-0.161574088,1,0,0,0,100,100,122,1,waarvan,images/br_waarvan.png,images/cb_waarvan.png,0,,,,,,,,,,,,,,,,,,,,,,
,,,,,00067,2023-10-19_14h03.33.825,vbt_B2_day3,2022.2.4,Win32,59.80861244,,,,,,down,0,15.0476,,0.187037065,-0.221296353,1,0,0,0,101,101,32,1,palm,images/br_palm.png,images/cb_palm.png,0,,,,,,,,,,,,,,,,,,,,,,
,,,,,00067,2023-10-19_14h03.33.825,vbt_B2_day3,2022.2.4,Win32,59.80861244,,,,,,down,0,19.3817,,0.186574131,-0.221296353,1,0,0,0,102,102,92,1,geheim,images/br_geheim.png,images/cb_geheim.png,0,,,,,,,,,,,,,,,,,,,,,,
,,,,,00067,2023-10-19_14h03.33.825,vbt_B2_day3,2022.2.4,Win32,59.80861244,,,,,,down,0,5.0518,,0.187037065,-0.220833333,1,0,0,0,103,103,117,1,kennis,images/br_kennis.png,images/cb_kennis.png,0,,,,,,,,,,,,,,,,,,,,,,
,,,,,00067,2023-10-19_14h03.33.825,vbt_B2_day3,2022.2.4,Win32,59.80861244,,,,,,down,0,6.7947,,0.187037065,-0.220833333,1,0,0,0,104,104,189,1,aanraden,images/br_aanraden.png,images/cb_aanraden.png,0,,,,,,,,,,,,,,,,,,,,,,
,,,,,00067,2023-10-19_14h03.33.825,vbt_B2_day3,2022.2.4,Win32,59.80861244,,,,,,down,0,3.4657,,0.1875,-0.220833333,1,0,0,0,105,105,195,1,middelen,images/br_middelen.png,images/cb_middelen.png,0,,,,,,,,,,,,,,,,,,,,,,
,,,,,00067,2023-10-19_14h03.33.825,vbt_B2_day3,2022.2.4,Win32,59.80861244,,,,,,down,0,5.7885,,0.1875,-0.220833333,1,0,0,0,106,106,188,1,strekken,images/br_strekken.png,images/cb_strekken.png,0,,,,,,,,,,,,,,,,,,,,,,
,,,,,00067,2023-10-19_14h03.33.825,vbt_B2_day3,2022.2.4,Win32,59.80861244,,,,,,down,0,12.8699,,0.1875,-0.220833333,1,0,0,0,107,107,172,1,weigeren,images/br_weigeren.png,images/cb_weigeren.png,0,,,,,,,,,,,,,,,,,,,,,,
,,,,,00067,2023-10-19_14h03.33.825,vbt_B2_day3,2022.2.4,Win32,59.80861244,,,,,,down,0,1.1259,,0.222685242,-0.205092621,1,0,0,0,108,108,16,1,ziek,images/br_ziek.png,images/cb_ziek.png,0,,,,,,,,,,,,,,,,,,,,,,
,,,,,00067,2023-10-19_14h03.33.825,vbt_B2_day3,2022.2.4,Win32,59.80861244,,,,,,down,0,3.3766,,0.222685242,-0.205092621,1,0,0,0,109,109,71,1,bever,images/br_bever.png,images/cb_bever.png,0,,,,,,,,,,,,,,,,,,,,,,
,,,,,00067,2023-10-19_14h03.33.825,vbt_B2_day3,2022.2.4,Win32,59.80861244,,,,,,down,0,5.2473,,0.222685242,-0.205092621,1,0,0,0,110,110,149,1,redding,images/br_redding.png,images/cb_redding.png,0,,,,,,,,,,,,,,,,,,,,,,
,,,,,00067,2023-10-19_14h03.33.825,vbt_B2_day3,2022.2.4,Win32,59.80861244,,,,,,down,0,2.7526,,0.222685242,-0.205092621,1,0,0,0,111,111,78,1,leren,images/br_leren.png,images/cb_leren.png,0,,,,,,,,,,,,,,,,,,,,,,
,,,,,00067,2023-10-19_14h03.33.825,vbt_B2_day3,2022.2.4,Win32,59.80861244,,,,,,down,0,30.2064,,0.222685242,-0.205092621,1,0,0,0,112,112,145,1,invloed,images/br_invloed.png,images/cb_invloed.png,0,,,,,,,,,,,,,,,,,,,,,,
,,,,,00067,2023-10-19_14h03.33.825,vbt_B2_day3,2022.2.4,Win32,59.80861244,,,,,,down,0,4.5859,,0.222685242,-0.205092621,1,0,0,0,113,113,107,1,maling,images/br_maling.png,images/cb_maling.png,0,,,,,,,,,,,,,,,,,,,,,,
,,,,,00067,2023-10-19_14h03.33.825,vbt_B2_day3,2022.2.4,Win32,59.80861244,,,,,,down,0,4.4999,,0.222222222,-0.205092621,1,0,0,0,114,114,80,1,kanjer,images/br_kanjer.png,images/cb_kanjer.png,0,,,,,,,,,,,,,,,,,,,,,,
,,,,,00067,2023-10-19_14h03.33.825,vbt_B2_day3,2022.2.4,Win32,59.80861244,,,,,,down,0,12.2419,,0.222222222,-0.205092621,1,0,0,0,115,115,46,1,jagen,images/br_jagen.png,images/cb_jagen.png,0,,,,,,,,,,,,,,,,,,,,,,
,,,,,00067,2023-10-19_14h03.33.825,vbt_B2_day3,2022.2.4,Win32,59.80861244,,,,,,down,0,2.2261,,0.222222222,-0.205092621,1,0,0,0,116,116,74,1,graaf,images/br_graaf.png,images/cb_graaf.png,0,,,,,,,,,,,,,,,,,,,,,,
,,,,,00067,2023-10-19_14h03.33.825,vbt_B2_day3,2022.2.4,Win32,59.80861244,,,,,,down,0,5.6077,,0.222222222,-0.205092621,1,0,0,0,117,117,118,1,vinger,images/br_vinger.png,images/cb_vinger.png,0,,,,,,,,,,,,,,,,,,,,,,
,,,,,00067,2023-10-19_14h03.33.825,vbt_B2_day3,2022.2.4,Win32,59.80861244,,,,,,down,0,4.057,,0.222222222,-0.205092621,1,0,0,0,118,118,170,1,schatten,images/br_schatten.png,images/cb_schatten.png,0,,,,,,,,,,,,,,,,,,,,,,
,,,,,00067,2023-10-19_14h03.33.825,vbt_B2_day3,2022.2.4,Win32,59.80861244,,,,,,down,0,5.7422,,0.222222222,-0.205092621,1,0,0,0,119,119,137,1,trekker,images/br_trekker.png,images/cb_trekker.png,0,,,,,,,,,,,,,,,,,,,,,,
,,,,,00067,2023-10-19_14h03.33.825,vbt_B2_day3,2022.2.4,Win32,59.80861244,,,,,,down,0,5.8272,,0.222222222,-0.205092621,1,0,0,0,120,120,94,1,oceaan,images/br_oceaan.png,images/cb_oceaan.png,0,,,,,,,,,,,,,,,,,,,,,,
,,,,,00067,2023-10-19_14h03.33.825,vbt_B2_day3,2022.2.4,Win32,59.80861244,,,,,,down,0,6.1842,,0.222222222,-0.205092621,1,0,0,0,121,121,83,1,mening,images/br_mening.png,images/cb_mening.png,0,,,,,,,,,,,,,,,,,,,,,,
,,,,,00067,2023-10-19_14h03.33.825,vbt_B2_day3,2022.2.4,Win32,59.80861244,,,,,,down,0,8.8494,,0.222222222,-0.205092621,1,0,0,0,122,122,184,1,aandelen,images/br_aandelen.png,images/cb_aandelen.png,0,,,,,,,,,,,,,,,,,,,,,,
,,,,,00067,2023-10-19_14h03.33.825,vbt_B2_day3,2022.2.4,Win32,59.80861244,,,,,,down,0,2.4421,,0.304629686,-0.073611111,1,0,0,0,123,123,179,1,woestijn,images/br_woestijn.png,images/cb_woestijn.png,0,,,,,,,,,,,,,,,,,,,,,,
,,,,,00067,2023-10-19_14h03.33.825,vbt_B2_day3,2022.2.4,Win32,59.80861244,,,,,,down,0,8.5075,,0.304629686,-0.073611111,1,0,0,0,124,124,186,1,voorraad,images/br_voorraad.png,images/cb_voorraad.png,0,,,,,,,,,,,,,,,,,,,,,,
,,,,,00067,2023-10-19_14h03.33.825,vbt_B2_day3,2022.2.4,Win32,59.80861244,,,,,,down,0,8.8446,,0.304629686,-0.073611111,1,0,0,0,125,125,35,1,lust,images/br_lust.png,images/cb_lust.png,0,,,,,,,,,,,,,,,,,,,,,,
,,,,,00067,2023-10-19_14h03.33.825,vbt_B2_day3,2022.2.4,Win32,59.80861244,,,,,,down,0,8.7751,,0.304629686,-0.073611111,1,0,0,0,126,126,176,1,techniek,images/br_techniek.png,images/cb_techniek.png,0,,,,,,,,,,,,,,,,,,,,,,
,,,,,00067,2023-10-19_14h03.33.825,vbt_B2_day3,2022.2.4,Win32,59.80861244,,,,,,down,0,7.7179,,0.304629686,-0.073611111,1,0,0,0,127,127,67,1,zwart,images/br_zwart.png,images/cb_zwart.png,0,,,,,,,,,,,,,,,,,,,,,,
,,,,,00067,2023-10-19_14h03.33.825,vbt_B2_day3,2022.2.4,Win32,59.80861244,,,,,,down,0,5.5155,,0.304629686,-0.073611111,1,0,0,0,128,128,116,1,besmet,images/br_besmet.png,images/cb_besmet.png,0,,,,,,,,,,,,,,,,,,,,,,
,,,,,00067,2023-10-19_14h03.33.825,vbt_B2_day3,2022.2.4,Win32,59.80861244,,,,,,down,0,11.2434,,0.304629686,-0.073611111,1,0,0,0,129,129,163,1,schuilen,images/br_schuilen.png,images/cb_schuilen.png,0,,,,,,,,,,,,,,,,,,,,,,
,,,,,00067,2023-10-19_14h03.33.825,vbt_B2_day3,2022.2.4,Win32,59.80861244,,,,,,down,0,3.3828,,0.304629686,-0.073611111,1,0,0,0,130,130,87,1,toeval,images/br_toeval.png,images/cb_toeval.png,0,,,,,,,,,,,,,,,,,,,,,,
,,,,,00067,2023-10-19_14h03.33.825,vbt_B2_day3,2022.2.4,Win32,59.80861244,,,,,,down,0,5.5573,,0.304629686,-0.073611111,1,0,0,0,131,131,128,1,prikken,images/br_prikken.png,images/cb_prikken.png,0,,,,,,,,,,,,,,,,,,,,,,
,,,,,00067,2023-10-19_14h03.33.825,vbt_B2_day3,2022.2.4,Win32,59.80861244,,,,,,down,0,3.1324,,0.304629686,-0.073611111,1,0,0,0,132,132,181,1,toegeven,images/br_toegeven.png,images/cb_toegeven.png,1,,,,,,,,,,,,,,,,,,,,,,
,,,,,00067,2023-10-19_14h03.33.825,vbt_B2_day3,2022.2.4,Win32,59.80861244,,,,,,down,0,2.8152,,0.304629686,-0.073611111,1,0,0,0,133,133,12,1,kust,images/br_kust.png,images/cb_kust.png,0,,,,,,,,,,,,,,,,,,,,,,
,,,,,00067,2023-10-19_14h03.33.825,vbt_B2_day3,2022.2.4,Win32,59.80861244,,,,,,down,0,6.3844,,0.304629686,-0.073611111,1,0,0,0,134,134,165,1,feestdag,images/br_feestdag.png,images/cb_feestdag.png,0,,,,,,,,,,,,,,,,,,,,,,
,,,,,00067,2023-10-19_14h03.33.825,vbt_B2_day3,2022.2.4,Win32,59.80861244,,,,,,down,0,7.9046,,0.304629686,-0.073611111,1,0,0,0,135,135,111,1,ticket,images/br_ticket.png,images/cb_ticket.png,0,,,,,,,,,,,,,,,,,,,,,,
,,,,,00067,2023-10-19_14h03.33.825,vbt_B2_day3,2022.2.4,Win32,59.80861244,,,,,,down,0,6.9062,,0.304629686,-0.073611111,1,0,0,0,136,136,28,1,stal,images/br_stal.png,images/cb_stal.png,0,,,,,,,,,,,,,,,,,,,,,,
,,,,,00067,2023-10-19_14h03.33.825,vbt_B2_day3,2022.2.4,Win32,59.80861244,,,,,,down,0,5.3229,,0.304629686,-0.073611111,1,0,0,0,137,137,55,1,praat,images/br_praat.png,images/cb_praat.png,0,,,,,,,,,,,,,,,,,,,,,,
,,,,,00067,2023-10-19_14h03.33.825,vbt_B2_day3,2022.2.4,Win32,59.80861244,,,,,,down,0,9.2435,,0.304629686,-0.073611111,1,0,0,0,138,138,48,1,steel,images/br_steel.png,images/cb_steel.png,0,,,,,,,,,,,,,,,,,,,,,,
,,,,,00067,2023-10-19_14h03.33.825,vbt_B2_day3,2022.2.4,Win32,59.80861244,,,,,,down,0,5.5319,,0.304629686,-0.073611111,1,0,0,0,139,139,7,1,geld,images/br_geld.png,images/cb_geld.png,0,,,,,,,,,,,,,,,,,,,,,,
,,,,,00067,2023-10-19_14h03.33.825,vbt_B2_day3,2022.2.4,Win32,59.80861244,,,,,,down,0,2.1364,,0.304629686,-0.073611111,1,0,0,0,140,140,95,1,vreten,images/br_vreten.png,images/cb_vreten.png,0,,,,,,,,,,,,,,,,,,,,,,
,,,,,00067,2023-10-19_14h03.33.825,vbt_B2_day3,2022.2.4,Win32,59.80861244,,,,,,down,0,0.5866,,0.304629686,-0.073611111,1,0,0,0,141,141,36,1,vuur,images/br_vuur.png,images/cb_vuur.png,0,,,,,,,,,,,,,,,,,,,,,,
,,,,,00067,2023-10-19_14h03.33.825,vbt_B2_day3,2022.2.4,Win32,59.80861244,,,,,,down,0,6.8888,,0.304629686,-0.073611111,1,0,0,0,142,142,119,1,liefje,images/br_liefje.png,images/cb_liefje.png,0,,,,,,,,,,,,,,,,,,,,,,
,,,,,00067,2023-10-19_14h03.33.825,vbt_B2_day3,2022.2.4,Win32,59.80861244,,,,,,down,0,6.674,,0.304629686,-0.073611111,1,0,0,0,143,143,97,1,loyaal,images/br_loyaal.png,images/cb_loyaal.png,0,,,,,,,,,,,,,,,,,,,,,,
,,,,,00067,2023-10-19_14h03.33.825,vbt_B2_day3,2022.2.4,Win32,59.80861244,,,,,,down,0,11.6083,,0.304629686,-0.073611111,1,0,0,0,144,144,101,1,staren,images/br_staren.png,images/cb_staren.png,1,staren,,,,,,,,,,,,,,,,,,,,,
,,,,,00067,2023-10-19_14h03.33.825,vbt_B2_day3,2022.2.4,Win32,59.80861244,,,,,,down,0,8.1106,,0.304629686,-0.073611111,1,0,0,0,145,145,110,1,zuster,images/br_zuster.png,images/cb_zuster.png,0,,,,,,,,,,,,,,,,,,,,,,
,,,,,00067,2023-10-19_14h03.33.825,vbt_B2_day3,2022.2.4,Win32,59.80861244,,,,,,down,0,13.0731,,0.305092621,-0.073148176,1,0,0,0,146,146,69,1,waken,images/br_waken.png,images/cb_waken.png,0,,,,,,,,,,,,,,,,,,,,,,
,,,,,00067,2023-10-19_14h03.33.825,vbt_B2_day3,2022.2.4,Win32,59.80861244,,,,,,down,0,3.8736,,0.305092621,-0.073148176,1,0,0,0,147,147,26,1,leuk,images/br_leuk.png,images/cb_leuk.png,0,,,,,,,,,,,,,,,,,,,,,,
,,,,,00067,2023-10-19_14h03.33.825,vbt_B2_day3,2022.2.4,Win32,59.80861244,,,,,,down,0,4.3498,,0.305092621,-0.073148176,1,0,0,0,148,148,198,1,bedoelen,images/br_bedoelen.png,images/cb_bedoelen.png,0,,,,,,,,,,,,,,,,,,,,,,
,,,,,00067,2023-10-19_14h03.33.825,vbt_B2_day3,2022.2.4,Win32,59.80861244,,,,,,down,0,3.2495,,0.305092621,-0.073148176,1,0,0,0,149,149,31,1,poes,images/br_poes.png,images/cb_poes.png,0,,,,,,,,,,,,,,,,,,,,,,
,,,,,00067,2023-10-19_14h03.33.825,vbt_B2_day3,2022.2.4,Win32,59.80861244,,,,,,down,0,3.0645,,0.305092621,-0.073148176,1,0,0,0,150,150,162,1,uitdelen,images/br_uitdelen.png,images/cb_uitdelen.png,0,,,,,,,,,,,,,,,,,,,,,,
,,,,,00067,2023-10-19_14h03.33.825,vbt_B2_day3,2022.2.4,Win32,59.80861244,,,,,,down,0,0.4016,,0.305092621,-0.073148176,1,0,0,0,151,151,45,1,piste,images/br_piste.png,images/cb_piste.png,0,,,,,,,,,,,,,,,,,,,,,,
,,,,,00067,2023-10-19_14h03.33.825,vbt_B2_day3,2022.2.4,Win32,59.80861244,,,,,,down,0,1.8188,,0.305092621,-0.073148176,1,0,0,0,152,152,124,1,bloeien,images/br_bloeien.png,images/cb_bloeien.png,0,,,,,,,,,,,,,,,,,,,,,,
,,,,,00067,2023-10-19_14h03.33.825,vbt_B2_day3,2022.2.4,Win32,59.80861244,,,,,,down,0,0.6896,,0.305092621,-0.073148176,1,0,0,0,153,153,173,1,apparaat,images/br_apparaat.png,images/cb_apparaat.png,0,,,,,,,,,,,,,,,,,,,,,,
,,,,,00067,2023-10-19_14h03.33.825,vbt_B2_day3,2022.2.4,Win32,59.80861244,,,,,,down,0,1.8674,,0.305092621,-0.073148176,1,0,0,0,154,154,30,1,uien,images/br_uien.png,images/cb_uien.png,0,,,,,,,,,,,,,,,,,,,,,,
,,,,,00067,2023-10-19_14h03.33.825,vbt_B2_day3,2022.2.4,Win32,59.80861244,,,,,,down,0,3.9901,,0.305092621,-0.073148176,1,0,0,0,155,155,47,1,kabel,images/br_kabel.png,images/cb_kabel.png,0,,,,,,,,,,,,,,,,,,,,,,
,,,,,00067,2023-10-19_14h03.33.825,vbt_B2_day3,2022.2.4,Win32,59.80861244,,,,,,down,0,3.3983,,0.305092621,-0.073148176,1,0,0,0,156,156,102,1,legaal,images/br_legaal.png,images/cb_legaal.png,1,legaal,,,,,,,,,,,,,,,,,,,,,
,,,,,00067,2023-10-19_14h03.33.825,vbt_B2_day3,2022.2.4,Win32,59.80861244,,,,,,down,0,0.0611,,0.305092621,-0.073148176,1,0,0,0,157,157,65,1,parel,images/br_parel.png,images/cb_parel.png,0,,,,,,,,,,,,,,,,,,,,,,
,,,,,00067,2023-10-19_14h03.33.825,vbt_B2_day3,2022.2.4,Win32,59.80861244,,,,,,down,0,4.5809,,0.305092621,-0.073148176,1,0,0,0,158,158,100,1,geduld,images/br_geduld.png,images/cb_geduld.png,1,geduld,,,,,,,,,,,,,,,,,,,,,
,,,,,00067,2023-10-19_14h03.33.825,vbt_B2_day3,2022.2.4,Win32,59.80861244,,,,,,down,0,4.5239,,0.305092621,-0.073148176,1,0,0,0,159,159,70,1,ijdel,images/br_ijdel.png,images/cb_ijdel.png,0,,,,,,,,,,,,,,,,,,,,,,
,,,,,00067,2023-10-19_14h03.33.825,vbt_B2_day3,2022.2.4,Win32,59.80861244,,,,,,down,0,3.5286,,0.305092621,-0.073148176,1,0,0,0,160,160,24,1,jurk,images/br_jurk.png,images/cb_jurk.png,0,,,,,,,,,,,,,,,,,,,,,,
,,,,,00067,2023-10-19_14h03.33.825,vbt_B2_day3,2022.2.4,Win32,59.80861244,,,,,,down,0,2.7517,,0.305092621,-0.073148176,1,0,0,0,161,161,17,1,taal,images/br_taal.png,images/cb_taal.png,0,,,,,,,,,,,,,,,,,,,,,,
,,,,,00067,2023-10-19_14h03.33.825,vbt_B2_day3,2022.2.4,Win32,59.80861244,,,,,,down,0,2.7194,,0.305092621,-0.073148176,1,0,0,0,162,162,52,1,wagon,images/br_wagon.png,images/cb_wagon.png,0,,,,,,,,,,,,,,,,,,,,,,
,,,,,00067,2023-10-19_14h03.33.825,vbt_B2_day3,2022.2.4,Win32,59.80861244,,,,,,down,0,0.4671,,0.305092621,-0.073148176,1,0,0,0,163,163,193,1,weeshuis,images/br_weeshuis.png,images/cb_weeshuis.png,0,,,,,,,,,,,,,,,,,,,,,,
,,,,,00067,2023-10-19_14h03.33.825,vbt_B2_day3,2022.2.4,Win32,59.80861244,,,,,,down,0,1.1032,,0.305092621,-0.073148176,1,0,0,0,164,164,109,1,totaal,images/br_totaal.png,images/cb_totaal.png,0,,,,,,,,,,,,,,,,,,,,,,
,,,,,00067,2023-10-19_14h03.33.825,vbt_B2_day3,2022.2.4,Win32,59.80861244,,,,,,down,0,16.8107,,0.305092621,-0.073148176,1,0,0,0,165,165,60,1,jasje,images/br_jasje.png,images/cb_jasje.png,1,jasje,,,,,,,,,,,,,,,,,,,,,
,,,,,00067,2023-10-19_14h03.33.825,vbt_B2_day3,2022.2.4,Win32,59.80861244,,,,,,down,0,13.05,,0.305092621,-0.073148176,1,0,0,0,166,166,180,1,openbaar,images/br_openbaar.png,images/cb_openbaar.png,1,openbaar,,,,,,,,,,,,,,,,,,,,,
,,,,,00067,2023-10-19_14h03.33.825,vbt_B2_day3,2022.2.4,Win32,59.80861244,,,,,,down,0,0.1979,,0.305092621,-0.073148176,1,0,0,0,167,167,113,1,koppen,images/br_koppen.png,images/cb_koppen.png,0,,,,,,,,,,,,,,,,,,,,,,
,,,,,00067,2023-10-19_14h03.33.825,vbt_B2_day3,2022.2.4,Win32,59.80861244,,,,,,down,0,1.6058,,0.305092621,-0.073148176,1,0,0,0,168,168,194,1,driemaal,images/br_driemaal.png,images/cb_driemaal.png,0,,,,,,,,,,,,,,,,,,,,,,
,,,,,00067,2023-10-19_14h03.33.825,vbt_B2_day3,2022.2.4,Win32,59.80861244,,,,,,down,0,0.6189,,0.305092621,-0.073148176,1,0,0,0,169,169,146,1,opkomen,images/br_opkomen.png,images/cb_opkomen.png,0,,,,,,,,,,,,,,,,,,,,,,
,,,,,00067,2023-10-19_14h03.33.825,vbt_B2_day3,2022.2.4,Win32,59.80861244,,,,,,down,0,0.9008,,0.305092621,-0.073148176,1,0,0,0,170,170,88,1,boeien,images/br_boeien.png,images/cb_boeien.png,0,,,,,,,,,,,,,,,,,,,,,,
,,,,,00067,2023-10-19_14h03.33.825,vbt_B2_day3,2022.2.4,Win32,59.80861244,,,,,,down,0,9.1444,,0.305092621,-0.073148176,1,0,0,0,171,171,77,1,woede,images/br_woede.png,images/cb_woede.png,0,,,,,,,,,,,,,,,,,,,,,,
,,,,,00067,2023-10-19_14h03.33.825,vbt_B2_day3,2022.2.4,Win32,59.80861244,,,,,,down,0,4.1005,,0.305092621,-0.073148176,1,0,0,0,172,172,50,1,stoom,images/br_stoom.png,images/cb_stoom.png,0,,,,,,,,,,,,,,,,,,,,,,
,,,,,00067,2023-10-19_14h03.33.825,vbt_B2_day3,2022.2.4,Win32,59.80861244,,,,,,down,0,2.8455,,0.305092621,-0.073148176,1,0,0,0,173,173,42,1,bleek,images/br_bleek.png,images/cb_bleek.png,0,,,,,,,,,,,,,,,,,,,,,,
,,,,,00067,2023-10-19_14h03.33.825,vbt_B2_day3,2022.2.4,Win32,59.80861244,,,,,,down,0,2.2011,,0.305092621,-0.073148176,1,0,0,0,174,174,196,1,nakijken,images/br_nakijken.png,images/cb_nakijken.png,0,,,,,,,,,,,,,,,,,,,,,,
,,,,,00067,2023-10-19_14h03.33.825,vbt_B2_day3,2022.2.4,Win32,59.80861244,,,,,,down,0,12.1378,,0.305092621,-0.073148176,1,0,0,0,175,175,73,1,volop,images/br_volop.png,images/cb_volop.png,0,,,,,,,,,,,,,,,,,,,,,,
,,,,,00067,2023-10-19_14h03.33.825,vbt_B2_day3,2022.2.4,Win32,59.80861244,,,,,,down,0,5.8327,,0.305092621,-0.073148176,1,0,0,0,176,176,171,1,aarzelen,images/br_aarzelen.png,images/cb_aarzelen.png,0,,,,,,,,,,,,,,,,,,,,,,
,,,,,00067,2023-10-19_14h03.33.825,vbt_B2_day3,2022.2.4,Win32,59.80861244,,,,,,down,0,0.0931,,0.304629686,-0.073148176,1,0,0,0,177,177,96,1,slagen,images/br_slagen.png,images/cb_slagen.png,0,,,,,,,,,,,,,,,,,,,,,,
,,,,,00067,2023-10-19_14h03.33.825,vbt_B2_day3,2022.2.4,Win32,59.80861244,,,,,,down,0,2.4437,,0.304629686,-0.073148176,1,0,0,0,178,178,37,1,mijn,images/br_mijn.png,images/cb_mijn.png,0,,,,,,,,,,,,,,,,,,,,,,
,,,,,00067,2023-10-19_14h03.33.825,vbt_B2_day3,2022.2.4,Win32,59.80861244,,,,,,down,0,0.8189,,0.304629686,-0.073148176,1,0,0,0,179,179,174,1,stemming,images/br_stemming.png,images/cb_stemming.png,0,,,,,,,,,,,,,,,,,,,,,,
,,,,,00067,2023-10-19_14h03.33.825,vbt_B2_day3,2022.2.4,Win32,59.80861244,,,,,,down,0,0.4192,,0.304629686,-0.073148176,1,0,0,0,180,180,105,1,wijlen,images/br_wijlen.png,images/cb_wijlen.png,0,,,,,,,,,,,,,,,,,,,,,,
,,,,,00067,2023-10-19_14h03.33.825,vbt_B2_day3,2022.2.4,Win32,59.80861244,,,,,,down,0,3.0103,,0.304629686,-0.073148176,1,0,0,0,181,181,106,1,zingen,images/br_zingen.png,images/cb_zingen.png,0,,,,,,,,,,,,,,,,,,,,,,
,,,,,00067,2023-10-19_14h03.33.825,vbt_B2_day3,2022.2.4,Win32,59.80861244,,,,,,down,0,3.2976,,0.304629686,-0.073148176,1,0,0,0,182,182,39,1,laag,images/br_laag.png,images/cb_laag.png,0,,,,,,,,,,,,,,,,,,,,,,
,,,,,00067,2023-10-19_14h03.33.825,vbt_B2_day3,2022.2.4,Win32,59.80861244,,,,,,down,0,0.7165,,0.304629686,-0.073148176,1,0,0,0,183,183,57,1,steek,images/br_steek.png,images/cb_steek.png,0,,,,,,,,,,,,,,,,,,,,,,
,,,,,00067,2023-10-19_14h03.33.825,vbt_B2_day3,2022.2.4,Win32,59.80861244,,,,,,down,0,6.1652,,0.304629686,-0.073148176,1,0,0,0,184,184,151,1,aanzoek,images/br_aanzoek.png,images/cb_aanzoek.png,0,,,,,,,,,,,,,,,,,,,,,,
,,,,,00067,2023-10-19_14h03.33.825,vbt_B2_day3,2022.2.4,Win32,59.80861244,,,,,,down,0,4.9924,,0.304629686,-0.073148176,1,0,0,0,185,185,81,1,dubbel,images/br_dubbel.png,images/cb_dubbel.png,0,,,,,,,,,,,,,,,,,,,,,,
,,,,,00067,2023-10-19_14h03.33.825,vbt_B2_day3,2022.2.4,Win32,59.80861244,,,,,,down,0,1.3106,,0.304629686,-0.073148176,1,0,0,0,186,186,51,1,samen,images/br_samen.png,images/cb_samen.png,0,,,,,,,,,,,,,,,,,,,,,,
,,,,,00067,2023-10-19_14h03.33.825,vbt_B2_day3,2022.2.4,Win32,59.80861244,,,,,,down,0,0.3454,,0.304629686,-0.073148176,1,0,0,0,187,187,155,1,gerucht,images/br_gerucht.png,images/cb_gerucht.png,0,,,,,,,,,,,,,,,,,,,,,,
,,,,,00067,2023-10-19_14h03.33.825,vbt_B2_day3,2022.2.4,Win32,59.80861244,,,,,,down,0,2.0713,,0.304629686,-0.073148176,1,0,0,0,188,188,14,1,rijp,images/br_rijp.png,images/cb_rijp.png,0,,,,,,,,,,,,,,,,,,,,,,
,,,,,00067,2023-10-19_14h03.33.825,vbt_B2_day3,2022.2.4,Win32,59.80861244,,,,,,down,0,0.4462,,0.304629686,-0.073148176,1,0,0,0,189,189,84,1,lokken,images/br_lokken.png,images/cb_lokken.png,0,,,,,,,,,,,,,,,,,,,,,,
,,,,,00067,2023-10-19_14h03.33.825,vbt_B2_day3,2022.2.4,Win32,59.80861244,,,,,,down,0,3.2332,,0.304629686,-0.073148176,1,0,0,0,190,190,115,1,kleren,images/br_kleren.png,images/cb_kleren.png,0,,,,,,,,,,,,,,,,,,,,,,
,,,,,00067,2023-10-19_14h03.33.825,vbt_B2_day3,2022.2.4,Win32,59.80861244,,,,,,down,0,9.0237,,0.304629686,-0.073148176,1,0,0,0,191,191,15,1,soda,images/br_soda.png,images/cb_soda.png,0,,,,,,,,,,,,,,,,,,,,,,
,,,,,00067,2023-10-19_14h03.33.825,vbt_B2_day3,2022.2.4,Win32,59.80861244,,,,,,down,0,1.5981,,0.304629686,-0.073148176,1,0,0,0,192,192,59,1,kring,images/br_kring.png,images/cb_kring.png,0,,,,,,,,,,,,,,,,,,,,,,
,,,,,00067,2023-10-19_14h03.33.825,vbt_B2_day3,2022.2.4,Win32,59.80861244,,,,,,down,0,1.8825,,0.304629686,-0.073148176,1,0,0,0,193,193,40,1,schep,images/br_schep.png,images/cb_schep.png,0,,,,,,,,,,,,,,,,,,,,,,
,,,,,00067,2023-10-19_14h03.33.825,vbt_B2_day3,2022.2.4,Win32,59.80861244,,,,,,down,0,2.1031,,0.304629686,-0.073148176,1,0,0,0,194,194,126,1,kasteel,images/br_kasteel.png,images/cb_kasteel.png,0,,,,,,,,,,,,,,,,,,,,,,
,,,,,00067,2023-10-19_14h03.33.825,vbt_B2_day3,2022.2.4,Win32,59.80861244,,,,,,down,0,2.9604,,0.304629686,-0.073148176,1,0,0,0,195,195,138,1,akkoord,images/br_akkoord.png,images/cb_akkoord.png,0,,,,,,,,,,,,,,,,,,,,,,
,,,,,00067,2023-10-19_14h03.33.825,vbt_B2_day3,2022.2.4,Win32,59.80861244,,,,,,down,0,9.9276,,0.304629686,-0.073148176,1,0,0,0,196,196,130,1,keihard,images/br_keihard.png,images/cb_keihard.png,0,,,,,,,,,,,,,,,,,,,,,,
,,,,,00067,2023-10-19_14h03.33.825,vbt_B2_day3,2022.2.4,Win32,59.80861244,,,,,,down,0,1.2667,,0.304629686,-0.073611111,1,0,0,0,197,197,121,1,twijfel,images/br_twijfel.png,images/cb_twijfel.png,0,,,,,,,,,,,,,,,,,,,,,,
,,,,,00067,2023-10-19_14h03.33.825,vbt_B2_day3,2022.2.4,Win32,59.80861244,,,,,,down,0,1.6127,,0.304629686,-0.073611111,1,0,0,0,198,198,131,1,opzicht,images/br_opzicht.png,images/cb_opzicht.png,0,,,,,,,,,,,,,,,,,,,,,,
,,,,,00067,2023-10-19_14h03.33.825,vbt_B2_day3,2022.2.4,Win32,59.80861244,,,,,,down,0,2.3255,,0.304629686,-0.073611111,1,0,0,0,199,199,136,1,waarbij,images/br_waarbij.png,images/cb_waarbij.png,0,,,,,,,,,,,,,,,,,,,,,,
,,,,,00067,2023-10-19_14h03.33.825,vbt_B2_day3,2022.2.4,Win32,59.80861244,,,,,,,,,,,,,,,,,,,,,,,,,0.304629686,-0.073611111,1,0,0,,,,,,,,,,,,,,,,
,,,,,00067,2023-10-19_14h03.33.825,vbt_B2_day3,2022.2.4,Win32,59.80861244,,,,,,,,,,,,,,,,,,,,,,,,,,,,,,0.304629686,-0.073611111,1,0,0,,,,,,,,,,,
,,,,,00067,2023-10-19_14h03.33.825,vbt_B2_day3,2022.2.4,Win32,59.80861244,,,,,,,,,,,,,,,,,,,,zone,images/br_zone.png,images/cb_zone.png,,zon.,,,,,,,,,,,0.304629686,-0.073611111,1,0,0,zon.,0,0,0,41,1
,,,,,00067,2023-10-19_14h03.33.825,vbt_B2_day3,2022.2.4,Win32,59.80861244,,,,,,,,,,,,,,,,,,,,boeien,images/br_boeien.png,images/cb_boeien.png,,boeien,,,,,,,,,,,0.304629686,-0.073611111,1,0,0,boeien,0,1,1,8,1
,,,,,00067,2023-10-19_14h03.33.825,vbt_B2_day3,2022.2.4,Win32,59.80861244,,,,,,,,,,,,,,,,,,,,opzicht,images/br_opzicht.png,images/cb_opzicht.png,,opzicht,,,,,,,,,,,0.304629686,-0.073611111,1,0,0,opzicht,0,2,2,15,1
,,,,,00067,2023-10-19_14h03.33.825,vbt_B2_day3,2022.2.4,Win32,59.80861244,,,,,,,,,,,,,,,,,,,,mugeek,images/br_mugeek.png,images/cb_mugeek.png,,mugee,,,,,,,,,,,0.304629686,-0.073611111,1,0,0,mugee,0,3,3,29,1
,,,,,00067,2023-10-19_14h03.33.825,vbt_B2_day3,2022.2.4,Win32,59.80861244,,,,,,,,,,,,,,,,,,,,geluid,images/br_geluid.png,images/cb_geluid.png,,geluid,,,,,,,,,,,0.304629686,-0.073611111,1,0,0,geluid,0,4,4,10,1
,,,,,00067,2023-10-19_14h03.33.825,vbt_B2_day3,2022.2.4,Win32,59.80861244,,,,,,,,,,,,,,,,,,,,stoom,images/br_stoom.png,images/cb_stoom.png,,stoom,,,,,,,,,,,0.304629686,-0.073611111,1,0,0,stoom,0,5,5,6,1
,,,,,00067,2023-10-19_14h03.33.825,vbt_B2_day3,2022.2.4,Win32,59.80861244,,,,,,,,,,,,,,,,,,,,gezond,images/br_gezond.png,images/cb_gezond.png,,gezond,,,,,,,,,,,0.304629686,-0.073611111,1,0,0,gezond,0,6,6,11,1
,,,,,00067,2023-10-19_14h03.33.825,vbt_B2_day3,2022.2.4,Win32,59.80861244,,,,,,,,,,,,,,,,,,,,brappen,images/br_brappen.png,images/cb_brappen.png,,brappen,,,,,,,,,,,0.304629686,-0.073611111,1,0,0,brappen,0,7,7,35,1
,,,,,00067,2023-10-19_14h03.33.825,vbt_B2_day3,2022.2.4,Win32,59.80861244,,,,,,,,,,,,,,,,,,,,croo,images/br_croo.png,images/cb_croo.png,,croo,,,,,,,,,,,0.304629686,-0.073611111,1,0,0,croo,0,8,8,22,1
,,,,,00067,2023-10-19_14h03.33.825,vbt_B2_day3,2022.2.4,Win32,59.80861244,,,,,,,,,,,,,,,,,,,,alsof,images/br_alsof.png,images/cb_alsof.png,,alsof,,,,,,,,,,,0.304629686,-0.073611111,1,0,0,alsof,0,9,9,44,1
,,,,,00067,2023-10-19_14h03.33.825,vbt_B2_day3,2022.2.4,Win32,59.80861244,,,,,,,,,,,,,,,,,,,,leek,images/br_leek.png,images/cb_leek.png,,look,,,,,,,,,,,0.303703732,-0.073611111,1,0,0,look,0,10,10,2,1
,,,,,00067,2023-10-19_14h03.33.825,vbt_B2_day3,2022.2.4,Win32,59.80861244,,,,,,,,,,,,,,,,,,,,dwang,images/br_dwang.png,images/cb_dwang.png,,dwan.,,,,,,,,,,,0.303703732,-0.073611111,1,0,0,dwan.,0,11,11,47,1
,,,,,00067,2023-10-19_14h03.33.825,vbt_B2_day3,2022.2.4,Win32,59.80861244,,,,,,,,,,,,,,,,,,,,aarzelen,images/br_aarzelen.png,images/cb_aarzelen.png,,aarzelen,,,,,,,,,,,0.303703732,-0.07129631,1,0,0,aarzelen,0,12,12,19,1
,,,,,00067,2023-10-19_14h03.33.825,vbt_B2_day3,2022.2.4,Win32,59.80861244,,,,,,,,,,,,,,,,,,,,samen,images/br_samen.png,images/cb_samen.png,,samen,,,,,,,,,,,0.303703732,-0.068055556,1,0,0,samen,0,13,13,7,1
,,,,,00067,2023-10-19_14h03.33.825,vbt_B2_day3,2022.2.4,Win32,59.80861244,,,,,,,,,,,,,,,,,,,,afbopen,images/br_afbopen.png,images/cb_afbopen.png,,afbel..,,,,,,,,,,,0.303703732,-0.068055556,1,0,0,afbel..,0,14,14,34,1
,,,,,00067,2023-10-19_14h03.33.825,vbt_B2_day3,2022.2.4,Win32,59.80861244,,,,,,,,,,,,,,,,,,,,uviek,images/br_uviek.png,images/cb_uviek.png,,ufviek,,,,,,,,,,,0.303703732,-0.068055556,1,0,0,ufviek,0,15,15,25,1
,,,,,00067,2023-10-19_14h03.33.825,vbt_B2_day3,2022.2.4,Win32,59.80861244,,,,,,,,,,,,,,,,,,,,hint,images/br_hint.png,images/cb_hint.png,,hint,,,,,,,,,,,0.303703732,-0.068055556,1,0,0,hint,0,16,16,43,1
,,,,,00067,2023-10-19_14h03.33.825,vbt_B2_day3,2022.2.4,Win32,59.80861244,,,,,,,,,,,,,,,,,,,,begrip,images/br_begrip.png,images/cb_begrip.png,,begrip,,,,,,,,,,,0.301851908,-0.068055556,1,0,0,begrip,0,17,17,48,1
,,,,,00067,2023-10-19_14h03.33.825,vbt_B2_day3,2022.2.4,Win32,59.80861244,,,,,,,,,,,,,,,,,,,,verwoor,images/br_verwoor.png,images/cb_verwoor.png,,verwoor,,,,,,,,,,,0.301851908,-0.068055556,1,0,0,verwoor,0,18,18,32,1
,,,,,00067,2023-10-19_14h03.33.825,vbt_B2_day3,2022.2.4,Win32,59.80861244,,,,,,,,,,,,,,,,,,,,gebod,images/br_gebod.png,images/cb_gebod.png,,gebod,,,,,,,,,,,0.300463019,-0.068055556,1,0,0,gebod,0,19,19,45,1
,,,,,00067,2023-10-19_14h03.33.825,vbt_B2_day3,2022.2.4,Win32,59.80861244,,,,,,,,,,,,,,,,,,,,schatten,images/br_schatten.png,images/cb_schatten.png,,schotten,,,,,,,,,,,0.300463019,-0.068055556,1,0,0,schotten,0,20,20,18,1
,,,,,00067,2023-10-19_14h03.33.825,vbt_B2_day3,2022.2.4,Win32,59.80861244,,,,,,,,,,,,,,,,,,,,schodel,images/br_schodel.png,images/cb_schodel.png,,schod..,,,,,,,,,,,0.300463019,-0.068055556,1,0,0,schod..,0,21,21,33,1
,,,,,00067,2023-10-19_14h03.33.825,vbt_B2_day3,2022.2.4,Win32,59.80861244,,,,,,,,,,,,,,,,,,,,makieren,images/br_makieren.png,images/cb_makieren.png,,makie..,,,,,,,,,,,0.300463019,-0.068055556,0,0,1,makie..,0,22,22,36,1
,,,,,00067,2023-10-19_14h03.33.825,vbt_B2_day3,2022.2.4,Win32,59.80861244,,,,,,,,,,,,,,,,,,,,leemaken,images/br_leemaken.png,images/cb_leemaken.png,,leemak..,,,,,,,,,,,0.474537065,0.165740734,1,0,0,leemak..,0,23,23,39,1
,,,,,00067,2023-10-19_14h03.33.825,vbt_B2_day3,2022.2.4,Win32,59.80861244,,,,,,,,,,,,,,,,,,,,slapen,images/br_slapen.png,images/cb_slapen.png,,slapen,,,,,,,,,,,0.474537065,0.165740734,1,0,0,slapen,0,24,24,9,1
,,,,,00067,2023-10-19_14h03.33.825,vbt_B2_day3,2022.2.4,Win32,59.80861244,,,,,,,,,,,,,,,,,,,,onrecht,images/br_onrecht.png,images/cb_onrecht.png,,onrecht,,,,,,,,,,,0.463425954,0.2074074,1,0,0,onrecht,0,25,25,55,1
,,,,,00067,2023-10-19_14h03.33.825,vbt_B2_day3,2022.2.4,Win32,59.80861244,,,,,,,,,,,,,,,,,,,,stallen,images/br_stallen.png,images/cb_stallen.png,,stallen,,,,,,,,,,,0.465277778,0.2074074,1,0,0,stallen,0,26,26,52,1
,,,,,00067,2023-10-19_14h03.33.825,vbt_B2_day3,2022.2.4,Win32,59.80861244,,,,,,,,,,,,,,,,,,,,vlager,images/br_vlager.png,images/cb_vlager.png,,vlager,,,,,,,,,,,0.465277778,0.2074074,1,0,0,vlager,0,27,27,28,1
,,,,,00067,2023-10-19_14h03.33.825,vbt_B2_day3,2022.2.4,Win32,59.80861244,,,,,,,,,,,,,,,,,,,,eens,images/br_eens.png,images/cb_eens.png,,eens,,,,,,,,,,,0.463425954,0.206481467,1,0,0,eens,0,28,28,40,1
,,,,,00067,2023-10-19_14h03.33.825,vbt_B2_day3,2022.2.4,Win32,59.80861244,,,,,,,,,,,,,,,,,,,,oprotten,images/br_oprotten.png,images/cb_oprotten.png,,oprotten,,,,,,,,,,,0.463425954,0.206481467,1,0,0,oprotten,0,29,29,17,1
,,,,,00067,2023-10-19_14h03.33.825,vbt_B2_day3,2022.2.4,Win32,59.80861244,,,,,,,,,,,,,,,,,,,,keihard,images/br_keihard.png,images/cb_keihard.png,,weih...,,,,,,,,,,,0.463888889,0.206481467,0,0,1,weih...,0,30,30,14,1
,,,,,00067,2023-10-19_14h03.33.825,vbt_B2_day3,2022.2.4,Win32,59.80861244,,,,,,,,,,,,,,,,,,,,gout,images/br_gout.png,images/cb_gout.png,,gout,,,,,,,,,,,0.279629686,0.218981467,1,0,0,gout,0,31,31,20,1
,,,,,00067,2023-10-19_14h03.33.825,vbt_B2_day3,2022.2.4,Win32,59.80861244,,,,,,,,,,,,,,,,,,,,hust,images/br_hust.png,images/cb_hust.png,,hust,,,,,,,,,,,0.280555556,0.218981467,1,0,0,hust,0,32,32,23,1
,,,,,00067,2023-10-19_14h03.33.825,vbt_B2_day3,2022.2.4,Win32,59.80861244,,,,,,,,,,,,,,,,,,,,opzetten,images/br_opzetten.png,images/cb_opzetten.png,,opzetten,,,,,,,,,,,0.280555556,0.224537023,1,0,0,opzetten,0,33,33,56,1
,,,,,00067,2023-10-19_14h03.33.825,vbt_B2_day3,2022.2.4,Win32,59.80861244,,,,,,,,,,,,,,,,,,,,theeting,images/br_theeting.png,images/cb_theeting.png,,scee...,,,,,,,,,,,0.280555556,0.224537023,1,0,0,scee...,0,34,34,38,1
,,,,,00067,2023-10-19_14h03.33.825,vbt_B2_day3,2022.2.4,Win32,59.80861244,,,,,,,,,,,,,,,,,,,,booien,images/br_booien.png,images/cb_booien.png,,booein,,,,,,,,,,,0.280555556,0.224537023,0,0,1,booein,0,35,35,31,1
,,,,,00067,2023-10-19_14h03.33.825,vbt_B2_day3,2022.2.4,Win32,59.80861244,,,,,,,,,,,,,,,,,,,,sluier,images/br_sluier.png,images/cb_sluier.png,,sluier,,,,,,,,,,,0.155555556,0.256944444,1,0,0,sluier,0,36,36,50,1
,,,,,00067,2023-10-19_14h03.33.825,vbt_B2_day3,2022.2.4,Win32,59.80861244,,,,,,,,,,,,,,,,,,,,leugeren,images/br_leugeren.png,images/cb_leugeren.png,,lemgeren,,,,,,,,,,,-0.020370314,-0.198611111,1,0,0,lemgeren,0,37,37,37,1
,,,,,00067,2023-10-19_14h03.33.825,vbt_B2_day3,2022.2.4,Win32,59.80861244,,,,,,,,,,,,,,,,,,,,stikken,images/br_stikken.png,images/cb_stikken.png,,stikken,,,,,,,,,,,0.736574131,0.075925912,1,0,0,stikken,0,38,38,54,1
,,,,,00067,2023-10-19_14h03.33.825,vbt_B2_day3,2022.2.4,Win32,59.80861244,,,,,,,,,,,,,,,,,,,,uniek,images/br_uniek.png,images/cb_uniek.png,,uniek,,,,,,,,,,,0.736574131,0.076851824,1,0,0,uniek,0,39,39,46,1
,,,,,00067,2023-10-19_14h03.33.825,vbt_B2_day3,2022.2.4,Win32,59.80861244,,,,,,,,,,,,,,,,,,,,beslag,images/br_beslag.png,images/cb_beslag.png,,beslag,,,,,,,,,,,0.736574131,0.076851824,1,0,0,beslag,0,40,40,51,1
,,,,,00067,2023-10-19_14h03.33.825,vbt_B2_day3,2022.2.4,Win32,59.80861244,,,,,,,,,,,,,,,,,,,,paken,images/br_paken.png,images/cb_paken.png,,paken,,,,,,,,,,,0.7375,0.076388889,0,0,1,paken,0,41,41,27,1
,,,,,00067,2023-10-19_14h03.33.825,vbt_B2_day3,2022.2.4,Win32,59.80861244,,,,,,,,,,,,,,,,,,,,bisschop,images/br_bisschop.png,images/cb_bisschop.png,,,,,,,,,,,,,0.107870399,-0.19398151,1,0,0,,0,42,42,16,1
,,,,,00067,2023-10-19_14h03.33.825,vbt_B2_day3,2022.2.4,Win32,59.80861244,,,,,,,,,,,,,,,,,,,,hier,images/br_hier.png,images/cb_hier.png,,hier,,,,,,,,,,,0.533333333,-0.025462977,1,0,0,hier,0,43,43,1,1
,,,,,00067,2023-10-19_14h03.33.825,vbt_B2_day3,2022.2.4,Win32,59.80861244,,,,,,,,,,,,,,,,,,,,bevret,images/br_bevret.png,images/cb_bevret.png,,be...,,,,,,,,,,,0.533333333,-0.025462977,1,0,0,be...,0,44,44,30,1
,,,,,00067,2023-10-19_14h03.33.825,vbt_B2_day3,2022.2.4,Win32,59.80861244,,,,,,,,,,,,,,,,,,,,twaaf,images/br_twaaf.png,images/cb_twaaf.png,,twaaf,,,,,,,,,,,0.533333333,-0.025462977,1,0,0,twaaf,0,45,45,24,1
,,,,,00067,2023-10-19_14h03.33.825,vbt_B2_day3,2022.2.4,Win32,59.80861244,,,,,,,,,,,,,,,,,,,,mode,images/br_mode.png,images/cb_mode.png,,mode,,,,,,,,,,,0.533333333,-0.025462977,1,0,0,mode,0,46,46,3,1
,,,,,00067,2023-10-19_14h03.33.825,vbt_B2_day3,2022.2.4,Win32,59.80861244,,,,,,,,,,,,,,,,,,,,knie,images/br_knie.png,images/cb_knie.png,,knie,,,,,,,,,,,0.533333333,-0.025462977,1,0,0,knie,0,47,47,0,1
,,,,,00067,2023-10-19_14h03.33.825,vbt_B2_day3,2022.2.4,Win32,59.80861244,,,,,,,,,,,,,,,,,,,,verraden,images/br_verraden.png,images/cb_verraden.png,,verraden,,,,,,,,,,,0.533333333,-0.025462977,1,0,0,verraden,0,48,48,58,1
,,,,,00067,2023-10-19_14h03.33.825,vbt_B2_day3,2022.2.4,Win32,59.80861244,,,,,,,,,,,,,,,,,,,,glijden,images/br_glijden.png,images/cb_glijden.png,,glid...,,,,,,,,,,,0.533333333,-0.025462977,1,0,0,glid...,0,49,49,53,1
,,,,,00067,2023-10-19_14h03.33.825,vbt_B2_day3,2022.2.4,Win32,59.80861244,,,,,,,,,,,,,,,,,,,,sultan,images/br_sultan.png,images/cb_sultan.png,,suta.,,,,,,,,,,,0.533333333,-0.025462977,1,0,0,suta.,0,50,50,49,1
,,,,,00067,2023-10-19_14h03.33.825,vbt_B2_day3,2022.2.4,Win32,59.80861244,,,,,,,,,,,,,,,,,,,,verhaal,images/br_verhaal.png,images/cb_verhaal.png,,verhaal,,,,,,,,,,,0.533333333,-0.025462977,1,0,0,verhaal,0,51,51,13,1
,,,,,00067,2023-10-19_14h03.33.825,vbt_B2_day3,2022.2.4,Win32,59.80861244,,,,,,,,,,,,,,,,,,,,kaas,images/br_kaas.png,images/cb_kaas.png,,kaas,,,,,,,,,,,0.533333333,-0.025462977,1,0,0,kaas,0,52,52,42,1
,,,,,00067,2023-10-19_14h03.33.825,vbt_B2_day3,2022.2.4,Win32,59.80861244,,,,,,,,,,,,,,,,,,,,jongelui,images/br_jongelui.png,images/cb_jongelui.png,,dongelu,,,,,,,,,,,0.533333333,-0.025462977,1,0,0,dongelu,0,53,53,59,1
,,,,,00067,2023-10-19_14h03.33.825,vbt_B2_day3,2022.2.4,Win32,59.80861244,,,,,,,,,,,,,,,,,,,,kwaas,images/br_kwaas.png,images/cb_kwaas.png,,kwaal,,,,,,,,,,,0.533333333,-0.025462977,1,0,0,kwaal,0,54,54,26,1
,,,,,00067,2023-10-19_14h03.33.825,vbt_B2_day3,2022.2.4,Win32,59.80861244,,,,,,,,,,,,,,,,,,,,prikken,images/br_prikken.png,images/cb_prikken.png,,prikken,,,,,,,,,,,0.533333333,-0.025925954,1,0,0,prikken,0,55,55,12,1
,,,,,00067,2023-10-19_14h03.33.825,vbt_B2_day3,2022.2.4,Win32,59.80861244,,,,,,,,,,,,,,,,,,,,steel,images/br_steel.png,images/cb_steel.png,,steel,,,,,,,,,,,0.533333333,-0.025925954,1,0,0,steel,0,56,56,4,1
,,,,,00067,2023-10-19_14h03.33.825,vbt_B2_day3,2022.2.4,Win32,59.80861244,,,,,,,,,,,,,,,,,,,,kest,images/br_kest.png,images/cb_kest.png,,kest,,,,,,,,,,,0.533333333,-0.025925954,1,0,0,kest,0,57,57,21,1
,,,,,00067,2023-10-19_14h03.33.825,vbt_B2_day3,2022.2.4,Win32,59.80861244,,,,,,,,,,,,,,,,,,,,invallen,images/br_invallen.png,images/cb_invallen.png,,invallen,,,,,,,,,,,0.533333333,-0.025925954,1,0,0,invallen,0,58,58,57,1
,,,,,00067,2023-10-19_14h03.33.825,vbt_B2_day3,2022.2.4,Win32,59.80861244,,,,,,,,,,,,,,,,,,,,laken,images/br_laken.png,images/cb_laken.png,,laken,,,,,,,,,,,0.533333333,-0.026851866,1,0,0,laken,0,59,59,5,1
,,,,,00067,2023-10-19_14h03.33.825,vbt_B2_day3,2022.2.4,Win32,59.80861244,,,,,,,,,,,,,,,,,,,,,,,,,,,,,,,,,,,,,,,,,,,,,
