welcome_mouse.x,welcome_mouse.y,welcome_mouse.leftButton,welcome_mouse.midButton,welcome_mouse.rightButton,"ID",date,expName,psychopyVersion,OS,frameRate,trainInstr_mouse.x,trainInstr_mouse.y,trainInstr_mouse.leftButton,trainInstr_mouse.midButton,trainInstr_mouse.rightButton,translation_key.keys,translation_key.corr,translation_key.rt,word_rsp.text,trWrd_mouse.x,trWrd_mouse.y,trWrd_mouse.leftButton,trWrd_mouse.midButton,trWrd_mouse.rightButton,train_loop.thisRepN,train_loop.thisTrialN,train_loop.thisN,train_loop.thisIndex,train_loop.ran,nlWrd,brWrd,cbWrd,test,testResp,mouse.x,mouse.y,mouse.leftButton,mouse.midButton,mouse.rightButton,testInstr_mouse.x,testInstr_mouse.y,testInstr_mouse.leftButton,testInstr_mouse.midButton,testInstr_mouse.rightButton,test_mouse.x,test_mouse.y,test_mouse.leftButton,test_mouse.midButton,test_mouse.rightButton,test_response.text,test_loop.thisRepN,test_loop.thisTrialN,test_loop.thisN,test_loop.thisIndex,test_loop.ran
-0.084259245,-0.132407436,1,0,0,00097,2023-11-08_12h26.32.000,vbt_B2_day3,2022.2.4,Win32,143.7194596,,,,,,,,,,,,,,,,,,,,,,,,,,,,,,,,,,,,,,,,,,,,,
,,,,,00097,2023-11-08_12h26.32.000,vbt_B2_day3,2022.2.4,Win32,143.7194596,-0.084259245,-0.132407436,1,0,0,,,,,,,,,,,,,,,,,,,,,,,,,,,,,,,,,,,,,,,,
,,,,,00097,2023-11-08_12h26.32.000,vbt_B2_day3,2022.2.4,Win32,143.7194596,,,,,,down,0,0.3737,,-0.084259245,-0.132407436,1,0,0,0,0,0,73,1,volop,images/br_volop.png,images/cb_volop.png,0,,,,,,,,,,,,,,,,,,,,,,
,,,,,00097,2023-11-08_12h26.32.000,vbt_B2_day3,2022.2.4,Win32,143.7194596,,,,,,down,0,0.2321,,-0.084259245,-0.132407436,1,0,0,0,1,1,28,1,stal,images/br_stal.png,images/cb_stal.png,0,,,,,,,,,,,,,,,,,,,,,,
,,,,,00097,2023-11-08_12h26.32.000,vbt_B2_day3,2022.2.4,Win32,143.7194596,,,,,,down,0,0.3645,,-0.084259245,-0.132407436,1,0,0,0,2,2,5,1,blad,images/br_blad.png,images/cb_blad.png,0,,,,,,,,,,,,,,,,,,,,,,
,,,,,00097,2023-11-08_12h26.32.000,vbt_B2_day3,2022.2.4,Win32,143.7194596,,,,,,down,0,0.2163,,-0.084259245,-0.132407436,1,0,0,0,3,3,199,1,beseffen,images/br_beseffen.png,images/cb_beseffen.png,0,,,,,,,,,,,,,,,,,,,,,,
,,,,,00097,2023-11-08_12h26.32.000,vbt_B2_day3,2022.2.4,Win32,143.7194596,,,,,,down,0,0.0289,,-0.084259245,-0.132407436,1,0,0,0,4,4,138,1,akkoord,images/br_akkoord.png,images/cb_akkoord.png,0,,,,,,,,,,,,,,,,,,,,,,
,,,,,00097,2023-11-08_12h26.32.000,vbt_B2_day3,2022.2.4,Win32,143.7194596,,,,,,down,0,0.1398,,-0.084259245,-0.132407436,1,0,0,0,5,5,187,1,opkijken,images/br_opkijken.png,images/cb_opkijken.png,0,,,,,,,,,,,,,,,,,,,,,,
,,,,,00097,2023-11-08_12h26.32.000,vbt_B2_day3,2022.2.4,Win32,143.7194596,,,,,,down,0,0.1837,,-0.084259245,-0.132407436,1,0,0,0,6,6,132,1,grappen,images/br_grappen.png,images/cb_grappen.png,0,,,,,,,,,,,,,,,,,,,,,,
,,,,,00097,2023-11-08_12h26.32.000,vbt_B2_day3,2022.2.4,Win32,143.7194596,,,,,,down,0,0.2924,,-0.084259245,-0.132407436,1,0,0,0,7,7,6,1,diep,images/br_diep.png,images/cb_diep.png,0,,,,,,,,,,,,,,,,,,,,,,
,,,,,00097,2023-11-08_12h26.32.000,vbt_B2_day3,2022.2.4,Win32,143.7194596,,,,,,down,0,0.133,,-0.084259245,-0.132407436,1,0,0,0,8,8,122,1,waarvan,images/br_waarvan.png,images/cb_waarvan.png,0,,,,,,,,,,,,,,,,,,,,,,
,,,,,00097,2023-11-08_12h26.32.000,vbt_B2_day3,2022.2.4,Win32,143.7194596,,,,,,down,0,0.2403,,-0.084259245,-0.132407436,1,0,0,0,9,9,97,1,loyaal,images/br_loyaal.png,images/cb_loyaal.png,0,,,,,,,,,,,,,,,,,,,,,,
,,,,,00097,2023-11-08_12h26.32.000,vbt_B2_day3,2022.2.4,Win32,143.7194596,,,,,,down,0,0.2184,,-0.084259245,-0.132407436,1,0,0,0,10,10,89,1,slapen,images/br_slapen.png,images/cb_slapen.png,0,,,,,,,,,,,,,,,,,,,,,,
,,,,,00097,2023-11-08_12h26.32.000,vbt_B2_day3,2022.2.4,Win32,143.7194596,,,,,,down,0,0.3099,,-0.084259245,-0.132407436,1,0,0,0,11,11,56,1,traag,images/br_traag.png,images/cb_traag.png,0,,,,,,,,,,,,,,,,,,,,,,
,,,,,00097,2023-11-08_12h26.32.000,vbt_B2_day3,2022.2.4,Win32,143.7194596,,,,,,down,0,0.1416,,-0.084259245,-0.132407436,1,0,0,0,12,12,147,1,komisch,images/br_komisch.png,images/cb_komisch.png,0,,,,,,,,,,,,,,,,,,,,,,
,,,,,00097,2023-11-08_12h26.32.000,vbt_B2_day3,2022.2.4,Win32,143.7194596,,,,,,down,0,0.1951,,-0.084259245,-0.132407436,1,0,0,0,13,13,83,1,mening,images/br_mening.png,images/cb_mening.png,0,,,,,,,,,,,,,,,,,,,,,,
,,,,,00097,2023-11-08_12h26.32.000,vbt_B2_day3,2022.2.4,Win32,143.7194596,,,,,,down,0,0.1962,,-0.084259245,-0.132407436,1,0,0,0,14,14,77,1,woede,images/br_woede.png,images/cb_woede.png,0,,,,,,,,,,,,,,,,,,,,,,
,,,,,00097,2023-11-08_12h26.32.000,vbt_B2_day3,2022.2.4,Win32,143.7194596,,,,,,down,0,0.3166,,-0.084259245,-0.132407436,1,0,0,0,15,15,157,1,uitlaat,images/br_uitlaat.png,images/cb_uitlaat.png,0,,,,,,,,,,,,,,,,,,,,,,
,,,,,00097,2023-11-08_12h26.32.000,vbt_B2_day3,2022.2.4,Win32,143.7194596,,,,,,down,0,0.5311,,-0.084259245,-0.132407436,1,0,0,0,16,16,131,1,opzicht,images/br_opzicht.png,images/cb_opzicht.png,0,,,,,,,,,,,,,,,,,,,,,,
,,,,,00097,2023-11-08_12h26.32.000,vbt_B2_day3,2022.2.4,Win32,143.7194596,,,,,,down,0,0.3581,,-0.084259245,-0.132407436,1,0,0,0,17,17,15,1,soda,images/br_soda.png,images/cb_soda.png,0,,,,,,,,,,,,,,,,,,,,,,
,,,,,00097,2023-11-08_12h26.32.000,vbt_B2_day3,2022.2.4,Win32,143.7194596,,,,,,down,0,0.2162,,-0.084259245,-0.132407436,1,0,0,0,18,18,85,1,heilig,images/br_heilig.png,images/cb_heilig.png,0,,,,,,,,,,,,,,,,,,,,,,
,,,,,00097,2023-11-08_12h26.32.000,vbt_B2_day3,2022.2.4,Win32,143.7194596,,,,,,down,0,0.2158,,-0.084259245,-0.132407436,1,0,0,0,19,19,185,1,mijnheer,images/br_mijnheer.png,images/cb_mijnheer.png,0,,,,,,,,,,,,,,,,,,,,,,
,,,,,00097,2023-11-08_12h26.32.000,vbt_B2_day3,2022.2.4,Win32,143.7194596,,,,,,down,0,0.1801,,-0.084259245,-0.132407436,1,0,0,0,20,20,124,1,bloeien,images/br_bloeien.png,images/cb_bloeien.png,0,,,,,,,,,,,,,,,,,,,,,,
,,,,,00097,2023-11-08_12h26.32.000,vbt_B2_day3,2022.2.4,Win32,143.7194596,,,,,,down,0,0.2379,,-0.084259245,-0.132407436,1,0,0,0,21,21,166,1,strikken,images/br_strikken.png,images/cb_strikken.png,0,,,,,,,,,,,,,,,,,,,,,,
,,,,,00097,2023-11-08_12h26.32.000,vbt_B2_day3,2022.2.4,Win32,143.7194596,,,,,,down,0,0.0949,,-0.084259245,-0.132407436,1,0,0,0,22,22,110,1,zuster,images/br_zuster.png,images/cb_zuster.png,0,,,,,,,,,,,,,,,,,,,,,,
,,,,,00097,2023-11-08_12h26.32.000,vbt_B2_day3,2022.2.4,Win32,143.7194596,,,,,,down,0,0.0589,,-0.084259245,-0.132407436,1,0,0,0,23,23,65,1,parel,images/br_parel.png,images/cb_parel.png,0,,,,,,,,,,,,,,,,,,,,,,
,,,,,00097,2023-11-08_12h26.32.000,vbt_B2_day3,2022.2.4,Win32,143.7194596,,,,,,down,0,0.2747,,-0.084259245,-0.132407436,1,0,0,0,24,24,128,1,prikken,images/br_prikken.png,images/cb_prikken.png,0,,,,,,,,,,,,,,,,,,,,,,
,,,,,00097,2023-11-08_12h26.32.000,vbt_B2_day3,2022.2.4,Win32,143.7194596,,,,,,down,0,0.1561,,-0.084259245,-0.132407436,1,0,0,0,25,25,75,1,snoep,images/br_snoep.png,images/cb_snoep.png,0,,,,,,,,,,,,,,,,,,,,,,
,,,,,00097,2023-11-08_12h26.32.000,vbt_B2_day3,2022.2.4,Win32,143.7194596,,,,,,down,0,0.1893,,-0.084259245,-0.132407436,1,0,0,0,26,26,160,1,daarheen,images/br_daarheen.png,images/cb_daarheen.png,0,,,,,,,,,,,,,,,,,,,,,,
,,,,,00097,2023-11-08_12h26.32.000,vbt_B2_day3,2022.2.4,Win32,143.7194596,,,,,,down,0,0.2399,,-0.084259245,-0.132407436,1,0,0,0,27,27,153,1,vervoer,images/br_vervoer.png,images/cb_vervoer.png,0,,,,,,,,,,,,,,,,,,,,,,
,,,,,00097,2023-11-08_12h26.32.000,vbt_B2_day3,2022.2.4,Win32,143.7194596,,,,,,down,0,0.4114,,-0.084259245,-0.132407436,1,0,0,0,28,28,8,1,knie,images/br_knie.png,images/cb_knie.png,0,,,,,,,,,,,,,,,,,,,,,,
,,,,,00097,2023-11-08_12h26.32.000,vbt_B2_day3,2022.2.4,Win32,143.7194596,,,,,,down,0,0.3127,,-0.084259245,-0.132407436,1,0,0,0,29,29,24,1,jurk,images/br_jurk.png,images/cb_jurk.png,0,,,,,,,,,,,,,,,,,,,,,,
,,,,,00097,2023-11-08_12h26.32.000,vbt_B2_day3,2022.2.4,Win32,143.7194596,,,,,,down,0,0.3855,,-0.084259245,-0.132407436,1,0,0,0,30,30,71,1,bever,images/br_bever.png,images/cb_bever.png,0,,,,,,,,,,,,,,,,,,,,,,
,,,,,00097,2023-11-08_12h26.32.000,vbt_B2_day3,2022.2.4,Win32,143.7194596,,,,,,down,0,0.1603,,-0.084259245,-0.132407436,1,0,0,0,31,31,177,1,maaltijd,images/br_maaltijd.png,images/cb_maaltijd.png,0,,,,,,,,,,,,,,,,,,,,,,
,,,,,00097,2023-11-08_12h26.32.000,vbt_B2_day3,2022.2.4,Win32,143.7194596,,,,,,down,0,0.2503,,-0.084259245,-0.132407436,1,0,0,0,32,32,150,1,gegeven,images/br_gegeven.png,images/cb_gegeven.png,0,,,,,,,,,,,,,,,,,,,,,,
,,,,,00097,2023-11-08_12h26.32.000,vbt_B2_day3,2022.2.4,Win32,143.7194596,,,,,,down,0,0.1602,,-0.084259245,-0.132407436,1,0,0,0,33,33,39,1,laag,images/br_laag.png,images/cb_laag.png,0,,,,,,,,,,,,,,,,,,,,,,
,,,,,00097,2023-11-08_12h26.32.000,vbt_B2_day3,2022.2.4,Win32,143.7194596,,,,,,down,0,0.1621,,-0.084259245,-0.132407436,1,0,0,0,34,34,193,1,weeshuis,images/br_weeshuis.png,images/cb_weeshuis.png,0,,,,,,,,,,,,,,,,,,,,,,
,,,,,00097,2023-11-08_12h26.32.000,vbt_B2_day3,2022.2.4,Win32,143.7194596,,,,,,down,0,5.905,,-0.126851824,-0.308333362,1,0,0,0,35,35,60,1,jasje,images/br_jasje.png,images/cb_jasje.png,1,jasje,,,,,,,,,,,,,,,,,,,,,
,,,,,00097,2023-11-08_12h26.32.000,vbt_B2_day3,2022.2.4,Win32,143.7194596,,,,,,down,0,0.9317,,-0.126851824,-0.308333362,1,0,0,0,36,36,62,1,knaap,images/br_knaap.png,images/cb_knaap.png,1,knaap,,,,,,,,,,,,,,,,,,,,,
,,,,,00097,2023-11-08_12h26.32.000,vbt_B2_day3,2022.2.4,Win32,143.7194596,,,,,,down,0,0.2748,,-0.099074046,-0.30740745,1,0,0,0,37,37,76,1,afval,images/br_afval.png,images/cb_afval.png,0,,,,,,,,,,,,,,,,,,,,,,
,,,,,00097,2023-11-08_12h26.32.000,vbt_B2_day3,2022.2.4,Win32,143.7194596,,,,,,down,0,4.4066,,-0.099074046,-0.30740745,1,0,0,0,38,38,183,1,getuigen,images/br_getuigen.png,images/cb_getuigen.png,1,getuigen,,,,,,,,,,,,,,,,,,,,,
,,,,,00097,2023-11-08_12h26.32.000,vbt_B2_day3,2022.2.4,Win32,143.7194596,,,,,,down,0,0.2249,,-0.099074046,-0.30740745,1,0,0,0,39,39,38,1,baai,images/br_baai.png,images/cb_baai.png,0,,,,,,,,,,,,,,,,,,,,,,
,,,,,00097,2023-11-08_12h26.32.000,vbt_B2_day3,2022.2.4,Win32,143.7194596,,,,,,down,0,0.2435,,-0.050000014,-0.282407407,1,0,0,0,40,40,112,1,lukken,images/br_lukken.png,images/cb_lukken.png,0,,,,,,,,,,,,,,,,,,,,,,
,,,,,00097,2023-11-08_12h26.32.000,vbt_B2_day3,2022.2.4,Win32,143.7194596,,,,,,down,0,0.1947,,-0.050000014,-0.282407407,1,0,0,0,41,41,170,1,schatten,images/br_schatten.png,images/cb_schatten.png,0,,,,,,,,,,,,,,,,,,,,,,
,,,,,00097,2023-11-08_12h26.32.000,vbt_B2_day3,2022.2.4,Win32,143.7194596,,,,,,down,0,0.3709,,-0.050000014,-0.282407407,1,0,0,0,42,42,74,1,graaf,images/br_graaf.png,images/cb_graaf.png,0,,,,,,,,,,,,,,,,,,,,,,
,,,,,00097,2023-11-08_12h26.32.000,vbt_B2_day3,2022.2.4,Win32,143.7194596,,,,,,down,0,6.0769,,-0.050000014,-0.282407407,1,0,0,0,43,43,140,1,blijven,images/br_blijven.png,images/cb_blijven.png,1,blijven,,,,,,,,,,,,,,,,,,,,,
,,,,,00097,2023-11-08_12h26.32.000,vbt_B2_day3,2022.2.4,Win32,143.7194596,,,,,,down,0,0.6399,,-0.050000014,-0.282407407,1,0,0,0,44,44,98,1,kreeft,images/br_kreeft.png,images/cb_kreeft.png,0,,,,,,,,,,,,,,,,,,,,,,
,,,,,00097,2023-11-08_12h26.32.000,vbt_B2_day3,2022.2.4,Win32,143.7194596,,,,,,down,0,0.2852,,-0.050000014,-0.282407407,1,0,0,0,45,45,176,1,techniek,images/br_techniek.png,images/cb_techniek.png,0,,,,,,,,,,,,,,,,,,,,,,
,,,,,00097,2023-11-08_12h26.32.000,vbt_B2_day3,2022.2.4,Win32,143.7194596,,,,,,down,0,0.0583,,-0.050000014,-0.282407407,1,0,0,0,46,46,68,1,schat,images/br_schat.png,images/cb_schat.png,0,,,,,,,,,,,,,,,,,,,,,,
,,,,,00097,2023-11-08_12h26.32.000,vbt_B2_day3,2022.2.4,Win32,143.7194596,,,,,,down,0,0.2437,,-0.050000014,-0.282407407,1,0,0,0,47,47,137,1,trekker,images/br_trekker.png,images/cb_trekker.png,0,,,,,,,,,,,,,,,,,,,,,,
,,,,,00097,2023-11-08_12h26.32.000,vbt_B2_day3,2022.2.4,Win32,143.7194596,,,,,,down,0,0.2241,,-0.050000014,-0.282407407,1,0,0,0,48,48,188,1,strekken,images/br_strekken.png,images/cb_strekken.png,0,,,,,,,,,,,,,,,,,,,,,,
,,,,,00097,2023-11-08_12h26.32.000,vbt_B2_day3,2022.2.4,Win32,143.7194596,,,,,,down,0,0.1326,,-0.050000014,-0.282407407,1,0,0,0,49,49,146,1,opkomen,images/br_opkomen.png,images/cb_opkomen.png,0,,,,,,,,,,,,,,,,,,,,,,
,,,,,00097,2023-11-08_12h26.32.000,vbt_B2_day3,2022.2.4,Win32,143.7194596,,,,,,down,0,0.2862,,-0.050000014,-0.282407407,1,0,0,0,50,50,46,1,jagen,images/br_jagen.png,images/cb_jagen.png,0,,,,,,,,,,,,,,,,,,,,,,
,,,,,00097,2023-11-08_12h26.32.000,vbt_B2_day3,2022.2.4,Win32,143.7194596,,,,,,down,0,0.2228,,-0.050000014,-0.282407407,1,0,0,0,51,51,126,1,kasteel,images/br_kasteel.png,images/cb_kasteel.png,0,,,,,,,,,,,,,,,,,,,,,,
,,,,,00097,2023-11-08_12h26.32.000,vbt_B2_day3,2022.2.4,Win32,143.7194596,,,,,,down,0,0.1279,,-0.050000014,-0.282407407,1,0,0,0,52,52,106,1,zingen,images/br_zingen.png,images/cb_zingen.png,0,,,,,,,,,,,,,,,,,,,,,,
,,,,,00097,2023-11-08_12h26.32.000,vbt_B2_day3,2022.2.4,Win32,143.7194596,,,,,,down,0,0.1674,,-0.050000014,-0.282407407,1,0,0,0,53,53,25,1,plek,images/br_plek.png,images/cb_plek.png,0,,,,,,,,,,,,,,,,,,,,,,
,,,,,00097,2023-11-08_12h26.32.000,vbt_B2_day3,2022.2.4,Win32,143.7194596,,,,,,down,0,0.1492,,-0.050000014,-0.282407407,1,0,0,0,54,54,69,1,waken,images/br_waken.png,images/cb_waken.png,0,,,,,,,,,,,,,,,,,,,,,,
,,,,,00097,2023-11-08_12h26.32.000,vbt_B2_day3,2022.2.4,Win32,143.7194596,,,,,,down,0,0.0909,,-0.050000014,-0.282407407,1,0,0,0,55,55,104,1,zweven,images/br_zweven.png,images/cb_zweven.png,0,,,,,,,,,,,,,,,,,,,,,,
,,,,,00097,2023-11-08_12h26.32.000,vbt_B2_day3,2022.2.4,Win32,143.7194596,,,,,,down,0,0.1811,,-0.050000014,-0.282407407,1,0,0,0,56,56,144,1,eetlust,images/br_eetlust.png,images/cb_eetlust.png,0,,,,,,,,,,,,,,,,,,,,,,
,,,,,00097,2023-11-08_12h26.32.000,vbt_B2_day3,2022.2.4,Win32,143.7194596,,,,,,down,0,0.0502,,-0.050000014,-0.282407407,1,0,0,0,57,57,105,1,wijlen,images/br_wijlen.png,images/cb_wijlen.png,0,,,,,,,,,,,,,,,,,,,,,,
,,,,,00097,2023-11-08_12h26.32.000,vbt_B2_day3,2022.2.4,Win32,143.7194596,,,,,,down,0,0.0233,,-0.050000014,-0.282407407,1,0,0,0,58,58,16,1,ziek,images/br_ziek.png,images/cb_ziek.png,0,,,,,,,,,,,,,,,,,,,,,,
,,,,,00097,2023-11-08_12h26.32.000,vbt_B2_day3,2022.2.4,Win32,143.7194596,,,,,,down,0,0.3119,,-0.050000014,-0.282407407,1,0,0,0,59,59,129,1,verhaal,images/br_verhaal.png,images/cb_verhaal.png,0,,,,,,,,,,,,,,,,,,,,,,
,,,,,00097,2023-11-08_12h26.32.000,vbt_B2_day3,2022.2.4,Win32,143.7194596,,,,,,down,0,0.216,,-0.050000014,-0.282407407,1,0,0,0,60,60,162,1,uitdelen,images/br_uitdelen.png,images/cb_uitdelen.png,0,,,,,,,,,,,,,,,,,,,,,,
,,,,,00097,2023-11-08_12h26.32.000,vbt_B2_day3,2022.2.4,Win32,143.7194596,,,,,,down,0,0.2154,,-0.050000014,-0.282407407,1,0,0,0,61,61,36,1,vuur,images/br_vuur.png,images/cb_vuur.png,0,,,,,,,,,,,,,,,,,,,,,,
,,,,,00097,2023-11-08_12h26.32.000,vbt_B2_day3,2022.2.4,Win32,143.7194596,,,,,,down,0,0.0836,,-0.050000014,-0.282407407,1,0,0,0,62,62,14,1,rijp,images/br_rijp.png,images/cb_rijp.png,0,,,,,,,,,,,,,,,,,,,,,,
,,,,,00097,2023-11-08_12h26.32.000,vbt_B2_day3,2022.2.4,Win32,143.7194596,,,,,,down,0,0.1778,,-0.050000014,-0.282407407,1,0,0,0,63,63,86,1,woning,images/br_woning.png,images/cb_woning.png,0,,,,,,,,,,,,,,,,,,,,,,
,,,,,00097,2023-11-08_12h26.32.000,vbt_B2_day3,2022.2.4,Win32,143.7194596,,,,,,down,0,2.0124,,0.102777764,-0.310185185,1,0,0,0,64,64,23,1,zout,images/br_zout.png,images/cb_zout.png,1,zout,,,,,,,,,,,,,,,,,,,,,
,,,,,00097,2023-11-08_12h26.32.000,vbt_B2_day3,2022.2.4,Win32,143.7194596,,,,,,down,0,0.1951,,0.102777764,-0.310185185,1,0,0,0,65,65,87,1,toeval,images/br_toeval.png,images/cb_toeval.png,0,,,,,,,,,,,,,,,,,,,,,,
,,,,,00097,2023-11-08_12h26.32.000,vbt_B2_day3,2022.2.4,Win32,143.7194596,,,,,,down,0,0.1916,,0.102777764,-0.310185185,1,0,0,0,66,66,189,1,aanraden,images/br_aanraden.png,images/cb_aanraden.png,0,,,,,,,,,,,,,,,,,,,,,,
,,,,,00097,2023-11-08_12h26.32.000,vbt_B2_day3,2022.2.4,Win32,143.7194596,,,,,,down,0,0.6652,,0.102777764,-0.310185185,1,0,0,0,67,67,40,1,schep,images/br_schep.png,images/cb_schep.png,0,,,,,,,,,,,,,,,,,,,,,,
,,,,,00097,2023-11-08_12h26.32.000,vbt_B2_day3,2022.2.4,Win32,143.7194596,,,,,,down,0,8.1891,,0.102777764,-0.310185185,1,0,0,0,68,68,182,1,bijkomen,images/br_bijkomen.png,images/cb_bijkomen.png,1,bijkomen,,,,,,,,,,,,,,,,,,,,,
,,,,,00097,2023-11-08_12h26.32.000,vbt_B2_day3,2022.2.4,Win32,143.7194596,,,,,,down,0,0.5537,,0.102777764,-0.310185185,1,0,0,0,69,69,108,1,excuus,images/br_excuus.png,images/cb_excuus.png,0,,,,,,,,,,,,,,,,,,,,,,
,,,,,00097,2023-11-08_12h26.32.000,vbt_B2_day3,2022.2.4,Win32,143.7194596,,,,,,down,0,0.0455,,0.102777764,-0.310185185,1,0,0,0,70,70,57,1,steek,images/br_steek.png,images/cb_steek.png,0,,,,,,,,,,,,,,,,,,,,,,
,,,,,00097,2023-11-08_12h26.32.000,vbt_B2_day3,2022.2.4,Win32,143.7194596,,,,,,down,0,0.2773,,0.102777764,-0.310185185,1,0,0,0,71,71,190,1,goedkoop,images/br_goedkoop.png,images/cb_goedkoop.png,0,,,,,,,,,,,,,,,,,,,,,,
,,,,,00097,2023-11-08_12h26.32.000,vbt_B2_day3,2022.2.4,Win32,143.7194596,,,,,,down,0,0.1707,,0.102777764,-0.310185185,1,0,0,0,72,72,9,1,hier,images/br_hier.png,images/cb_hier.png,0,,,,,,,,,,,,,,,,,,,,,,
,,,,,00097,2023-11-08_12h26.32.000,vbt_B2_day3,2022.2.4,Win32,143.7194596,,,,,,down,0,0.3993,,0.102777764,-0.310185185,1,0,0,0,73,73,42,1,bleek,images/br_bleek.png,images/cb_bleek.png,0,,,,,,,,,,,,,,,,,,,,,,
,,,,,00097,2023-11-08_12h26.32.000,vbt_B2_day3,2022.2.4,Win32,143.7194596,,,,,,down,0,0.3568,,0.102777764,-0.310185185,1,0,0,0,74,74,12,1,kust,images/br_kust.png,images/cb_kust.png,0,,,,,,,,,,,,,,,,,,,,,,
,,,,,00097,2023-11-08_12h26.32.000,vbt_B2_day3,2022.2.4,Win32,143.7194596,,,,,,down,0,0.0232,,0.102777764,-0.310185185,1,0,0,0,75,75,121,1,twijfel,images/br_twijfel.png,images/cb_twijfel.png,0,,,,,,,,,,,,,,,,,,,,,,
,,,,,00097,2023-11-08_12h26.32.000,vbt_B2_day3,2022.2.4,Win32,143.7194596,,,,,,down,0,0.0147,,0.102777764,-0.310185185,1,0,0,0,76,76,99,1,koffie,images/br_koffie.png,images/cb_koffie.png,0,,,,,,,,,,,,,,,,,,,,,,
,,,,,00097,2023-11-08_12h26.32.000,vbt_B2_day3,2022.2.4,Win32,143.7194596,,,,,,down,0,0.2162,,0.102777764,-0.310185185,1,0,0,0,77,77,179,1,woestijn,images/br_woestijn.png,images/cb_woestijn.png,0,,,,,,,,,,,,,,,,,,,,,,
,,,,,00097,2023-11-08_12h26.32.000,vbt_B2_day3,2022.2.4,Win32,143.7194596,,,,,,down,0,0.1786,,0.102777764,-0.310185185,1,0,0,0,78,78,168,1,bisschop,images/br_bisschop.png,images/cb_bisschop.png,0,,,,,,,,,,,,,,,,,,,,,,
,,,,,00097,2023-11-08_12h26.32.000,vbt_B2_day3,2022.2.4,Win32,143.7194596,,,,,,down,0,0.1817,,0.102777764,-0.310185185,1,0,0,0,79,79,178,1,huisdier,images/br_huisdier.png,images/cb_huisdier.png,0,,,,,,,,,,,,,,,,,,,,,,
,,,,,00097,2023-11-08_12h26.32.000,vbt_B2_day3,2022.2.4,Win32,143.7194596,,,,,,down,0,0.334,,0.102777764,-0.310185185,1,0,0,0,80,80,195,1,middelen,images/br_middelen.png,images/cb_middelen.png,0,,,,,,,,,,,,,,,,,,,,,,
,,,,,00097,2023-11-08_12h26.32.000,vbt_B2_day3,2022.2.4,Win32,143.7194596,,,,,,down,0,0.3965,,0.102777764,-0.310185185,1,0,0,0,81,81,197,1,spanning,images/br_spanning.png,images/cb_spanning.png,0,,,,,,,,,,,,,,,,,,,,,,
,,,,,00097,2023-11-08_12h26.32.000,vbt_B2_day3,2022.2.4,Win32,143.7194596,,,,,,down,0,0.1671,,0.102777764,-0.310185185,1,0,0,0,82,82,0,1,slak,images/br_slak.png,images/cb_slak.png,0,,,,,,,,,,,,,,,,,,,,,,
,,,,,00097,2023-11-08_12h26.32.000,vbt_B2_day3,2022.2.4,Win32,143.7194596,,,,,,down,0,0.0204,,0.102777764,-0.310185185,1,0,0,0,83,83,51,1,samen,images/br_samen.png,images/cb_samen.png,0,,,,,,,,,,,,,,,,,,,,,,
,,,,,00097,2023-11-08_12h26.32.000,vbt_B2_day3,2022.2.4,Win32,143.7194596,,,,,,down,0,0.306,,0.102777764,-0.310185185,1,0,0,0,84,84,123,1,hiervan,images/br_hiervan.png,images/cb_hiervan.png,0,,,,,,,,,,,,,,,,,,,,,,
,,,,,00097,2023-11-08_12h26.32.000,vbt_B2_day3,2022.2.4,Win32,143.7194596,,,,,,down,0,0.2563,,0.102777764,-0.310185185,1,0,0,0,85,85,94,1,oceaan,images/br_oceaan.png,images/cb_oceaan.png,0,,,,,,,,,,,,,,,,,,,,,,
,,,,,00097,2023-11-08_12h26.32.000,vbt_B2_day3,2022.2.4,Win32,143.7194596,,,,,,down,0,0.0076,,0.102777764,-0.310185185,1,0,0,0,86,86,34,1,vorm,images/br_vorm.png,images/cb_vorm.png,0,,,,,,,,,,,,,,,,,,,,,,
,,,,,00097,2023-11-08_12h26.32.000,vbt_B2_day3,2022.2.4,Win32,143.7194596,,,,,,down,0,0.1265,,0.102777764,-0.310185185,1,0,0,0,87,87,64,1,wegen,images/br_wegen.png,images/cb_wegen.png,0,,,,,,,,,,,,,,,,,,,,,,
,,,,,00097,2023-11-08_12h26.32.000,vbt_B2_day3,2022.2.4,Win32,143.7194596,,,,,,down,0,0.1921,,0.102777764,-0.310185185,1,0,0,0,88,88,66,1,lever,images/br_lever.png,images/cb_lever.png,0,,,,,,,,,,,,,,,,,,,,,,
,,,,,00097,2023-11-08_12h26.32.000,vbt_B2_day3,2022.2.4,Win32,143.7194596,,,,,,down,0,0.112,,0.102777764,-0.310185185,1,0,0,0,89,89,130,1,keihard,images/br_keihard.png,images/cb_keihard.png,0,,,,,,,,,,,,,,,,,,,,,,
,,,,,00097,2023-11-08_12h26.32.000,vbt_B2_day3,2022.2.4,Win32,143.7194596,,,,,,down,0,0.2883,,0.102777764,-0.310185185,1,0,0,0,90,90,159,1,sufferd,images/br_sufferd.png,images/cb_sufferd.png,0,,,,,,,,,,,,,,,,,,,,,,
,,,,,00097,2023-11-08_12h26.32.000,vbt_B2_day3,2022.2.4,Win32,143.7194596,,,,,,down,0,0.3449,,0.102777764,-0.310185185,1,0,0,0,91,91,37,1,mijn,images/br_mijn.png,images/cb_mijn.png,0,,,,,,,,,,,,,,,,,,,,,,
,,,,,00097,2023-11-08_12h26.32.000,vbt_B2_day3,2022.2.4,Win32,143.7194596,,,,,,down,0,2.251,,0.102777764,-0.310185185,1,0,0,0,92,92,22,1,stof,images/br_stof.png,images/cb_stof.png,1,stof,,,,,,,,,,,,,,,,,,,,,
,,,,,00097,2023-11-08_12h26.32.000,vbt_B2_day3,2022.2.4,Win32,143.7194596,,,,,,down,0,0.2145,,0.102777764,-0.310185185,1,0,0,0,93,93,54,1,gebit,images/br_gebit.png,images/cb_gebit.png,0,,,,,,,,,,,,,,,,,,,,,,
,,,,,00097,2023-11-08_12h26.32.000,vbt_B2_day3,2022.2.4,Win32,143.7194596,,,,,,down,0,0.2031,,0.102777764,-0.310185185,1,0,0,0,94,94,43,1,klauw,images/br_klauw.png,images/cb_klauw.png,0,,,,,,,,,,,,,,,,,,,,,,
,,,,,00097,2023-11-08_12h26.32.000,vbt_B2_day3,2022.2.4,Win32,143.7194596,,,,,,down,0,0.0921,,0.102777764,-0.310185185,1,0,0,0,95,95,93,1,waarop,images/br_waarop.png,images/cb_waarop.png,0,,,,,,,,,,,,,,,,,,,,,,
,,,,,00097,2023-11-08_12h26.32.000,vbt_B2_day3,2022.2.4,Win32,143.7194596,,,,,,down,0,0.3096,,0.102777764,-0.310185185,1,0,0,0,96,96,113,1,koppen,images/br_koppen.png,images/cb_koppen.png,0,,,,,,,,,,,,,,,,,,,,,,
,,,,,00097,2023-11-08_12h26.32.000,vbt_B2_day3,2022.2.4,Win32,143.7194596,,,,,,down,0,1.3773,,0.102777764,-0.310185185,1,0,0,0,97,97,21,1,mist,images/br_mist.png,images/cb_mist.png,1,mist,,,,,,,,,,,,,,,,,,,,,
,,,,,00097,2023-11-08_12h26.32.000,vbt_B2_day3,2022.2.4,Win32,143.7194596,,,,,,down,0,0.295,,0.102777764,-0.310185185,1,0,0,0,98,98,11,1,mode,images/br_mode.png,images/cb_mode.png,0,,,,,,,,,,,,,,,,,,,,,,
,,,,,00097,2023-11-08_12h26.32.000,vbt_B2_day3,2022.2.4,Win32,143.7194596,,,,,,down,0,6.1054,,0.102777764,-0.310185185,1,0,0,0,99,99,180,1,openbaar,images/br_openbaar.png,images/cb_openbaar.png,1,openbaar,,,,,,,,,,,,,,,,,,,,,
,,,,,00097,2023-11-08_12h26.32.000,vbt_B2_day3,2022.2.4,Win32,143.7194596,,,,,,down,0,0.2256,,0.102777764,-0.310185185,1,0,0,0,100,100,158,1,innemen,images/br_innemen.png,images/cb_innemen.png,0,,,,,,,,,,,,,,,,,,,,,,
,,,,,00097,2023-11-08_12h26.32.000,vbt_B2_day3,2022.2.4,Win32,143.7194596,,,,,,down,0,0.2995,,0.102777764,-0.310185185,1,0,0,0,101,101,10,1,leek,images/br_leek.png,images/cb_leek.png,0,,,,,,,,,,,,,,,,,,,,,,
,,,,,00097,2023-11-08_12h26.32.000,vbt_B2_day3,2022.2.4,Win32,143.7194596,,,,,,down,0,0.1506,,0.102777764,-0.310185185,1,0,0,0,102,102,32,1,palm,images/br_palm.png,images/cb_palm.png,0,,,,,,,,,,,,,,,,,,,,,,
,,,,,00097,2023-11-08_12h26.32.000,vbt_B2_day3,2022.2.4,Win32,143.7194596,,,,,,down,0,0.1647,,0.102777764,-0.310185185,1,0,0,0,103,103,18,1,blik,images/br_blik.png,images/cb_blik.png,0,,,,,,,,,,,,,,,,,,,,,,
,,,,,00097,2023-11-08_12h26.32.000,vbt_B2_day3,2022.2.4,Win32,143.7194596,,,,,,down,0,0.0993,,0.102777764,-0.310185185,1,0,0,0,104,104,163,1,schuilen,images/br_schuilen.png,images/cb_schuilen.png,0,,,,,,,,,,,,,,,,,,,,,,
,,,,,00097,2023-11-08_12h26.32.000,vbt_B2_day3,2022.2.4,Win32,143.7194596,,,,,,down,0,0.265,,0.102777764,-0.310185185,1,0,0,0,105,105,79,1,nodig,images/br_nodig.png,images/cb_nodig.png,0,,,,,,,,,,,,,,,,,,,,,,
,,,,,00097,2023-11-08_12h26.32.000,vbt_B2_day3,2022.2.4,Win32,143.7194596,,,,,,down,0,0.1879,,0.102777764,-0.310185185,1,0,0,0,106,106,96,1,slagen,images/br_slagen.png,images/cb_slagen.png,0,,,,,,,,,,,,,,,,,,,,,,
,,,,,00097,2023-11-08_12h26.32.000,vbt_B2_day3,2022.2.4,Win32,143.7194596,,,,,,down,0,0.292,,0.102777764,-0.310185185,1,0,0,0,107,107,194,1,driemaal,images/br_driemaal.png,images/cb_driemaal.png,0,,,,,,,,,,,,,,,,,,,,,,
,,,,,00097,2023-11-08_12h26.32.000,vbt_B2_day3,2022.2.4,Win32,143.7194596,,,,,,down,0,0.2334,,0.102777764,-0.310185185,1,0,0,0,108,108,2,1,jaar,images/br_jaar.png,images/cb_jaar.png,0,,,,,,,,,,,,,,,,,,,,,,
,,,,,00097,2023-11-08_12h26.32.000,vbt_B2_day3,2022.2.4,Win32,143.7194596,,,,,,down,0,0.1813,,0.102777764,-0.310185185,1,0,0,0,109,109,165,1,feestdag,images/br_feestdag.png,images/cb_feestdag.png,0,,,,,,,,,,,,,,,,,,,,,,
,,,,,00097,2023-11-08_12h26.32.000,vbt_B2_day3,2022.2.4,Win32,143.7194596,,,,,,down,0,0.0631,,0.102777764,-0.310185185,1,0,0,0,110,110,127,1,doodmoe,images/br_doodmoe.png,images/cb_doodmoe.png,0,,,,,,,,,,,,,,,,,,,,,,
,,,,,00097,2023-11-08_12h26.32.000,vbt_B2_day3,2022.2.4,Win32,143.7194596,,,,,,down,0,0.0861,,0.102777764,-0.310185185,1,0,0,0,111,111,164,1,anarchie,images/br_anarchie.png,images/cb_anarchie.png,0,,,,,,,,,,,,,,,,,,,,,,
,,,,,00097,2023-11-08_12h26.32.000,vbt_B2_day3,2022.2.4,Win32,143.7194596,,,,,,down,0,0.0148,,0.102777764,-0.310185185,1,0,0,0,112,112,184,1,aandelen,images/br_aandelen.png,images/cb_aandelen.png,0,,,,,,,,,,,,,,,,,,,,,,
,,,,,00097,2023-11-08_12h26.32.000,vbt_B2_day3,2022.2.4,Win32,143.7194596,,,,,,down,0,4.4167,,0.086111139,-0.20185188,1,0,0,0,113,113,17,1,taal,images/br_taal.png,images/cb_taal.png,0,,,,,,,,,,,,,,,,,,,,,,
,,,,,00097,2023-11-08_12h26.32.000,vbt_B2_day3,2022.2.4,Win32,143.7194596,,,,,,down,0,62.831,,0.086111139,-0.20185188,1,0,0,0,114,114,27,1,dans,images/br_dans.png,images/cb_dans.png,0,,,,,,,,,,,,,,,,,,,,,,
,,,,,00097,2023-11-08_12h26.32.000,vbt_B2_day3,2022.2.4,Win32,143.7194596,,,,,,down,0,0.4726,,0.086111139,-0.20185188,1,0,0,0,115,115,135,1,gedicht,images/br_gedicht.png,images/cb_gedicht.png,0,,,,,,,,,,,,,,,,,,,,,,
,,,,,00097,2023-11-08_12h26.32.000,vbt_B2_day3,2022.2.4,Win32,143.7194596,,,,,,down,0,0.3408,,0.086111139,-0.20185188,1,0,0,0,116,116,169,1,oprotten,images/br_oprotten.png,images/cb_oprotten.png,0,,,,,,,,,,,,,,,,,,,,,,
,,,,,00097,2023-11-08_12h26.32.000,vbt_B2_day3,2022.2.4,Win32,143.7194596,,,,,,down,0,0.2131,,0.086111139,-0.20185188,1,0,0,0,117,117,53,1,baron,images/br_baron.png,images/cb_baron.png,0,,,,,,,,,,,,,,,,,,,,,,
,,,,,00097,2023-11-08_12h26.32.000,vbt_B2_day3,2022.2.4,Win32,143.7194596,,,,,,down,0,0.3703,,0.086111139,-0.20185188,1,0,0,0,118,118,55,1,praat,images/br_praat.png,images/cb_praat.png,0,,,,,,,,,,,,,,,,,,,,,,
,,,,,00097,2023-11-08_12h26.32.000,vbt_B2_day3,2022.2.4,Win32,143.7194596,,,,,,down,0,19.644,,-0.005555541,-0.300925926,1,0,0,0,119,119,143,1,hechten,images/br_hechten.png,images/cb_hechten.png,1,hechten,,,,,,,,,,,,,,,,,,,,,
,,,,,00097,2023-11-08_12h26.32.000,vbt_B2_day3,2022.2.4,Win32,143.7194596,,,,,,down,0,0.2765,,-0.005555541,-0.300925926,1,0,0,0,120,120,80,1,kanjer,images/br_kanjer.png,images/cb_kanjer.png,0,,,,,,,,,,,,,,,,,,,,,,
,,,,,00097,2023-11-08_12h26.32.000,vbt_B2_day3,2022.2.4,Win32,143.7194596,,,,,,down,0,0.2525,,-0.005555541,-0.300925926,1,0,0,0,121,121,156,1,rechten,images/br_rechten.png,images/cb_rechten.png,0,,,,,,,,,,,,,,,,,,,,,,
,,,,,00097,2023-11-08_12h26.32.000,vbt_B2_day3,2022.2.4,Win32,143.7194596,,,,,,down,0,0.2363,,-0.005555541,-0.300925926,1,0,0,0,122,122,52,1,wagon,images/br_wagon.png,images/cb_wagon.png,0,,,,,,,,,,,,,,,,,,,,,,
,,,,,00097,2023-11-08_12h26.32.000,vbt_B2_day3,2022.2.4,Win32,143.7194596,,,,,,down,0,0.1651,,-0.005555541,-0.300925926,1,0,0,0,123,123,48,1,steel,images/br_steel.png,images/cb_steel.png,0,,,,,,,,,,,,,,,,,,,,,,
,,,,,00097,2023-11-08_12h26.32.000,vbt_B2_day3,2022.2.4,Win32,143.7194596,,,,,,down,0,0.5469,,-0.005555541,-0.300925926,1,0,0,0,124,124,167,1,eenhoorn,images/br_eenhoorn.png,images/cb_eenhoorn.png,0,,,,,,,,,,,,,,,,,,,,,,
,,,,,00097,2023-11-08_12h26.32.000,vbt_B2_day3,2022.2.4,Win32,143.7194596,,,,,,down,0,5.0152,,-0.005555541,-0.300925926,1,0,0,0,125,125,100,1,geduld,images/br_geduld.png,images/cb_geduld.png,1,geduld,,,,,,,,,,,,,,,,,,,,,
,,,,,00097,2023-11-08_12h26.32.000,vbt_B2_day3,2022.2.4,Win32,143.7194596,,,,,,down,0,0.1622,,0.045370384,-0.291666667,1,0,0,0,126,126,30,1,uien,images/br_uien.png,images/cb_uien.png,0,,,,,,,,,,,,,,,,,,,,,,
,,,,,00097,2023-11-08_12h26.32.000,vbt_B2_day3,2022.2.4,Win32,143.7194596,,,,,,down,0,3.7179,,0.045370384,-0.291666667,1,0,0,0,127,127,181,1,toegeven,images/br_toegeven.png,images/cb_toegeven.png,1,toegeven,,,,,,,,,,,,,,,,,,,,,
,,,,,00097,2023-11-08_12h26.32.000,vbt_B2_day3,2022.2.4,Win32,143.7194596,,,,,,down,0,0.2364,,0.045370384,-0.291666667,1,0,0,0,128,128,133,1,seizoen,images/br_seizoen.png,images/cb_seizoen.png,0,,,,,,,,,,,,,,,,,,,,,,
,,,,,00097,2023-11-08_12h26.32.000,vbt_B2_day3,2022.2.4,Win32,143.7194596,,,,,,down,0,0.1266,,0.045370384,-0.291666667,1,0,0,0,129,129,7,1,geld,images/br_geld.png,images/cb_geld.png,0,,,,,,,,,,,,,,,,,,,,,,
,,,,,00097,2023-11-08_12h26.32.000,vbt_B2_day3,2022.2.4,Win32,143.7194596,,,,,,down,0,0.6322,,0.045370384,-0.291666667,1,0,0,0,130,130,67,1,zwart,images/br_zwart.png,images/cb_zwart.png,0,,,,,,,,,,,,,,,,,,,,,,
,,,,,00097,2023-11-08_12h26.32.000,vbt_B2_day3,2022.2.4,Win32,143.7194596,,,,,,down,0,0.3403,,0.045370384,-0.291666667,1,0,0,0,131,131,120,1,klimmen,images/br_klimmen.png,images/cb_klimmen.png,0,,,,,,,,,,,,,,,,,,,,,,
,,,,,00097,2023-11-08_12h26.32.000,vbt_B2_day3,2022.2.4,Win32,143.7194596,,,,,,down,0,2.5294,,0.045370384,-0.291666667,1,0,0,0,132,132,61,1,groen,images/br_groen.png,images/cb_groen.png,1,groen,,,,,,,,,,,,,,,,,,,,,
,,,,,00097,2023-11-08_12h26.32.000,vbt_B2_day3,2022.2.4,Win32,143.7194596,,,,,,down,0,1.5495,,0.045370384,-0.291666667,1,0,0,0,133,133,102,1,legaal,images/br_legaal.png,images/cb_legaal.png,1,legaal,,,,,,,,,,,,,,,,,,,,,
,,,,,00097,2023-11-08_12h26.32.000,vbt_B2_day3,2022.2.4,Win32,143.7194596,,,,,,down,0,0.1974,,0.045370384,-0.291666667,1,0,0,0,134,134,44,1,flits,images/br_flits.png,images/cb_flits.png,0,,,,,,,,,,,,,,,,,,,,,,
,,,,,00097,2023-11-08_12h26.32.000,vbt_B2_day3,2022.2.4,Win32,143.7194596,,,,,,down,0,0.2025,,0.045370384,-0.291666667,1,0,0,0,135,135,78,1,leren,images/br_leren.png,images/cb_leren.png,0,,,,,,,,,,,,,,,,,,,,,,
,,,,,00097,2023-11-08_12h26.32.000,vbt_B2_day3,2022.2.4,Win32,143.7194596,,,,,,down,0,0.3492,,0.223148134,-0.217592593,1,0,0,0,136,136,154,1,aflopen,images/br_aflopen.png,images/cb_aflopen.png,0,,,,,,,,,,,,,,,,,,,,,,
,,,,,00097,2023-11-08_12h26.32.000,vbt_B2_day3,2022.2.4,Win32,143.7194596,,,,,,down,0,0.1334,,0.223148134,-0.217592593,1,0,0,0,137,137,107,1,maling,images/br_maling.png,images/cb_maling.png,0,,,,,,,,,,,,,,,,,,,,,,
,,,,,00097,2023-11-08_12h26.32.000,vbt_B2_day3,2022.2.4,Win32,143.7194596,,,,,,down,0,0.0837,,0.223148134,-0.217592593,1,0,0,0,138,138,31,1,poes,images/br_poes.png,images/cb_poes.png,0,,,,,,,,,,,,,,,,,,,,,,
,,,,,00097,2023-11-08_12h26.32.000,vbt_B2_day3,2022.2.4,Win32,143.7194596,,,,,,down,0,0.2457,,0.223148134,-0.217592593,1,0,0,0,139,139,47,1,kabel,images/br_kabel.png,images/cb_kabel.png,0,,,,,,,,,,,,,,,,,,,,,,
,,,,,00097,2023-11-08_12h26.32.000,vbt_B2_day3,2022.2.4,Win32,143.7194596,,,,,,down,0,2.6349,,0.223148134,-0.217592593,1,0,0,0,140,140,141,1,knielen,images/br_knielen.png,images/cb_knielen.png,1,knielen,,,,,,,,,,,,,,,,,,,,,
,,,,,00097,2023-11-08_12h26.32.000,vbt_B2_day3,2022.2.4,Win32,143.7194596,,,,,,down,0,0.2857,,0.223148134,-0.217592593,1,0,0,0,141,141,186,1,voorraad,images/br_voorraad.png,images/cb_voorraad.png,0,,,,,,,,,,,,,,,,,,,,,,
,,,,,00097,2023-11-08_12h26.32.000,vbt_B2_day3,2022.2.4,Win32,143.7194596,,,,,,down,0,0.2626,,0.223148134,-0.217592593,1,0,0,0,142,142,33,1,vlek,images/br_vlek.png,images/cb_vlek.png,0,,,,,,,,,,,,,,,,,,,,,,
,,,,,00097,2023-11-08_12h26.32.000,vbt_B2_day3,2022.2.4,Win32,143.7194596,,,,,,down,0,0.2576,,0.223148134,-0.217592593,1,0,0,0,143,143,134,1,geliefd,images/br_geliefd.png,images/cb_geliefd.png,0,,,,,,,,,,,,,,,,,,,,,,
,,,,,00097,2023-11-08_12h26.32.000,vbt_B2_day3,2022.2.4,Win32,143.7194596,,,,,,down,0,0.2361,,0.223148134,-0.217592593,1,0,0,0,144,144,50,1,stoom,images/br_stoom.png,images/cb_stoom.png,0,,,,,,,,,,,,,,,,,,,,,,
,,,,,00097,2023-11-08_12h26.32.000,vbt_B2_day3,2022.2.4,Win32,143.7194596,,,,,,down,0,0.1723,,0.223148134,-0.217592593,1,0,0,0,145,145,92,1,geheim,images/br_geheim.png,images/cb_geheim.png,0,,,,,,,,,,,,,,,,,,,,,,
,,,,,00097,2023-11-08_12h26.32.000,vbt_B2_day3,2022.2.4,Win32,143.7194596,,,,,,down,0,0.0592,,0.223148134,-0.217592593,1,0,0,0,146,146,125,1,aanzien,images/br_aanzien.png,images/cb_aanzien.png,0,,,,,,,,,,,,,,,,,,,,,,
,,,,,00097,2023-11-08_12h26.32.000,vbt_B2_day3,2022.2.4,Win32,143.7194596,,,,,,down,0,0.2919,,0.223148134,-0.217592593,1,0,0,0,147,147,192,1,schaamte,images/br_schaamte.png,images/cb_schaamte.png,0,,,,,,,,,,,,,,,,,,,,,,
,,,,,00097,2023-11-08_12h26.32.000,vbt_B2_day3,2022.2.4,Win32,143.7194596,,,,,,down,0,0.2434,,0.223148134,-0.217592593,1,0,0,0,148,148,58,1,tekst,images/br_tekst.png,images/cb_tekst.png,0,,,,,,,,,,,,,,,,,,,,,,
,,,,,00097,2023-11-08_12h26.32.000,vbt_B2_day3,2022.2.4,Win32,143.7194596,,,,,,down,0,0.0215,,0.223148134,-0.217592593,1,0,0,0,149,149,174,1,stemming,images/br_stemming.png,images/cb_stemming.png,0,,,,,,,,,,,,,,,,,,,,,,
,,,,,00097,2023-11-08_12h26.32.000,vbt_B2_day3,2022.2.4,Win32,143.7194596,,,,,,down,0,0.1673,,0.223148134,-0.217592593,1,0,0,0,150,150,111,1,ticket,images/br_ticket.png,images/cb_ticket.png,0,,,,,,,,,,,,,,,,,,,,,,
,,,,,00097,2023-11-08_12h26.32.000,vbt_B2_day3,2022.2.4,Win32,143.7194596,,,,,,down,0,0.2514,,0.223148134,-0.217592593,1,0,0,0,151,151,84,1,lokken,images/br_lokken.png,images/cb_lokken.png,0,,,,,,,,,,,,,,,,,,,,,,
,,,,,00097,2023-11-08_12h26.32.000,vbt_B2_day3,2022.2.4,Win32,143.7194596,,,,,,down,0,5.8634,,0.223148134,-0.217592593,1,0,0,0,152,152,63,1,flirt,images/br_flirt.png,images/cb_flirt.png,1,flirt,,,,,,,,,,,,,,,,,,,,,
,,,,,00097,2023-11-08_12h26.32.000,vbt_B2_day3,2022.2.4,Win32,143.7194596,,,,,,down,0,0.1467,,0.223148134,-0.217592593,1,0,0,0,153,153,173,1,apparaat,images/br_apparaat.png,images/cb_apparaat.png,0,,,,,,,,,,,,,,,,,,,,,,
,,,,,00097,2023-11-08_12h26.32.000,vbt_B2_day3,2022.2.4,Win32,143.7194596,,,,,,down,0,0.2918,,0.223148134,-0.217592593,1,0,0,0,154,154,59,1,kring,images/br_kring.png,images/cb_kring.png,0,,,,,,,,,,,,,,,,,,,,,,
,,,,,00097,2023-11-08_12h26.32.000,vbt_B2_day3,2022.2.4,Win32,143.7194596,,,,,,down,0,0.2241,,0.223148134,-0.217592593,1,0,0,0,155,155,41,1,maken,images/br_maken.png,images/cb_maken.png,0,,,,,,,,,,,,,,,,,,,,,,
,,,,,00097,2023-11-08_12h26.32.000,vbt_B2_day3,2022.2.4,Win32,143.7194596,,,,,,down,0,3.563,,0.223148134,-0.217592593,1,0,0,0,156,156,142,1,snuiven,images/br_snuiven.png,images/cb_snuiven.png,1,snuiven,,,,,,,,,,,,,,,,,,,,,
,,,,,00097,2023-11-08_12h26.32.000,vbt_B2_day3,2022.2.4,Win32,143.7194596,,,,,,down,0,0.2023,,0.223148134,-0.217592593,1,0,0,0,157,157,70,1,ijdel,images/br_ijdel.png,images/cb_ijdel.png,0,,,,,,,,,,,,,,,,,,,,,,
,,,,,00097,2023-11-08_12h26.32.000,vbt_B2_day3,2022.2.4,Win32,143.7194596,,,,,,down,0,3.4113,,0.223148134,-0.217592593,1,0,0,0,158,158,101,1,staren,images/br_staren.png,images/cb_staren.png,1,staren,,,,,,,,,,,,,,,,,,,,,
,,,,,00097,2023-11-08_12h26.32.000,vbt_B2_day3,2022.2.4,Win32,143.7194596,,,,,,down,0,0.2788,,0.223148134,-0.217592593,1,0,0,0,159,159,91,1,gezond,images/br_gezond.png,images/cb_gezond.png,0,,,,,,,,,,,,,,,,,,,,,,
,,,,,00097,2023-11-08_12h26.32.000,vbt_B2_day3,2022.2.4,Win32,143.7194596,,,,,,down,0,0.1609,,0.223148134,-0.217592593,1,0,0,0,160,160,82,1,muziek,images/br_muziek.png,images/cb_muziek.png,0,,,,,,,,,,,,,,,,,,,,,,
,,,,,00097,2023-11-08_12h26.32.000,vbt_B2_day3,2022.2.4,Win32,143.7194596,,,,,,down,0,0.1492,,0.223148134,-0.217592593,1,0,0,0,161,161,152,1,afnemen,images/br_afnemen.png,images/cb_afnemen.png,0,,,,,,,,,,,,,,,,,,,,,,
,,,,,00097,2023-11-08_12h26.32.000,vbt_B2_day3,2022.2.4,Win32,143.7194596,,,,,,down,0,0.1742,,0.223148134,-0.217592593,1,0,0,0,162,162,116,1,besmet,images/br_besmet.png,images/cb_besmet.png,0,,,,,,,,,,,,,,,,,,,,,,
,,,,,00097,2023-11-08_12h26.32.000,vbt_B2_day3,2022.2.4,Win32,143.7194596,,,,,,down,0,0.2319,,0.223148134,-0.217592593,1,0,0,0,163,163,1,1,zaal,images/br_zaal.png,images/cb_zaal.png,0,,,,,,,,,,,,,,,,,,,,,,
,,,,,00097,2023-11-08_12h26.32.000,vbt_B2_day3,2022.2.4,Win32,143.7194596,,,,,,down,0,0.336,,0.223148134,-0.217592593,1,0,0,0,164,164,145,1,invloed,images/br_invloed.png,images/cb_invloed.png,0,,,,,,,,,,,,,,,,,,,,,,
,,,,,00097,2023-11-08_12h26.32.000,vbt_B2_day3,2022.2.4,Win32,143.7194596,,,,,,down,0,2.2669,,0.223148134,-0.217592593,1,0,0,0,165,165,20,1,site,images/br_site.png,images/cb_site.png,1,site,,,,,,,,,,,,,,,,,,,,,
,,,,,00097,2023-11-08_12h26.32.000,vbt_B2_day3,2022.2.4,Win32,143.7194596,,,,,,down,0,0.2503,,0.223148134,-0.217592593,1,0,0,0,166,166,26,1,leuk,images/br_leuk.png,images/cb_leuk.png,0,,,,,,,,,,,,,,,,,,,,,,
,,,,,00097,2023-11-08_12h26.32.000,vbt_B2_day3,2022.2.4,Win32,143.7194596,,,,,,down,0,0.2899,,0.223148134,-0.217592593,1,0,0,0,167,167,155,1,gerucht,images/br_gerucht.png,images/cb_gerucht.png,0,,,,,,,,,,,,,,,,,,,,,,
,,,,,00097,2023-11-08_12h26.32.000,vbt_B2_day3,2022.2.4,Win32,143.7194596,,,,,,down,0,0.2298,,0.223148134,-0.217592593,1,0,0,0,168,168,114,1,vullen,images/br_vullen.png,images/cb_vullen.png,0,,,,,,,,,,,,,,,,,,,,,,
,,,,,00097,2023-11-08_12h26.32.000,vbt_B2_day3,2022.2.4,Win32,143.7194596,,,,,,down,0,0.2806,,0.223148134,-0.217592593,1,0,0,0,169,169,139,1,stiekem,images/br_stiekem.png,images/cb_stiekem.png,0,,,,,,,,,,,,,,,,,,,,,,
,,,,,00097,2023-11-08_12h26.32.000,vbt_B2_day3,2022.2.4,Win32,143.7194596,,,,,,down,0,2.4954,,0.223148134,-0.217592593,1,0,0,0,170,170,103,1,joggen,images/br_joggen.png,images/cb_joggen.png,1,joggen,,,,,,,,,,,,,,,,,,,,,
,,,,,00097,2023-11-08_12h26.32.000,vbt_B2_day3,2022.2.4,Win32,143.7194596,,,,,,down,0,0.1394,,0.223148134,-0.217592593,1,0,0,0,171,171,198,1,bedoelen,images/br_bedoelen.png,images/cb_bedoelen.png,0,,,,,,,,,,,,,,,,,,,,,,
,,,,,00097,2023-11-08_12h26.32.000,vbt_B2_day3,2022.2.4,Win32,143.7194596,,,,,,down,0,0.2102,,0.223148134,-0.217592593,1,0,0,0,172,172,81,1,dubbel,images/br_dubbel.png,images/cb_dubbel.png,0,,,,,,,,,,,,,,,,,,,,,,
,,,,,00097,2023-11-08_12h26.32.000,vbt_B2_day3,2022.2.4,Win32,143.7194596,,,,,,down,0,0.3555,,0.223148134,-0.217592593,1,0,0,0,173,173,72,1,strak,images/br_strak.png,images/cb_strak.png,0,,,,,,,,,,,,,,,,,,,,,,
,,,,,00097,2023-11-08_12h26.32.000,vbt_B2_day3,2022.2.4,Win32,143.7194596,,,,,,down,0,0.3288,,0.223148134,-0.217592593,1,0,0,0,174,174,119,1,liefje,images/br_liefje.png,images/cb_liefje.png,0,,,,,,,,,,,,,,,,,,,,,,
,,,,,00097,2023-11-08_12h26.32.000,vbt_B2_day3,2022.2.4,Win32,143.7194596,,,,,,down,0,0.272,,0.223148134,-0.217592593,1,0,0,0,175,175,13,1,kaal,images/br_kaal.png,images/cb_kaal.png,0,,,,,,,,,,,,,,,,,,,,,,
,,,,,00097,2023-11-08_12h26.32.000,vbt_B2_day3,2022.2.4,Win32,143.7194596,,,,,,down,0,0.3964,,0.223148134,-0.217592593,1,0,0,0,176,176,117,1,kennis,images/br_kennis.png,images/cb_kennis.png,0,,,,,,,,,,,,,,,,,,,,,,
,,,,,00097,2023-11-08_12h26.32.000,vbt_B2_day3,2022.2.4,Win32,143.7194596,,,,,,down,0,0.2669,,0.223148134,-0.217592593,1,0,0,0,177,177,161,1,attentie,images/br_attentie.png,images/cb_attentie.png,0,,,,,,,,,,,,,,,,,,,,,,
,,,,,00097,2023-11-08_12h26.32.000,vbt_B2_day3,2022.2.4,Win32,143.7194596,,,,,,down,0,0.2711,,0.223148134,-0.217592593,1,0,0,0,178,178,90,1,geluid,images/br_geluid.png,images/cb_geluid.png,0,,,,,,,,,,,,,,,,,,,,,,
,,,,,00097,2023-11-08_12h26.32.000,vbt_B2_day3,2022.2.4,Win32,143.7194596,,,,,,down,0,0.2846,,0.223148134,-0.217592593,1,0,0,0,179,179,175,1,heengaan,images/br_heengaan.png,images/cb_heengaan.png,0,,,,,,,,,,,,,,,,,,,,,,
,,,,,00097,2023-11-08_12h26.32.000,vbt_B2_day3,2022.2.4,Win32,143.7194596,,,,,,down,0,0.3041,,0.223148134,-0.217592593,1,0,0,0,180,180,191,1,opheffen,images/br_opheffen.png,images/cb_opheffen.png,0,,,,,,,,,,,,,,,,,,,,,,
,,,,,00097,2023-11-08_12h26.32.000,vbt_B2_day3,2022.2.4,Win32,143.7194596,,,,,,down,0,0.1674,,0.223148134,-0.217592593,1,0,0,0,181,181,49,1,laken,images/br_laken.png,images/cb_laken.png,0,,,,,,,,,,,,,,,,,,,,,,
,,,,,00097,2023-11-08_12h26.32.000,vbt_B2_day3,2022.2.4,Win32,143.7194596,,,,,,down,0,0.3729,,0.223148134,-0.217592593,1,0,0,0,182,182,95,1,vreten,images/br_vreten.png,images/cb_vreten.png,0,,,,,,,,,,,,,,,,,,,,,,
,,,,,00097,2023-11-08_12h26.32.000,vbt_B2_day3,2022.2.4,Win32,143.7194596,,,,,,down,0,0.2434,,0.223148134,-0.217592593,1,0,0,0,183,183,109,1,totaal,images/br_totaal.png,images/cb_totaal.png,0,,,,,,,,,,,,,,,,,,,,,,
,,,,,00097,2023-11-08_12h26.32.000,vbt_B2_day3,2022.2.4,Win32,143.7194596,,,,,,down,0,0.0005,,0.223148134,-0.217592593,1,0,0,0,184,184,151,1,aanzoek,images/br_aanzoek.png,images/cb_aanzoek.png,0,,,,,,,,,,,,,,,,,,,,,,
,,,,,00097,2023-11-08_12h26.32.000,vbt_B2_day3,2022.2.4,Win32,143.7194596,,,,,,down,0,0.2295,,0.223148134,-0.217592593,1,0,0,0,185,185,172,1,weigeren,images/br_weigeren.png,images/cb_weigeren.png,0,,,,,,,,,,,,,,,,,,,,,,
,,,,,00097,2023-11-08_12h26.32.000,vbt_B2_day3,2022.2.4,Win32,143.7194596,,,,,,down,0,0.1985,,0.223148134,-0.217592593,1,0,0,0,186,186,35,1,lust,images/br_lust.png,images/cb_lust.png,0,,,,,,,,,,,,,,,,,,,,,,
,,,,,00097,2023-11-08_12h26.32.000,vbt_B2_day3,2022.2.4,Win32,143.7194596,,,,,,down,0,0.3898,,0.223148134,-0.217592593,1,0,0,0,187,187,88,1,boeien,images/br_boeien.png,images/cb_boeien.png,0,,,,,,,,,,,,,,,,,,,,,,
,,,,,00097,2023-11-08_12h26.32.000,vbt_B2_day3,2022.2.4,Win32,143.7194596,,,,,,down,0,0.2433,,0.223148134,-0.217592593,1,0,0,0,188,188,4,1,moes,images/br_moes.png,images/cb_moes.png,0,,,,,,,,,,,,,,,,,,,,,,
,,,,,00097,2023-11-08_12h26.32.000,vbt_B2_day3,2022.2.4,Win32,143.7194596,,,,,,down,0,0.1604,,0.223148134,-0.217592593,1,0,0,0,189,189,19,1,geit,images/br_geit.png,images/cb_geit.png,0,,,,,,,,,,,,,,,,,,,,,,
,,,,,00097,2023-11-08_12h26.32.000,vbt_B2_day3,2022.2.4,Win32,143.7194596,,,,,,down,0,0.1745,,0.223148134,-0.217592593,1,0,0,0,190,190,45,1,piste,images/br_piste.png,images/cb_piste.png,0,,,,,,,,,,,,,,,,,,,,,,
,,,,,00097,2023-11-08_12h26.32.000,vbt_B2_day3,2022.2.4,Win32,143.7194596,,,,,,down,0,0.1538,,0.223148134,-0.217592593,1,0,0,0,191,191,29,1,baas,images/br_baas.png,images/cb_baas.png,0,,,,,,,,,,,,,,,,,,,,,,
,,,,,00097,2023-11-08_12h26.32.000,vbt_B2_day3,2022.2.4,Win32,143.7194596,,,,,,down,0,0.2417,,0.223148134,-0.217592593,1,0,0,0,192,192,148,1,smullen,images/br_smullen.png,images/cb_smullen.png,0,,,,,,,,,,,,,,,,,,,,,,
,,,,,00097,2023-11-08_12h26.32.000,vbt_B2_day3,2022.2.4,Win32,143.7194596,,,,,,down,0,0.2212,,0.223148134,-0.217592593,1,0,0,0,193,193,118,1,vinger,images/br_vinger.png,images/cb_vinger.png,0,,,,,,,,,,,,,,,,,,,,,,
,,,,,00097,2023-11-08_12h26.32.000,vbt_B2_day3,2022.2.4,Win32,143.7194596,,,,,,down,0,0.188,,0.223148134,-0.217592593,1,0,0,0,194,194,136,1,waarbij,images/br_waarbij.png,images/cb_waarbij.png,0,,,,,,,,,,,,,,,,,,,,,,
,,,,,00097,2023-11-08_12h26.32.000,vbt_B2_day3,2022.2.4,Win32,143.7194596,,,,,,down,0,0.1739,,0.223148134,-0.217592593,1,0,0,0,195,195,115,1,kleren,images/br_kleren.png,images/cb_kleren.png,0,,,,,,,,,,,,,,,,,,,,,,
,,,,,00097,2023-11-08_12h26.32.000,vbt_B2_day3,2022.2.4,Win32,143.7194596,,,,,,down,0,0.092,,0.223148134,-0.217592593,1,0,0,0,196,196,3,1,mand,images/br_mand.png,images/cb_mand.png,0,,,,,,,,,,,,,,,,,,,,,,
,,,,,00097,2023-11-08_12h26.32.000,vbt_B2_day3,2022.2.4,Win32,143.7194596,,,,,,down,0,0.1532,,0.223148134,-0.217592593,1,0,0,0,197,197,196,1,nakijken,images/br_nakijken.png,images/cb_nakijken.png,0,,,,,,,,,,,,,,,,,,,,,,
,,,,,00097,2023-11-08_12h26.32.000,vbt_B2_day3,2022.2.4,Win32,143.7194596,,,,,,down,0,0.1495,,0.223148134,-0.217592593,1,0,0,0,198,198,171,1,aarzelen,images/br_aarzelen.png,images/cb_aarzelen.png,0,,,,,,,,,,,,,,,,,,,,,,
,,,,,00097,2023-11-08_12h26.32.000,vbt_B2_day3,2022.2.4,Win32,143.7194596,,,,,,down,0,0.3131,,0.223148134,-0.217592593,1,0,0,0,199,199,149,1,redding,images/br_redding.png,images/cb_redding.png,0,,,,,,,,,,,,,,,,,,,,,,
,,,,,00097,2023-11-08_12h26.32.000,vbt_B2_day3,2022.2.4,Win32,143.7194596,,,,,,,,,,,,,,,,,,,,,,,,,0.223148134,-0.217592593,1,0,0,,,,,,,,,,,,,,,,
,,,,,00097,2023-11-08_12h26.32.000,vbt_B2_day3,2022.2.4,Win32,143.7194596,,,,,,,,,,,,,,,,,,,,,,,,,,,,,,0.223148134,-0.217592593,1,0,0,,,,,,,,,,,
,,,,,00097,2023-11-08_12h26.32.000,vbt_B2_day3,2022.2.4,Win32,143.7194596,,,,,,,,,,,,,,,,,,,,laken,images/br_laken.png,images/cb_laken.png,,,,,,,,,,,,,0.223148134,-0.217592593,1,0,0,,0,0,0,5,1
,,,,,00097,2023-11-08_12h26.32.000,vbt_B2_day3,2022.2.4,Win32,143.7194596,,,,,,,,,,,,,,,,,,,,leek,images/br_leek.png,images/cb_leek.png,,leek,,,,,,,,,,,-0.000925912,-0.240740741,1,0,0,leek,0,1,1,2,1
,,,,,00097,2023-11-08_12h26.32.000,vbt_B2_day3,2022.2.4,Win32,143.7194596,,,,,,,,,,,,,,,,,,,,opzetten,images/br_opzetten.png,images/cb_opzetten.png,,opzetten,,,,,,,,,,,-0.000925912,-0.240740741,1,0,0,opzetten,0,2,2,56,1
,,,,,00097,2023-11-08_12h26.32.000,vbt_B2_day3,2022.2.4,Win32,143.7194596,,,,,,,,,,,,,,,,,,,,uniek,images/br_uniek.png,images/cb_uniek.png,,uniek,,,,,,,,,,,-0.000925912,-0.214814857,1,0,0,uniek,0,3,3,46,1
,,,,,00097,2023-11-08_12h26.32.000,vbt_B2_day3,2022.2.4,Win32,143.7194596,,,,,,,,,,,,,,,,,,,,aarzelen,images/br_aarzelen.png,images/cb_aarzelen.png,,aarzelen,,,,,,,,,,,-0.000925912,-0.214814857,1,0,0,aarzelen,0,4,4,19,1
,,,,,00097,2023-11-08_12h26.32.000,vbt_B2_day3,2022.2.4,Win32,143.7194596,,,,,,,,,,,,,,,,,,,,alsof,images/br_alsof.png,images/cb_alsof.png,,alsof,,,,,,,,,,,-0.000925912,-0.214814857,1,0,0,alsof,0,5,5,44,1
,,,,,00097,2023-11-08_12h26.32.000,vbt_B2_day3,2022.2.4,Win32,143.7194596,,,,,,,,,,,,,,,,,,,,kwaas,images/br_kwaas.png,images/cb_kwaas.png,,kwaas,,,,,,,,,,,-0.000925912,-0.214814857,1,0,0,kwaas,0,6,6,26,1
,,,,,00097,2023-11-08_12h26.32.000,vbt_B2_day3,2022.2.4,Win32,143.7194596,,,,,,,,,,,,,,,,,,,,keihard,images/br_keihard.png,images/cb_keihard.png,,keihard,,,,,,,,,,,-0.000925912,-0.214814857,1,0,0,keihard,0,7,7,14,1
,,,,,00097,2023-11-08_12h26.32.000,vbt_B2_day3,2022.2.4,Win32,143.7194596,,,,,,,,,,,,,,,,,,,,begrip,images/br_begrip.png,images/cb_begrip.png,,begrip,,,,,,,,,,,-0.000925912,-0.214814857,1,0,0,begrip,0,8,8,48,1
,,,,,00097,2023-11-08_12h26.32.000,vbt_B2_day3,2022.2.4,Win32,143.7194596,,,,,,,,,,,,,,,,,,,,prikken,images/br_prikken.png,images/cb_prikken.png,,prikken,,,,,,,,,,,-0.000925912,-0.214814857,1,0,0,prikken,0,9,9,12,1
,,,,,00097,2023-11-08_12h26.32.000,vbt_B2_day3,2022.2.4,Win32,143.7194596,,,,,,,,,,,,,,,,,,,,brappen,images/br_brappen.png,images/cb_brappen.png,,brappen,,,,,,,,,,,-0.000925912,-0.214814857,1,0,0,brappen,0,10,10,35,1
,,,,,00097,2023-11-08_12h26.32.000,vbt_B2_day3,2022.2.4,Win32,143.7194596,,,,,,,,,,,,,,,,,,,,verwoor,images/br_verwoor.png,images/cb_verwoor.png,,verwoor,,,,,,,,,,,-0.000925912,-0.214814857,1,0,0,verwoor,0,11,11,32,1
,,,,,00097,2023-11-08_12h26.32.000,vbt_B2_day3,2022.2.4,Win32,143.7194596,,,,,,,,,,,,,,,,,,,,jongelui,images/br_jongelui.png,images/cb_jongelui.png,,jongelui,,,,,,,,,,,-0.000925912,-0.214814857,1,0,0,jongelui,0,12,12,59,1
,,,,,00097,2023-11-08_12h26.32.000,vbt_B2_day3,2022.2.4,Win32,143.7194596,,,,,,,,,,,,,,,,,,,,verhaal,images/br_verhaal.png,images/cb_verhaal.png,,verhaal,,,,,,,,,,,-0.000925912,-0.214814857,1,0,0,verhaal,0,13,13,13,1
,,,,,00097,2023-11-08_12h26.32.000,vbt_B2_day3,2022.2.4,Win32,143.7194596,,,,,,,,,,,,,,,,,,,,mode,images/br_mode.png,images/cb_mode.png,,mode,,,,,,,,,,,-0.000925912,-0.214814857,1,0,0,mode,0,14,14,3,1
,,,,,00097,2023-11-08_12h26.32.000,vbt_B2_day3,2022.2.4,Win32,143.7194596,,,,,,,,,,,,,,,,,,,,schatten,images/br_schatten.png,images/cb_schatten.png,,schatten,,,,,,,,,,,-0.000925912,-0.214814857,1,0,0,schatten,0,15,15,18,1
,,,,,00097,2023-11-08_12h26.32.000,vbt_B2_day3,2022.2.4,Win32,143.7194596,,,,,,,,,,,,,,,,,,,,oprotten,images/br_oprotten.png,images/cb_oprotten.png,,oprotten,,,,,,,,,,,-0.000925912,-0.214814857,1,0,0,oprotten,0,16,16,17,1
,,,,,00097,2023-11-08_12h26.32.000,vbt_B2_day3,2022.2.4,Win32,143.7194596,,,,,,,,,,,,,,,,,,,,stallen,images/br_stallen.png,images/cb_stallen.png,,stallen,,,,,,,,,,,-0.000925912,-0.214814857,1,0,0,stallen,0,17,17,52,1
,,,,,00097,2023-11-08_12h26.32.000,vbt_B2_day3,2022.2.4,Win32,143.7194596,,,,,,,,,,,,,,,,,,,,boeien,images/br_boeien.png,images/cb_boeien.png,,boeien,,,,,,,,,,,-0.000925912,-0.214814857,1,0,0,boeien,0,18,18,8,1
,,,,,00097,2023-11-08_12h26.32.000,vbt_B2_day3,2022.2.4,Win32,143.7194596,,,,,,,,,,,,,,,,,,,,schodel,images/br_schodel.png,images/cb_schodel.png,,schodel,,,,,,,,,,,-0.000925912,-0.214814857,1,0,0,schodel,0,19,19,33,1
,,,,,00097,2023-11-08_12h26.32.000,vbt_B2_day3,2022.2.4,Win32,143.7194596,,,,,,,,,,,,,,,,,,,,zone,images/br_zone.png,images/cb_zone.png,,zone,,,,,,,,,,,-0.000925912,-0.214814857,1,0,0,zone,0,20,20,41,1
,,,,,00097,2023-11-08_12h26.32.000,vbt_B2_day3,2022.2.4,Win32,143.7194596,,,,,,,,,,,,,,,,,,,,onrecht,images/br_onrecht.png,images/cb_onrecht.png,,onrecht,,,,,,,,,,,-0.000925912,-0.214814857,1,0,0,onrecht,0,21,21,55,1
,,,,,00097,2023-11-08_12h26.32.000,vbt_B2_day3,2022.2.4,Win32,143.7194596,,,,,,,,,,,,,,,,,,,,leugeren,images/br_leugeren.png,images/cb_leugeren.png,,leugeren,,,,,,,,,,,-0.000925912,-0.214814857,1,0,0,leugeren,0,22,22,37,1
,,,,,00097,2023-11-08_12h26.32.000,vbt_B2_day3,2022.2.4,Win32,143.7194596,,,,,,,,,,,,,,,,,,,,hier,images/br_hier.png,images/cb_hier.png,,hier,,,,,,,,,,,-0.000925912,-0.214814857,1,0,0,hier,0,23,23,1,1
,,,,,00097,2023-11-08_12h26.32.000,vbt_B2_day3,2022.2.4,Win32,143.7194596,,,,,,,,,,,,,,,,,,,,beslag,images/br_beslag.png,images/cb_beslag.png,,beslag,,,,,,,,,,,-0.000925912,-0.214814857,1,0,0,beslag,0,24,24,51,1
,,,,,00097,2023-11-08_12h26.32.000,vbt_B2_day3,2022.2.4,Win32,143.7194596,,,,,,,,,,,,,,,,,,,,sultan,images/br_sultan.png,images/cb_sultan.png,,sultan,,,,,,,,,,,-0.000925912,-0.214814857,1,0,0,sultan,0,25,25,49,1
,,,,,00097,2023-11-08_12h26.32.000,vbt_B2_day3,2022.2.4,Win32,143.7194596,,,,,,,,,,,,,,,,,,,,bisschop,images/br_bisschop.png,images/cb_bisschop.png,,bisschop,,,,,,,,,,,-0.000925912,-0.214814857,1,0,0,bisschop,0,26,26,16,1
,,,,,00097,2023-11-08_12h26.32.000,vbt_B2_day3,2022.2.4,Win32,143.7194596,,,,,,,,,,,,,,,,,,,,booien,images/br_booien.png,images/cb_booien.png,,booien,,,,,,,,,,,-0.000925912,-0.214814857,1,0,0,booien,0,27,27,31,1
,,,,,00097,2023-11-08_12h26.32.000,vbt_B2_day3,2022.2.4,Win32,143.7194596,,,,,,,,,,,,,,,,,,,,kaas,images/br_kaas.png,images/cb_kaas.png,,kaas,,,,,,,,,,,-0.000925912,-0.214814857,1,0,0,kaas,0,28,28,42,1
,,,,,00097,2023-11-08_12h26.32.000,vbt_B2_day3,2022.2.4,Win32,143.7194596,,,,,,,,,,,,,,,,,,,,mugeek,images/br_mugeek.png,images/cb_mugeek.png,,mugeek,,,,,,,,,,,-0.000925912,-0.214814857,1,0,0,mugeek,0,29,29,29,1
,,,,,00097,2023-11-08_12h26.32.000,vbt_B2_day3,2022.2.4,Win32,143.7194596,,,,,,,,,,,,,,,,,,,,stikken,images/br_stikken.png,images/cb_stikken.png,,stikken,,,,,,,,,,,-0.000925912,-0.214814857,1,0,0,stikken,0,30,30,54,1
,,,,,00097,2023-11-08_12h26.32.000,vbt_B2_day3,2022.2.4,Win32,143.7194596,,,,,,,,,,,,,,,,,,,,invallen,images/br_invallen.png,images/cb_invallen.png,,invallen,,,,,,,,,,,-0.000925912,-0.214814857,1,0,0,invallen,0,31,31,57,1
,,,,,00097,2023-11-08_12h26.32.000,vbt_B2_day3,2022.2.4,Win32,143.7194596,,,,,,,,,,,,,,,,,,,,theeting,images/br_theeting.png,images/cb_theeting.png,,theeting,,,,,,,,,,,-0.000925912,-0.214814857,1,0,0,theeting,0,32,32,38,1
,,,,,00097,2023-11-08_12h26.32.000,vbt_B2_day3,2022.2.4,Win32,143.7194596,,,,,,,,,,,,,,,,,,,,uviek,images/br_uviek.png,images/cb_uviek.png,,uviek,,,,,,,,,,,-0.000925912,-0.214814857,1,0,0,uviek,0,33,33,25,1
,,,,,00097,2023-11-08_12h26.32.000,vbt_B2_day3,2022.2.4,Win32,143.7194596,,,,,,,,,,,,,,,,,,,,sluier,images/br_sluier.png,images/cb_sluier.png,,sluier,,,,,,,,,,,-0.000925912,-0.214814857,1,0,0,sluier,0,34,34,50,1
,,,,,00097,2023-11-08_12h26.32.000,vbt_B2_day3,2022.2.4,Win32,143.7194596,,,,,,,,,,,,,,,,,,,,croo,images/br_croo.png,images/cb_croo.png,,croo,,,,,,,,,,,-0.000925912,-0.214814857,1,0,0,croo,0,35,35,22,1
,,,,,00097,2023-11-08_12h26.32.000,vbt_B2_day3,2022.2.4,Win32,143.7194596,,,,,,,,,,,,,,,,,,,,twaaf,images/br_twaaf.png,images/cb_twaaf.png,,twaaf,,,,,,,,,,,-0.000925912,-0.214814857,1,0,0,twaaf,0,36,36,24,1
,,,,,00097,2023-11-08_12h26.32.000,vbt_B2_day3,2022.2.4,Win32,143.7194596,,,,,,,,,,,,,,,,,,,,vlager,images/br_vlager.png,images/cb_vlager.png,,vlager,,,,,,,,,,,-0.000925912,-0.214814857,1,0,0,vlager,0,37,37,28,1
,,,,,00097,2023-11-08_12h26.32.000,vbt_B2_day3,2022.2.4,Win32,143.7194596,,,,,,,,,,,,,,,,,,,,steel,images/br_steel.png,images/cb_steel.png,,steel,,,,,,,,,,,-0.000925912,-0.214814857,1,0,0,steel,0,38,38,4,1
,,,,,00097,2023-11-08_12h26.32.000,vbt_B2_day3,2022.2.4,Win32,143.7194596,,,,,,,,,,,,,,,,,,,,opzicht,images/br_opzicht.png,images/cb_opzicht.png,,opzicht,,,,,,,,,,,-0.000925912,-0.214814857,1,0,0,opzicht,0,39,39,15,1
,,,,,00097,2023-11-08_12h26.32.000,vbt_B2_day3,2022.2.4,Win32,143.7194596,,,,,,,,,,,,,,,,,,,,makieren,images/br_makieren.png,images/cb_makieren.png,,makieren,,,,,,,,,,,-0.000925912,-0.214814857,1,0,0,makieren,0,40,40,36,1
,,,,,00097,2023-11-08_12h26.32.000,vbt_B2_day3,2022.2.4,Win32,143.7194596,,,,,,,,,,,,,,,,,,,,samen,images/br_samen.png,images/cb_samen.png,,samen,,,,,,,,,,,-0.000925912,-0.214814857,1,0,0,samen,0,41,41,7,1
,,,,,00097,2023-11-08_12h26.32.000,vbt_B2_day3,2022.2.4,Win32,143.7194596,,,,,,,,,,,,,,,,,,,,leemaken,images/br_leemaken.png,images/cb_leemaken.png,,leemaken,,,,,,,,,,,-0.000925912,-0.214814857,1,0,0,leemaken,0,42,42,39,1
,,,,,00097,2023-11-08_12h26.32.000,vbt_B2_day3,2022.2.4,Win32,143.7194596,,,,,,,,,,,,,,,,,,,,slapen,images/br_slapen.png,images/cb_slapen.png,,slapen,,,,,,,,,,,-0.000925912,-0.214814857,1,0,0,slapen,0,43,43,9,1
,,,,,00097,2023-11-08_12h26.32.000,vbt_B2_day3,2022.2.4,Win32,143.7194596,,,,,,,,,,,,,,,,,,,,afbopen,images/br_afbopen.png,images/cb_afbopen.png,,afbopen,,,,,,,,,,,-0.000925912,-0.214814857,1,0,0,afbopen,0,44,44,34,1
,,,,,00097,2023-11-08_12h26.32.000,vbt_B2_day3,2022.2.4,Win32,143.7194596,,,,,,,,,,,,,,,,,,,,stoom,images/br_stoom.png,images/cb_stoom.png,,stoom,,,,,,,,,,,-0.000925912,-0.214814857,1,0,0,stoom,0,45,45,6,1
,,,,,00097,2023-11-08_12h26.32.000,vbt_B2_day3,2022.2.4,Win32,143.7194596,,,,,,,,,,,,,,,,,,,,hint,images/br_hint.png,images/cb_hint.png,,hint,,,,,,,,,,,-0.000925912,-0.214814857,1,0,0,hint,0,46,46,43,1
,,,,,00097,2023-11-08_12h26.32.000,vbt_B2_day3,2022.2.4,Win32,143.7194596,,,,,,,,,,,,,,,,,,,,dwang,images/br_dwang.png,images/cb_dwang.png,,dwang,,,,,,,,,,,-0.000925912,-0.214814857,1,0,0,dwang,0,47,47,47,1
,,,,,00097,2023-11-08_12h26.32.000,vbt_B2_day3,2022.2.4,Win32,143.7194596,,,,,,,,,,,,,,,,,,,,gebod,images/br_gebod.png,images/cb_gebod.png,,gebod,,,,,,,,,,,-0.000925912,-0.214814857,1,0,0,gebod,0,48,48,45,1
,,,,,00097,2023-11-08_12h26.32.000,vbt_B2_day3,2022.2.4,Win32,143.7194596,,,,,,,,,,,,,,,,,,,,paken,images/br_paken.png,images/cb_paken.png,,paken,,,,,,,,,,,-0.000925912,-0.214814857,1,0,0,paken,0,49,49,27,1
,,,,,00097,2023-11-08_12h26.32.000,vbt_B2_day3,2022.2.4,Win32,143.7194596,,,,,,,,,,,,,,,,,,,,geluid,images/br_geluid.png,images/cb_geluid.png,,geluid,,,,,,,,,,,-0.000925912,-0.214814857,1,0,0,geluid,0,50,50,10,1
,,,,,00097,2023-11-08_12h26.32.000,vbt_B2_day3,2022.2.4,Win32,143.7194596,,,,,,,,,,,,,,,,,,,,gout,images/br_gout.png,images/cb_gout.png,,gout,,,,,,,,,,,-0.000925912,-0.214814857,1,0,0,gout,0,51,51,20,1
,,,,,00097,2023-11-08_12h26.32.000,vbt_B2_day3,2022.2.4,Win32,143.7194596,,,,,,,,,,,,,,,,,,,,gezond,images/br_gezond.png,images/cb_gezond.png,,gezond,,,,,,,,,,,-0.000925912,-0.214814857,1,0,0,gezond,0,52,52,11,1
,,,,,00097,2023-11-08_12h26.32.000,vbt_B2_day3,2022.2.4,Win32,143.7194596,,,,,,,,,,,,,,,,,,,,knie,images/br_knie.png,images/cb_knie.png,,knie,,,,,,,,,,,-0.000925912,-0.214814857,1,0,0,knie,0,53,53,0,1
,,,,,00097,2023-11-08_12h26.32.000,vbt_B2_day3,2022.2.4,Win32,143.7194596,,,,,,,,,,,,,,,,,,,,bevret,images/br_bevret.png,images/cb_bevret.png,,bevret,,,,,,,,,,,-0.000925912,-0.214814857,1,0,0,bevret,0,54,54,30,1
,,,,,00097,2023-11-08_12h26.32.000,vbt_B2_day3,2022.2.4,Win32,143.7194596,,,,,,,,,,,,,,,,,,,,eens,images/br_eens.png,images/cb_eens.png,,eens,,,,,,,,,,,-0.000925912,-0.214814857,1,0,0,eens,0,55,55,40,1
,,,,,00097,2023-11-08_12h26.32.000,vbt_B2_day3,2022.2.4,Win32,143.7194596,,,,,,,,,,,,,,,,,,,,hust,images/br_hust.png,images/cb_hust.png,,hust,,,,,,,,,,,-0.000925912,-0.214814857,1,0,0,hust,0,56,56,23,1
,,,,,00097,2023-11-08_12h26.32.000,vbt_B2_day3,2022.2.4,Win32,143.7194596,,,,,,,,,,,,,,,,,,,,glijden,images/br_glijden.png,images/cb_glijden.png,,glijden,,,,,,,,,,,-0.000925912,-0.214814857,1,0,0,glijden,0,57,57,53,1
,,,,,00097,2023-11-08_12h26.32.000,vbt_B2_day3,2022.2.4,Win32,143.7194596,,,,,,,,,,,,,,,,,,,,verraden,images/br_verraden.png,images/cb_verraden.png,,verraden,,,,,,,,,,,-0.000925912,-0.214814857,1,0,0,verraden,0,58,58,58,1
,,,,,00097,2023-11-08_12h26.32.000,vbt_B2_day3,2022.2.4,Win32,143.7194596,,,,,,,,,,,,,,,,,,,,kest,images/br_kest.png,images/cb_kest.png,,kest,,,,,,,,,,,-0.000925912,-0.214814857,1,0,0,kest,0,59,59,21,1
,,,,,00097,2023-11-08_12h26.32.000,vbt_B2_day3,2022.2.4,Win32,143.7194596,,,,,,,,,,,,,,,,,,,,,,,,,,,,,,,,,,,,,,,,,,,,,
