welcome_mouse.x,welcome_mouse.y,welcome_mouse.leftButton,welcome_mouse.midButton,welcome_mouse.rightButton,"ID",date,expName,psychopyVersion,OS,frameRate,trainInstr_mouse.x,trainInstr_mouse.y,trainInstr_mouse.leftButton,trainInstr_mouse.midButton,trainInstr_mouse.rightButton,translation_key.keys,translation_key.corr,translation_key.rt,word_rsp.text,trWrd_mouse.x,trWrd_mouse.y,trWrd_mouse.leftButton,trWrd_mouse.midButton,trWrd_mouse.rightButton,train_loop.thisRepN,train_loop.thisTrialN,train_loop.thisN,train_loop.thisIndex,train_loop.ran,nlWrd,brWrd,cbWrd,test,testResp,mouse.x,mouse.y,mouse.leftButton,mouse.midButton,mouse.rightButton,testInstr_mouse.x,testInstr_mouse.y,testInstr_mouse.leftButton,testInstr_mouse.midButton,testInstr_mouse.rightButton,test_mouse.x,test_mouse.y,test_mouse.leftButton,test_mouse.midButton,test_mouse.rightButton,test_response.text,test_loop.thisRepN,test_loop.thisTrialN,test_loop.thisN,test_loop.thisIndex,test_loop.ran
0.293333333,0.136666667,1,0,0,00106,2023-11-12_19h30.20.244,vbt_B2_day3,2022.2.4,MacIntel,62.5,,,,,,,,,,,,,,,,,,,,,,,,,,,,,,,,,,,,,,,,,,,,,
,,,,,00106,2023-11-12_19h30.20.244,vbt_B2_day3,2022.2.4,MacIntel,62.5,0.293333333,0.136666667,1,0,0,,,,,,,,,,,,,,,,,,,,,,,,,,,,,,,,,,,,,,,,
,,,,,00106,2023-11-12_19h30.20.244,vbt_B2_day3,2022.2.4,MacIntel,62.5,,,,,,down,0,10.386,,0.293333333,0.136666667,1,0,0,0,0,0,155,1,gerucht,images/br_gerucht.png,images/cb_gerucht.png,0,,,,,,,,,,,,,,,,,,,,,,
,,,,,00106,2023-11-12_19h30.20.244,vbt_B2_day3,2022.2.4,MacIntel,62.5,,,,,,down,0,4.309,,0.293333333,0.136666667,1,0,0,0,1,1,49,1,laken,images/br_laken.png,images/cb_laken.png,0,,,,,,,,,,,,,,,,,,,,,,
,,,,,00106,2023-11-12_19h30.20.244,vbt_B2_day3,2022.2.4,MacIntel,62.5,,,,,,down,0,4.924,,0.293333333,0.136666667,1,0,0,0,2,2,132,1,grappen,images/br_grappen.png,images/cb_grappen.png,0,,,,,,,,,,,,,,,,,,,,,,
,,,,,00106,2023-11-12_19h30.20.244,vbt_B2_day3,2022.2.4,MacIntel,62.5,,,,,,down,0,5.711,,0.3,0.151111111,1,0,0,0,3,3,98,1,kreeft,images/br_kreeft.png,images/cb_kreeft.png,0,,,,,,,,,,,,,,,,,,,,,,
,,,,,00106,2023-11-12_19h30.20.244,vbt_B2_day3,2022.2.4,MacIntel,62.5,,,,,,down,0,3.956,,0.3,0.151111111,1,0,0,0,4,4,152,1,afnemen,images/br_afnemen.png,images/cb_afnemen.png,0,,,,,,,,,,,,,,,,,,,,,,
,,,,,00106,2023-11-12_19h30.20.244,vbt_B2_day3,2022.2.4,MacIntel,62.5,,,,,,down,0,3.768,,0.3,0.151111111,1,0,0,0,5,5,65,1,parel,images/br_parel.png,images/cb_parel.png,0,,,,,,,,,,,,,,,,,,,,,,
,,,,,00106,2023-11-12_19h30.20.244,vbt_B2_day3,2022.2.4,MacIntel,62.5,,,,,,down,0,3.741,,0.3,0.151111111,1,0,0,0,6,6,148,1,smullen,images/br_smullen.png,images/cb_smullen.png,0,,,,,,,,,,,,,,,,,,,,,,
,,,,,00106,2023-11-12_19h30.20.244,vbt_B2_day3,2022.2.4,MacIntel,62.5,,,,,,down,0,5.489,,0.3,0.151111111,1,0,0,0,7,7,102,1,legaal,images/br_legaal.png,images/cb_legaal.png,1,legaal,,,,,,,,,,,,,,,,,,,,,
,,,,,00106,2023-11-12_19h30.20.244,vbt_B2_day3,2022.2.4,MacIntel,62.5,,,,,,down,0,22.219,,0.3,0.151111111,1,0,0,0,8,8,179,1,woestijn,images/br_woestijn.png,images/cb_woestijn.png,0,,,,,,,,,,,,,,,,,,,,,,
,,,,,00106,2023-11-12_19h30.20.244,vbt_B2_day3,2022.2.4,MacIntel,62.5,,,,,,down,0,53.588,,0.3,0.151111111,1,0,0,0,9,9,174,1,stemming,images/br_stemming.png,images/cb_stemming.png,0,,,,,,,,,,,,,,,,,,,,,,
,,,,,00106,2023-11-12_19h30.20.244,vbt_B2_day3,2022.2.4,MacIntel,62.5,,,,,,down,0,33.978,,0.3,0.151111111,1,0,0,0,10,10,11,1,mode,images/br_mode.png,images/cb_mode.png,0,,,,,,,,,,,,,,,,,,,,,,
,,,,,00106,2023-11-12_19h30.20.244,vbt_B2_day3,2022.2.4,MacIntel,62.5,,,,,,down,0,59.927,,0.3,0.151111111,1,0,0,0,11,11,96,1,slagen,images/br_slagen.png,images/cb_slagen.png,0,,,,,,,,,,,,,,,,,,,,,,
,,,,,00106,2023-11-12_19h30.20.244,vbt_B2_day3,2022.2.4,MacIntel,62.5,,,,,,down,0,8.086,,0.3,0.151111111,1,0,0,0,12,12,59,1,kring,images/br_kring.png,images/cb_kring.png,0,,,,,,,,,,,,,,,,,,,,,,
,,,,,00106,2023-11-12_19h30.20.244,vbt_B2_day3,2022.2.4,MacIntel,62.5,,,,,,down,0,29.026,,0.3,0.151111111,1,0,0,0,13,13,19,1,geit,images/br_geit.png,images/cb_geit.png,0,,,,,,,,,,,,,,,,,,,,,,
,,,,,00106,2023-11-12_19h30.20.244,vbt_B2_day3,2022.2.4,MacIntel,62.5,,,,,,down,0,12.976,,0.3,0.151111111,1,0,0,0,14,14,141,1,knielen,images/br_knielen.png,images/cb_knielen.png,1,knielen,,,,,,,,,,,,,,,,,,,,,
,,,,,00106,2023-11-12_19h30.20.244,vbt_B2_day3,2022.2.4,MacIntel,62.5,,,,,,down,0,7.369,,0.3,0.151111111,1,0,0,0,15,15,2,1,jaar,images/br_jaar.png,images/cb_jaar.png,0,,,,,,,,,,,,,,,,,,,,,,
,,,,,00106,2023-11-12_19h30.20.244,vbt_B2_day3,2022.2.4,MacIntel,62.5,,,,,,down,0,12.383,,0.3,0.151111111,1,0,0,0,16,16,83,1,mening,images/br_mening.png,images/cb_mening.png,0,,,,,,,,,,,,,,,,,,,,,,
,,,,,00106,2023-11-12_19h30.20.244,vbt_B2_day3,2022.2.4,MacIntel,62.5,,,,,,down,0,6.567,,0.3,0.151111111,1,0,0,0,17,17,62,1,knaap,images/br_knaap.png,images/cb_knaap.png,1,knaap,,,,,,,,,,,,,,,,,,,,,
,,,,,00106,2023-11-12_19h30.20.244,vbt_B2_day3,2022.2.4,MacIntel,62.5,,,,,,down,0,4.959,,0.3,0.151111111,1,0,0,0,18,18,53,1,baron,images/br_baron.png,images/cb_baron.png,0,,,,,,,,,,,,,,,,,,,,,,
,,,,,00106,2023-11-12_19h30.20.244,vbt_B2_day3,2022.2.4,MacIntel,62.5,,,,,,down,0,70.048,,0.3,0.151111111,1,0,0,0,19,19,172,1,weigeren,images/br_weigeren.png,images/cb_weigeren.png,0,,,,,,,,,,,,,,,,,,,,,,
,,,,,00106,2023-11-12_19h30.20.244,vbt_B2_day3,2022.2.4,MacIntel,62.5,,,,,,down,0,4.441,,0.3,0.151111111,1,0,0,0,20,20,144,1,eetlust,images/br_eetlust.png,images/cb_eetlust.png,0,,,,,,,,,,,,,,,,,,,,,,
,,,,,00106,2023-11-12_19h30.20.244,vbt_B2_day3,2022.2.4,MacIntel,62.5,,,,,,down,0,1.652,,0.3,0.151111111,1,0,0,0,21,21,112,1,lukken,images/br_lukken.png,images/cb_lukken.png,0,,,,,,,,,,,,,,,,,,,,,,
,,,,,00106,2023-11-12_19h30.20.244,vbt_B2_day3,2022.2.4,MacIntel,62.5,,,,,,down,0,1.675,,0.3,0.151111111,1,0,0,0,22,22,197,1,spanning,images/br_spanning.png,images/cb_spanning.png,0,,,,,,,,,,,,,,,,,,,,,,
,,,,,00106,2023-11-12_19h30.20.244,vbt_B2_day3,2022.2.4,MacIntel,62.5,,,,,,down,0,1.85,,0.3,0.151111111,1,0,0,0,23,23,171,1,aarzelen,images/br_aarzelen.png,images/cb_aarzelen.png,0,,,,,,,,,,,,,,,,,,,,,,
,,,,,00106,2023-11-12_19h30.20.244,vbt_B2_day3,2022.2.4,MacIntel,62.5,,,,,,down,0,0.216,,0.3,0.151111111,1,0,0,0,24,24,70,1,ijdel,images/br_ijdel.png,images/cb_ijdel.png,0,,,,,,,,,,,,,,,,,,,,,,
,,,,,00106,2023-11-12_19h30.20.244,vbt_B2_day3,2022.2.4,MacIntel,62.5,,,,,,down,0,4.015,,0.3,0.151111111,1,0,0,0,25,25,46,1,jagen,images/br_jagen.png,images/cb_jagen.png,0,,,,,,,,,,,,,,,,,,,,,,
,,,,,00106,2023-11-12_19h30.20.244,vbt_B2_day3,2022.2.4,MacIntel,62.5,,,,,,down,0,7.752,,0.3,0.151111111,1,0,0,0,26,26,27,1,dans,images/br_dans.png,images/cb_dans.png,0,,,,,,,,,,,,,,,,,,,,,,
,,,,,00106,2023-11-12_19h30.20.244,vbt_B2_day3,2022.2.4,MacIntel,62.5,,,,,,down,0,10.79,,0.3,0.151111111,1,0,0,0,27,27,120,1,klimmen,images/br_klimmen.png,images/cb_klimmen.png,0,,,,,,,,,,,,,,,,,,,,,,
,,,,,00106,2023-11-12_19h30.20.244,vbt_B2_day3,2022.2.4,MacIntel,62.5,,,,,,down,0,1.771,,0.3,0.151111111,1,0,0,0,28,28,25,1,plek,images/br_plek.png,images/cb_plek.png,0,,,,,,,,,,,,,,,,,,,,,,
,,,,,00106,2023-11-12_19h30.20.244,vbt_B2_day3,2022.2.4,MacIntel,62.5,,,,,,down,0,12.339,,0.3,0.151111111,1,0,0,0,29,29,117,1,kennis,images/br_kennis.png,images/cb_kennis.png,0,,,,,,,,,,,,,,,,,,,,,,
,,,,,00106,2023-11-12_19h30.20.244,vbt_B2_day3,2022.2.4,MacIntel,62.5,,,,,,down,0,16.487,,0.3,0.151111111,1,0,0,0,30,30,161,1,attentie,images/br_attentie.png,images/cb_attentie.png,0,,,,,,,,,,,,,,,,,,,,,,
,,,,,00106,2023-11-12_19h30.20.244,vbt_B2_day3,2022.2.4,MacIntel,62.5,,,,,,down,0,5.73,,0.3,0.151111111,1,0,0,0,31,31,14,1,rijp,images/br_rijp.png,images/cb_rijp.png,0,,,,,,,,,,,,,,,,,,,,,,
,,,,,00106,2023-11-12_19h30.20.244,vbt_B2_day3,2022.2.4,MacIntel,62.5,,,,,,down,0,19.078,,0.3,0.151111111,1,0,0,0,32,32,163,1,schuilen,images/br_schuilen.png,images/cb_schuilen.png,0,,,,,,,,,,,,,,,,,,,,,,
,,,,,00106,2023-11-12_19h30.20.244,vbt_B2_day3,2022.2.4,MacIntel,62.5,,,,,,down,0,11.95,,0.3,0.151111111,1,0,0,0,33,33,20,1,site,images/br_site.png,images/cb_site.png,1,site,,,,,,,,,,,,,,,,,,,,,
,,,,,00106,2023-11-12_19h30.20.244,vbt_B2_day3,2022.2.4,MacIntel,62.5,,,,,,down,0,14.868,,0.3,0.151111111,1,0,0,0,34,34,37,1,mijn,images/br_mijn.png,images/cb_mijn.png,0,,,,,,,,,,,,,,,,,,,,,,
,,,,,00106,2023-11-12_19h30.20.244,vbt_B2_day3,2022.2.4,MacIntel,62.5,,,,,,down,0,5.385,,0.298888889,0.151111111,1,0,0,0,35,35,193,1,weeshuis,images/br_weeshuis.png,images/cb_weeshuis.png,0,,,,,,,,,,,,,,,,,,,,,,
,,,,,00106,2023-11-12_19h30.20.244,vbt_B2_day3,2022.2.4,MacIntel,62.5,,,,,,down,0,12.676,,0.437777778,0.154444444,1,0,0,0,36,36,63,1,flirt,images/br_flirt.png,images/cb_flirt.png,1,flirt,,,,,,,,,,,,,,,,,,,,,
,,,,,00106,2023-11-12_19h30.20.244,vbt_B2_day3,2022.2.4,MacIntel,62.5,,,,,,down,0,1.54,,0.437777778,0.154444444,1,0,0,0,37,37,55,1,praat,images/br_praat.png,images/cb_praat.png,0,,,,,,,,,,,,,,,,,,,,,,
,,,,,00106,2023-11-12_19h30.20.244,vbt_B2_day3,2022.2.4,MacIntel,62.5,,,,,,down,0,2.616,,0.437777778,0.154444444,1,0,0,0,38,38,26,1,leuk,images/br_leuk.png,images/cb_leuk.png,0,,,,,,,,,,,,,,,,,,,,,,
,,,,,00106,2023-11-12_19h30.20.244,vbt_B2_day3,2022.2.4,MacIntel,62.5,,,,,,down,0,4.474,,0.437777778,0.154444444,1,0,0,0,39,39,21,1,mist,images/br_mist.png,images/cb_mist.png,1,mist,,,,,,,,,,,,,,,,,,,,,
,,,,,00106,2023-11-12_19h30.20.244,vbt_B2_day3,2022.2.4,MacIntel,62.5,,,,,,down,0,4.652,,0.437777778,0.154444444,1,0,0,0,40,40,115,1,kleren,images/br_kleren.png,images/cb_kleren.png,0,,,,,,,,,,,,,,,,,,,,,,
,,,,,00106,2023-11-12_19h30.20.244,vbt_B2_day3,2022.2.4,MacIntel,62.5,,,,,,down,0,5.492,,0.437777778,0.154444444,1,0,0,0,41,41,33,1,vlek,images/br_vlek.png,images/cb_vlek.png,0,,,,,,,,,,,,,,,,,,,,,,
,,,,,00106,2023-11-12_19h30.20.244,vbt_B2_day3,2022.2.4,MacIntel,62.5,,,,,,down,0,2.252,,0.374444444,0.084444444,1,0,0,0,42,42,101,1,staren,images/br_staren.png,images/cb_staren.png,1,staren,,,,,,,,,,,,,,,,,,,,,
,,,,,00106,2023-11-12_19h30.20.244,vbt_B2_day3,2022.2.4,MacIntel,62.5,,,,,,down,0,16.545,,0.374444444,0.084444444,1,0,0,0,43,43,147,1,komisch,images/br_komisch.png,images/cb_komisch.png,0,,,,,,,,,,,,,,,,,,,,,,
,,,,,00106,2023-11-12_19h30.20.244,vbt_B2_day3,2022.2.4,MacIntel,62.5,,,,,,down,0,0.857,,0.374444444,0.084444444,1,0,0,0,44,44,9,1,hier,images/br_hier.png,images/cb_hier.png,0,,,,,,,,,,,,,,,,,,,,,,
,,,,,00106,2023-11-12_19h30.20.244,vbt_B2_day3,2022.2.4,MacIntel,62.5,,,,,,down,0,3.589,,0.374444444,0.084444444,1,0,0,0,45,45,38,1,baai,images/br_baai.png,images/cb_baai.png,0,,,,,,,,,,,,,,,,,,,,,,
,,,,,00106,2023-11-12_19h30.20.244,vbt_B2_day3,2022.2.4,MacIntel,62.5,,,,,,down,0,1.243,,0.374444444,0.084444444,1,0,0,0,46,46,104,1,zweven,images/br_zweven.png,images/cb_zweven.png,0,,,,,,,,,,,,,,,,,,,,,,
,,,,,00106,2023-11-12_19h30.20.244,vbt_B2_day3,2022.2.4,MacIntel,62.5,,,,,,down,0,3.32,,0.374444444,0.084444444,1,0,0,0,47,47,77,1,woede,images/br_woede.png,images/cb_woede.png,0,,,,,,,,,,,,,,,,,,,,,,
,,,,,00106,2023-11-12_19h30.20.244,vbt_B2_day3,2022.2.4,MacIntel,62.5,,,,,,down,0,1.052,,0.374444444,0.084444444,1,0,0,0,48,48,69,1,waken,images/br_waken.png,images/cb_waken.png,0,,,,,,,,,,,,,,,,,,,,,,
,,,,,00106,2023-11-12_19h30.20.244,vbt_B2_day3,2022.2.4,MacIntel,62.5,,,,,,down,0,2.287,,0.374444444,0.084444444,1,0,0,0,49,49,45,1,piste,images/br_piste.png,images/cb_piste.png,0,,,,,,,,,,,,,,,,,,,,,,
,,,,,00106,2023-11-12_19h30.20.244,vbt_B2_day3,2022.2.4,MacIntel,62.5,,,,,,down,0,1.151,,0.374444444,0.084444444,1,0,0,0,50,50,88,1,boeien,images/br_boeien.png,images/cb_boeien.png,0,,,,,,,,,,,,,,,,,,,,,,
,,,,,00106,2023-11-12_19h30.20.244,vbt_B2_day3,2022.2.4,MacIntel,62.5,,,,,,down,0,7.487,,0.374444444,0.084444444,1,0,0,0,51,51,35,1,lust,images/br_lust.png,images/cb_lust.png,0,,,,,,,,,,,,,,,,,,,,,,
,,,,,00106,2023-11-12_19h30.20.244,vbt_B2_day3,2022.2.4,MacIntel,62.5,,,,,,down,0,1.592,,0.374444444,0.084444444,1,0,0,0,52,52,54,1,gebit,images/br_gebit.png,images/cb_gebit.png,0,,,,,,,,,,,,,,,,,,,,,,
,,,,,00106,2023-11-12_19h30.20.244,vbt_B2_day3,2022.2.4,MacIntel,62.5,,,,,,down,0,135.711,,0.374444444,0.084444444,1,0,0,0,53,53,129,1,verhaal,images/br_verhaal.png,images/cb_verhaal.png,0,,,,,,,,,,,,,,,,,,,,,,
,,,,,00106,2023-11-12_19h30.20.244,vbt_B2_day3,2022.2.4,MacIntel,62.5,,,,,,down,0,6.985,,0.374444444,0.084444444,1,0,0,0,54,54,135,1,gedicht,images/br_gedicht.png,images/cb_gedicht.png,0,,,,,,,,,,,,,,,,,,,,,,
,,,,,00106,2023-11-12_19h30.20.244,vbt_B2_day3,2022.2.4,MacIntel,62.5,,,,,,down,0,7.718,,0.41,0.157777778,1,0,0,0,55,55,99,1,koffie,images/br_koffie.png,images/cb_koffie.png,0,,,,,,,,,,,,,,,,,,,,,,
,,,,,00106,2023-11-12_19h30.20.244,vbt_B2_day3,2022.2.4,MacIntel,62.5,,,,,,down,0,3.859,,0.41,0.157777778,1,0,0,0,56,56,186,1,voorraad,images/br_voorraad.png,images/cb_voorraad.png,0,,,,,,,,,,,,,,,,,,,,,,
,,,,,00106,2023-11-12_19h30.20.244,vbt_B2_day3,2022.2.4,MacIntel,62.5,,,,,,down,0,6.178,,0.41,0.157777778,1,0,0,0,57,57,139,1,stiekem,images/br_stiekem.png,images/cb_stiekem.png,0,,,,,,,,,,,,,,,,,,,,,,
,,,,,00106,2023-11-12_19h30.20.244,vbt_B2_day3,2022.2.4,MacIntel,62.5,,,,,,down,0,22.943,,0.41,0.157777778,1,0,0,0,58,58,185,1,mijnheer,images/br_mijnheer.png,images/cb_mijnheer.png,0,,,,,,,,,,,,,,,,,,,,,,
,,,,,00106,2023-11-12_19h30.20.244,vbt_B2_day3,2022.2.4,MacIntel,62.5,,,,,,down,0,124.851,,0.41,0.157777778,1,0,0,0,59,59,145,1,invloed,images/br_invloed.png,images/cb_invloed.png,0,,,,,,,,,,,,,,,,,,,,,,
,,,,,00106,2023-11-12_19h30.20.244,vbt_B2_day3,2022.2.4,MacIntel,62.5,,,,,,down,0,1.883,,0.41,0.157777778,1,0,0,0,60,60,3,1,mand,images/br_mand.png,images/cb_mand.png,0,,,,,,,,,,,,,,,,,,,,,,
,,,,,00106,2023-11-12_19h30.20.244,vbt_B2_day3,2022.2.4,MacIntel,62.5,,,,,,down,0,1.583,,0.41,0.157777778,1,0,0,0,61,61,8,1,knie,images/br_knie.png,images/cb_knie.png,0,,,,,,,,,,,,,,,,,,,,,,
,,,,,00106,2023-11-12_19h30.20.244,vbt_B2_day3,2022.2.4,MacIntel,62.5,,,,,,down,0,1.15,,0.41,0.157777778,1,0,0,0,62,62,97,1,loyaal,images/br_loyaal.png,images/cb_loyaal.png,0,,,,,,,,,,,,,,,,,,,,,,
,,,,,00106,2023-11-12_19h30.20.244,vbt_B2_day3,2022.2.4,MacIntel,62.5,,,,,,down,0,0.589,,0.41,0.157777778,1,0,0,0,63,63,109,1,totaal,images/br_totaal.png,images/cb_totaal.png,0,,,,,,,,,,,,,,,,,,,,,,
,,,,,00106,2023-11-12_19h30.20.244,vbt_B2_day3,2022.2.4,MacIntel,62.5,,,,,,down,0,3.1,,0.41,0.157777778,1,0,0,0,64,64,150,1,gegeven,images/br_gegeven.png,images/cb_gegeven.png,0,,,,,,,,,,,,,,,,,,,,,,
,,,,,00106,2023-11-12_19h30.20.244,vbt_B2_day3,2022.2.4,MacIntel,62.5,,,,,,down,0,1.626,,0.41,0.157777778,1,0,0,0,65,65,74,1,graaf,images/br_graaf.png,images/cb_graaf.png,0,,,,,,,,,,,,,,,,,,,,,,
,,,,,00106,2023-11-12_19h30.20.244,vbt_B2_day3,2022.2.4,MacIntel,62.5,,,,,,down,0,2.028,,0.411111111,0.157777778,1,0,0,0,66,66,0,1,slak,images/br_slak.png,images/cb_slak.png,0,,,,,,,,,,,,,,,,,,,,,,
,,,,,00106,2023-11-12_19h30.20.244,vbt_B2_day3,2022.2.4,MacIntel,62.5,,,,,,down,0,4.975,,0.411111111,0.157777778,1,0,0,0,67,67,41,1,maken,images/br_maken.png,images/cb_maken.png,0,,,,,,,,,,,,,,,,,,,,,,
,,,,,00106,2023-11-12_19h30.20.244,vbt_B2_day3,2022.2.4,MacIntel,62.5,,,,,,down,0,1.909,,0.411111111,0.157777778,1,0,0,0,68,68,82,1,muziek,images/br_muziek.png,images/cb_muziek.png,0,,,,,,,,,,,,,,,,,,,,,,
,,,,,00106,2023-11-12_19h30.20.244,vbt_B2_day3,2022.2.4,MacIntel,62.5,,,,,,down,0,3.504,,0.411111111,0.157777778,1,0,0,0,69,69,68,1,schat,images/br_schat.png,images/cb_schat.png,0,,,,,,,,,,,,,,,,,,,,,,
,,,,,00106,2023-11-12_19h30.20.244,vbt_B2_day3,2022.2.4,MacIntel,62.5,,,,,,down,0,2.605,,0.411111111,0.157777778,1,0,0,0,70,70,5,1,blad,images/br_blad.png,images/cb_blad.png,0,,,,,,,,,,,,,,,,,,,,,,
,,,,,00106,2023-11-12_19h30.20.244,vbt_B2_day3,2022.2.4,MacIntel,62.5,,,,,,down,0,5.802,,0.411111111,0.157777778,1,0,0,0,71,71,23,1,zout,images/br_zout.png,images/cb_zout.png,1,zout,,,,,,,,,,,,,,,,,,,,,
,,,,,00106,2023-11-12_19h30.20.244,vbt_B2_day3,2022.2.4,MacIntel,62.5,,,,,,down,0,5.557,,0.411111111,0.157777778,1,0,0,0,72,72,71,1,bever,images/br_bever.png,images/cb_bever.png,0,,,,,,,,,,,,,,,,,,,,,,
,,,,,00106,2023-11-12_19h30.20.244,vbt_B2_day3,2022.2.4,MacIntel,62.5,,,,,,down,0,188.179,,-0.093333333,-0.175555556,1,0,0,0,73,73,94,1,oceaan,images/br_oceaan.png,images/cb_oceaan.png,0,,,,,,,,,,,,,,,,,,,,,,
,,,,,00106,2023-11-12_19h30.20.244,vbt_B2_day3,2022.2.4,MacIntel,62.5,,,,,,down,0,6.433,,-0.093333333,-0.175555556,1,0,0,0,74,74,36,1,vuur,images/br_vuur.png,images/cb_vuur.png,0,,,,,,,,,,,,,,,,,,,,,,
,,,,,00106,2023-11-12_19h30.20.244,vbt_B2_day3,2022.2.4,MacIntel,62.5,,,,,,down,0,13.357,,0.56,-0.051111111,1,0,0,0,75,75,151,1,aanzoek,images/br_aanzoek.png,images/cb_aanzoek.png,0,,,,,,,,,,,,,,,,,,,,,,
,,,,,00106,2023-11-12_19h30.20.244,vbt_B2_day3,2022.2.4,MacIntel,62.5,,,,,,down,0,9.435,,0.56,-0.051111111,1,0,0,0,76,76,1,1,zaal,images/br_zaal.png,images/cb_zaal.png,0,,,,,,,,,,,,,,,,,,,,,,
,,,,,00106,2023-11-12_19h30.20.244,vbt_B2_day3,2022.2.4,MacIntel,62.5,,,,,,down,0,3.633,,0.56,-0.051111111,1,0,0,0,77,77,149,1,redding,images/br_redding.png,images/cb_redding.png,0,,,,,,,,,,,,,,,,,,,,,,
,,,,,00106,2023-11-12_19h30.20.244,vbt_B2_day3,2022.2.4,MacIntel,62.5,,,,,,down,0,4.025,,0.56,-0.051111111,1,0,0,0,78,78,119,1,liefje,images/br_liefje.png,images/cb_liefje.png,0,,,,,,,,,,,,,,,,,,,,,,
,,,,,00106,2023-11-12_19h30.20.244,vbt_B2_day3,2022.2.4,MacIntel,62.5,,,,,,down,0,21.22,,0.56,-0.051111111,1,0,0,0,79,79,176,1,techniek,images/br_techniek.png,images/cb_techniek.png,0,,,,,,,,,,,,,,,,,,,,,,
,,,,,00106,2023-11-12_19h30.20.244,vbt_B2_day3,2022.2.4,MacIntel,62.5,,,,,,down,0,33.929,,0.56,-0.051111111,1,0,0,0,80,80,159,1,sufferd,images/br_sufferd.png,images/cb_sufferd.png,0,,,,,,,,,,,,,,,,,,,,,,
,,,,,00106,2023-11-12_19h30.20.244,vbt_B2_day3,2022.2.4,MacIntel,62.5,,,,,,down,0,9.109,,0.56,-0.051111111,1,0,0,0,81,81,80,1,kanjer,images/br_kanjer.png,images/cb_kanjer.png,0,,,,,,,,,,,,,,,,,,,,,,
,,,,,00106,2023-11-12_19h30.20.244,vbt_B2_day3,2022.2.4,MacIntel,62.5,,,,,,down,0,21.445,,0.56,-0.051111111,1,0,0,0,82,82,42,1,bleek,images/br_bleek.png,images/cb_bleek.png,0,,,,,,,,,,,,,,,,,,,,,,
,,,,,00106,2023-11-12_19h30.20.244,vbt_B2_day3,2022.2.4,MacIntel,62.5,,,,,,down,0,3.053,,0.56,-0.051111111,1,0,0,0,83,83,78,1,leren,images/br_leren.png,images/cb_leren.png,0,,,,,,,,,,,,,,,,,,,,,,
,,,,,00106,2023-11-12_19h30.20.244,vbt_B2_day3,2022.2.4,MacIntel,62.5,,,,,,down,0,74.648,,0.56,-0.051111111,1,0,0,0,84,84,137,1,trekker,images/br_trekker.png,images/cb_trekker.png,0,,,,,,,,,,,,,,,,,,,,,,
,,,,,00106,2023-11-12_19h30.20.244,vbt_B2_day3,2022.2.4,MacIntel,62.5,,,,,,down,0,2.433,,0.56,-0.051111111,1,0,0,0,85,85,58,1,tekst,images/br_tekst.png,images/cb_tekst.png,0,,,,,,,,,,,,,,,,,,,,,,
,,,,,00106,2023-11-12_19h30.20.244,vbt_B2_day3,2022.2.4,MacIntel,62.5,,,,,,down,0,0.233,,0.56,-0.051111111,1,0,0,0,86,86,39,1,laag,images/br_laag.png,images/cb_laag.png,0,,,,,,,,,,,,,,,,,,,,,,
,,,,,00106,2023-11-12_19h30.20.244,vbt_B2_day3,2022.2.4,MacIntel,62.5,,,,,,down,0,15.463,,0.56,-0.051111111,1,0,0,0,87,87,198,1,bedoelen,images/br_bedoelen.png,images/cb_bedoelen.png,0,,,,,,,,,,,,,,,,,,,,,,
,,,,,00106,2023-11-12_19h30.20.244,vbt_B2_day3,2022.2.4,MacIntel,62.5,,,,,,down,0,19.222,,0.56,-0.051111111,1,0,0,0,88,88,170,1,schatten,images/br_schatten.png,images/cb_schatten.png,0,,,,,,,,,,,,,,,,,,,,,,
,,,,,00106,2023-11-12_19h30.20.244,vbt_B2_day3,2022.2.4,MacIntel,62.5,,,,,,down,0,16.937,,0.56,-0.051111111,1,0,0,0,89,89,167,1,eenhoorn,images/br_eenhoorn.png,images/cb_eenhoorn.png,0,,,,,,,,,,,,,,,,,,,,,,
,,,,,00106,2023-11-12_19h30.20.244,vbt_B2_day3,2022.2.4,MacIntel,62.5,,,,,,down,0,4.124,,0.56,-0.051111111,1,0,0,0,90,90,195,1,middelen,images/br_middelen.png,images/cb_middelen.png,0,,,,,,,,,,,,,,,,,,,,,,
,,,,,00106,2023-11-12_19h30.20.244,vbt_B2_day3,2022.2.4,MacIntel,62.5,,,,,,down,0,4.876,,0.56,-0.051111111,1,0,0,0,91,91,122,1,waarvan,images/br_waarvan.png,images/cb_waarvan.png,0,,,,,,,,,,,,,,,,,,,,,,
,,,,,00106,2023-11-12_19h30.20.244,vbt_B2_day3,2022.2.4,MacIntel,62.5,,,,,,down,0,18.387,,0.56,-0.061111111,1,0,0,0,92,92,138,1,akkoord,images/br_akkoord.png,images/cb_akkoord.png,0,,,,,,,,,,,,,,,,,,,,,,
,,,,,00106,2023-11-12_19h30.20.244,vbt_B2_day3,2022.2.4,MacIntel,62.5,,,,,,down,0,40.459,,0.56,-0.061111111,1,0,0,0,93,93,121,1,twijfel,images/br_twijfel.png,images/cb_twijfel.png,0,,,,,,,,,,,,,,,,,,,,,,
,,,,,00106,2023-11-12_19h30.20.244,vbt_B2_day3,2022.2.4,MacIntel,62.5,,,,,,down,0,1.216,,0.56,-0.061111111,1,0,0,0,94,94,48,1,steel,images/br_steel.png,images/cb_steel.png,0,,,,,,,,,,,,,,,,,,,,,,
,,,,,00106,2023-11-12_19h30.20.244,vbt_B2_day3,2022.2.4,MacIntel,62.5,,,,,,down,0,2.084,,0.56,-0.061111111,1,0,0,0,95,95,32,1,palm,images/br_palm.png,images/cb_palm.png,0,,,,,,,,,,,,,,,,,,,,,,
,,,,,00106,2023-11-12_19h30.20.244,vbt_B2_day3,2022.2.4,MacIntel,62.5,,,,,,down,0,5.393,,0.561111111,-0.061111111,1,0,0,0,96,96,116,1,besmet,images/br_besmet.png,images/cb_besmet.png,0,,,,,,,,,,,,,,,,,,,,,,
,,,,,00106,2023-11-12_19h30.20.244,vbt_B2_day3,2022.2.4,MacIntel,62.5,,,,,,down,0,86.164,,0.456666667,-0.054444444,1,0,0,0,97,97,40,1,schep,images/br_schep.png,images/cb_schep.png,0,,,,,,,,,,,,,,,,,,,,,,
,,,,,00106,2023-11-12_19h30.20.244,vbt_B2_day3,2022.2.4,MacIntel,62.5,,,,,,down,0,5.367,,0.456666667,-0.054444444,1,0,0,0,98,98,188,1,strekken,images/br_strekken.png,images/cb_strekken.png,0,,,,,,,,,,,,,,,,,,,,,,
,,,,,00106,2023-11-12_19h30.20.244,vbt_B2_day3,2022.2.4,MacIntel,62.5,,,,,,down,0,14.607,,0.332222222,-0.011111111,1,0,0,0,99,99,127,1,doodmoe,images/br_doodmoe.png,images/cb_doodmoe.png,0,,,,,,,,,,,,,,,,,,,,,,
,,,,,00106,2023-11-12_19h30.20.244,vbt_B2_day3,2022.2.4,MacIntel,62.5,,,,,,down,0,12.32,,0.332222222,-0.011111111,1,0,0,0,100,100,106,1,zingen,images/br_zingen.png,images/cb_zingen.png,0,,,,,,,,,,,,,,,,,,,,,,
,,,,,00106,2023-11-12_19h30.20.244,vbt_B2_day3,2022.2.4,MacIntel,62.5,,,,,,down,0,5.183,,0.332222222,-0.011111111,1,0,0,0,101,101,166,1,strikken,images/br_strikken.png,images/cb_strikken.png,0,,,,,,,,,,,,,,,,,,,,,,
,,,,,00106,2023-11-12_19h30.20.244,vbt_B2_day3,2022.2.4,MacIntel,62.5,,,,,,down,0,3.935,,0.332222222,-0.011111111,1,0,0,0,102,102,84,1,lokken,images/br_lokken.png,images/cb_lokken.png,0,,,,,,,,,,,,,,,,,,,,,,
,,,,,00106,2023-11-12_19h30.20.244,vbt_B2_day3,2022.2.4,MacIntel,62.5,,,,,,down,0,31.012,,0.332222222,-0.011111111,1,0,0,0,103,103,17,1,taal,images/br_taal.png,images/cb_taal.png,0,,,,,,,,,,,,,,,,,,,,,,
,,,,,00106,2023-11-12_19h30.20.244,vbt_B2_day3,2022.2.4,MacIntel,62.5,,,,,,down,0,4.841,,0.332222222,-0.011111111,1,0,0,0,104,104,125,1,aanzien,images/br_aanzien.png,images/cb_aanzien.png,0,,,,,,,,,,,,,,,,,,,,,,
,,,,,00106,2023-11-12_19h30.20.244,vbt_B2_day3,2022.2.4,MacIntel,62.5,,,,,,down,0,6.541,,0.34,-0.007777778,1,0,0,0,105,105,90,1,geluid,images/br_geluid.png,images/cb_geluid.png,0,,,,,,,,,,,,,,,,,,,,,,
,,,,,00106,2023-11-12_19h30.20.244,vbt_B2_day3,2022.2.4,MacIntel,62.5,,,,,,down,0,2.836,,0.34,-0.007777778,1,0,0,0,106,106,13,1,kaal,images/br_kaal.png,images/cb_kaal.png,0,,,,,,,,,,,,,,,,,,,,,,
,,,,,00106,2023-11-12_19h30.20.244,vbt_B2_day3,2022.2.4,MacIntel,62.5,,,,,,down,0,11.576,,0.34,-0.007777778,1,0,0,0,107,107,47,1,kabel,images/br_kabel.png,images/cb_kabel.png,0,,,,,,,,,,,,,,,,,,,,,,
,,,,,00106,2023-11-12_19h30.20.244,vbt_B2_day3,2022.2.4,MacIntel,62.5,,,,,,down,0,74.808,,0.34,-0.007777778,1,0,0,0,108,108,153,1,vervoer,images/br_vervoer.png,images/cb_vervoer.png,0,,,,,,,,,,,,,,,,,,,,,,
,,,,,00106,2023-11-12_19h30.20.244,vbt_B2_day3,2022.2.4,MacIntel,62.5,,,,,,down,0,4.857,,0.363333333,-0.005555556,1,0,0,0,109,109,15,1,soda,images/br_soda.png,images/cb_soda.png,0,,,,,,,,,,,,,,,,,,,,,,
,,,,,00106,2023-11-12_19h30.20.244,vbt_B2_day3,2022.2.4,MacIntel,62.5,,,,,,down,0,6.602,,0.363333333,-0.005555556,1,0,0,0,110,110,169,1,oprotten,images/br_oprotten.png,images/cb_oprotten.png,0,,,,,,,,,,,,,,,,,,,,,,
,,,,,00106,2023-11-12_19h30.20.244,vbt_B2_day3,2022.2.4,MacIntel,62.5,,,,,,down,0,4.541,,0.363333333,-0.005555556,1,0,0,0,111,111,18,1,blik,images/br_blik.png,images/cb_blik.png,0,,,,,,,,,,,,,,,,,,,,,,
,,,,,00106,2023-11-12_19h30.20.244,vbt_B2_day3,2022.2.4,MacIntel,62.5,,,,,,down,0,10.951,,0.363333333,-0.005555556,1,0,0,0,112,112,76,1,afval,images/br_afval.png,images/cb_afval.png,0,,,,,,,,,,,,,,,,,,,,,,
,,,,,00106,2023-11-12_19h30.20.244,vbt_B2_day3,2022.2.4,MacIntel,62.5,,,,,,down,0,10.901,,0.363333333,-0.005555556,1,0,0,0,113,113,108,1,excuus,images/br_excuus.png,images/cb_excuus.png,0,,,,,,,,,,,,,,,,,,,,,,
,,,,,00106,2023-11-12_19h30.20.244,vbt_B2_day3,2022.2.4,MacIntel,62.5,,,,,,down,0,8.903,,0.363333333,-0.005555556,1,0,0,0,114,114,111,1,ticket,images/br_ticket.png,images/cb_ticket.png,0,,,,,,,,,,,,,,,,,,,,,,
,,,,,00106,2023-11-12_19h30.20.244,vbt_B2_day3,2022.2.4,MacIntel,62.5,,,,,,down,0,8.987,,0.371111111,-0.005555556,1,0,0,0,115,115,95,1,vreten,images/br_vreten.png,images/cb_vreten.png,0,,,,,,,,,,,,,,,,,,,,,,
,,,,,00106,2023-11-12_19h30.20.244,vbt_B2_day3,2022.2.4,MacIntel,62.5,,,,,,down,0,5.852,,0.371111111,-0.005555556,1,0,0,0,116,116,192,1,schaamte,images/br_schaamte.png,images/cb_schaamte.png,0,,,,,,,,,,,,,,,,,,,,,,
,,,,,00106,2023-11-12_19h30.20.244,vbt_B2_day3,2022.2.4,MacIntel,62.5,,,,,,down,0,1.301,,0.371111111,-0.005555556,1,0,0,0,117,117,81,1,dubbel,images/br_dubbel.png,images/cb_dubbel.png,0,,,,,,,,,,,,,,,,,,,,,,
,,,,,00106,2023-11-12_19h30.20.244,vbt_B2_day3,2022.2.4,MacIntel,62.5,,,,,,down,0,1.224,,0.373333333,-0.008888889,1,0,0,0,118,118,164,1,anarchie,images/br_anarchie.png,images/cb_anarchie.png,0,,,,,,,,,,,,,,,,,,,,,,
,,,,,00106,2023-11-12_19h30.20.244,vbt_B2_day3,2022.2.4,MacIntel,62.5,,,,,,down,0,3.185,,0.373333333,-0.013333333,1,0,0,0,119,119,199,1,beseffen,images/br_beseffen.png,images/cb_beseffen.png,0,,,,,,,,,,,,,,,,,,,,,,
,,,,,00106,2023-11-12_19h30.20.244,vbt_B2_day3,2022.2.4,MacIntel,62.5,,,,,,down,0,12.157,,0.373333333,-0.013333333,1,0,0,0,120,120,51,1,samen,images/br_samen.png,images/cb_samen.png,0,,,,,,,,,,,,,,,,,,,,,,
,,,,,00106,2023-11-12_19h30.20.244,vbt_B2_day3,2022.2.4,MacIntel,62.5,,,,,,down,0,12.993,,0.375555556,-0.013333333,1,0,0,0,121,121,168,1,bisschop,images/br_bisschop.png,images/cb_bisschop.png,0,,,,,,,,,,,,,,,,,,,,,,
,,,,,00106,2023-11-12_19h30.20.244,vbt_B2_day3,2022.2.4,MacIntel,62.5,,,,,,down,0,7.266,,0.392222222,-0.013333333,1,0,0,0,122,122,79,1,nodig,images/br_nodig.png,images/cb_nodig.png,0,,,,,,,,,,,,,,,,,,,,,,
,,,,,00106,2023-11-12_19h30.20.244,vbt_B2_day3,2022.2.4,MacIntel,62.5,,,,,,down,0,9.777,,0.392222222,-0.013333333,1,0,0,0,123,123,160,1,daarheen,images/br_daarheen.png,images/cb_daarheen.png,0,,,,,,,,,,,,,,,,,,,,,,
,,,,,00106,2023-11-12_19h30.20.244,vbt_B2_day3,2022.2.4,MacIntel,62.5,,,,,,down,0,5.882,,0.392222222,-0.013333333,1,0,0,0,124,124,118,1,vinger,images/br_vinger.png,images/cb_vinger.png,0,,,,,,,,,,,,,,,,,,,,,,
,,,,,00106,2023-11-12_19h30.20.244,vbt_B2_day3,2022.2.4,MacIntel,62.5,,,,,,down,0,8.46,,0.448888889,0.022222222,1,0,0,0,125,125,140,1,blijven,images/br_blijven.png,images/cb_blijven.png,1,blijven,,,,,,,,,,,,,,,,,,,,,
,,,,,00106,2023-11-12_19h30.20.244,vbt_B2_day3,2022.2.4,MacIntel,62.5,,,,,,down,0,88.584,,0.583333333,0.125555556,1,0,0,0,126,126,61,1,groen,images/br_groen.png,images/cb_groen.png,1,groen,,,,,,,,,,,,,,,,,,,,,
,,,,,00106,2023-11-12_19h30.20.244,vbt_B2_day3,2022.2.4,MacIntel,62.5,,,,,,down,0,9.89,,0.594444444,0.126666667,1,0,0,0,127,127,75,1,snoep,images/br_snoep.png,images/cb_snoep.png,0,,,,,,,,,,,,,,,,,,,,,,
,,,,,00106,2023-11-12_19h30.20.244,vbt_B2_day3,2022.2.4,MacIntel,62.5,,,,,,down,0,6.75,,0.594444444,0.126666667,1,0,0,0,128,128,64,1,wegen,images/br_wegen.png,images/cb_wegen.png,0,,,,,,,,,,,,,,,,,,,,,,
,,,,,00106,2023-11-12_19h30.20.244,vbt_B2_day3,2022.2.4,MacIntel,62.5,,,,,,down,0,7.191,,0.596666667,0.126666667,1,0,0,0,129,129,30,1,uien,images/br_uien.png,images/cb_uien.png,0,,,,,,,,,,,,,,,,,,,,,,
,,,,,00106,2023-11-12_19h30.20.244,vbt_B2_day3,2022.2.4,MacIntel,62.5,,,,,,down,0,13.808,,0.594444444,0.106666667,1,0,0,0,130,130,34,1,vorm,images/br_vorm.png,images/cb_vorm.png,0,,,,,,,,,,,,,,,,,,,,,,
,,,,,00106,2023-11-12_19h30.20.244,vbt_B2_day3,2022.2.4,MacIntel,62.5,,,,,,down,0,6.703,,0.6,0.114444444,1,0,0,0,131,131,67,1,zwart,images/br_zwart.png,images/cb_zwart.png,0,,,,,,,,,,,,,,,,,,,,,,
,,,,,00106,2023-11-12_19h30.20.244,vbt_B2_day3,2022.2.4,MacIntel,62.5,,,,,,down,0,10.393,,0.606666667,0.111111111,1,0,0,0,132,132,103,1,joggen,images/br_joggen.png,images/cb_joggen.png,1,joggen,,,,,,,,,,,,,,,,,,,,,
,,,,,00106,2023-11-12_19h30.20.244,vbt_B2_day3,2022.2.4,MacIntel,62.5,,,,,,down,0,7.926,,0.547777778,0.101111111,1,0,0,0,133,133,182,1,bijkomen,images/br_bijkomen.png,images/cb_bijkomen.png,1,bijkomen,,,,,,,,,,,,,,,,,,,,,
,,,,,00106,2023-11-12_19h30.20.244,vbt_B2_day3,2022.2.4,MacIntel,62.5,,,,,,down,0,2.425,,0.547777778,0.101111111,1,0,0,0,134,134,12,1,kust,images/br_kust.png,images/cb_kust.png,0,,,,,,,,,,,,,,,,,,,,,,
,,,,,00106,2023-11-12_19h30.20.244,vbt_B2_day3,2022.2.4,MacIntel,62.5,,,,,,down,0,14.308,,0.562222222,0.088888889,1,0,0,0,135,135,143,1,hechten,images/br_hechten.png,images/cb_hechten.png,1,hechten,,,,,,,,,,,,,,,,,,,,,
,,,,,00106,2023-11-12_19h30.20.244,vbt_B2_day3,2022.2.4,MacIntel,62.5,,,,,,down,0,2.47,,0.562222222,0.088888889,1,0,0,0,136,136,50,1,stoom,images/br_stoom.png,images/cb_stoom.png,0,,,,,,,,,,,,,,,,,,,,,,
,,,,,00106,2023-11-12_19h30.20.244,vbt_B2_day3,2022.2.4,MacIntel,62.5,,,,,,down,0,33.853,,0.562222222,0.081111111,1,0,0,0,137,137,165,1,feestdag,images/br_feestdag.png,images/cb_feestdag.png,0,,,,,,,,,,,,,,,,,,,,,,
,,,,,00106,2023-11-12_19h30.20.244,vbt_B2_day3,2022.2.4,MacIntel,62.5,,,,,,down,0,10.075,,0.65,0.08,1,0,0,0,138,138,158,1,innemen,images/br_innemen.png,images/cb_innemen.png,0,,,,,,,,,,,,,,,,,,,,,,
,,,,,00106,2023-11-12_19h30.20.244,vbt_B2_day3,2022.2.4,MacIntel,62.5,,,,,,down,0,9.758,,0.664444444,0.073333333,1,0,0,0,139,139,87,1,toeval,images/br_toeval.png,images/cb_toeval.png,0,,,,,,,,,,,,,,,,,,,,,,
,,,,,00106,2023-11-12_19h30.20.244,vbt_B2_day3,2022.2.4,MacIntel,62.5,,,,,,down,0,10.569,,0.676666667,0.073333333,1,0,0,0,140,140,134,1,geliefd,images/br_geliefd.png,images/cb_geliefd.png,0,,,,,,,,,,,,,,,,,,,,,,
,,,,,00106,2023-11-12_19h30.20.244,vbt_B2_day3,2022.2.4,MacIntel,62.5,,,,,,down,0,7.466,,0.676666667,0.073333333,1,0,0,0,141,141,72,1,strak,images/br_strak.png,images/cb_strak.png,0,,,,,,,,,,,,,,,,,,,,,,
,,,,,00106,2023-11-12_19h30.20.244,vbt_B2_day3,2022.2.4,MacIntel,62.5,,,,,,down,0,19.768,,0.598888889,-0.054444444,1,0,0,0,142,142,128,1,prikken,images/br_prikken.png,images/cb_prikken.png,0,,,,,,,,,,,,,,,,,,,,,,
,,,,,00106,2023-11-12_19h30.20.244,vbt_B2_day3,2022.2.4,MacIntel,62.5,,,,,,down,0,21.943,,0.598888889,-0.054444444,1,0,0,0,143,143,123,1,hiervan,images/br_hiervan.png,images/cb_hiervan.png,0,,,,,,,,,,,,,,,,,,,,,,
,,,,,00106,2023-11-12_19h30.20.244,vbt_B2_day3,2022.2.4,MacIntel,62.5,,,,,,down,0,3.592,,0.598888889,-0.058888889,1,0,0,0,144,144,31,1,poes,images/br_poes.png,images/cb_poes.png,0,,,,,,,,,,,,,,,,,,,,,,
,,,,,00106,2023-11-12_19h30.20.244,vbt_B2_day3,2022.2.4,MacIntel,62.5,,,,,,down,0,1.956,,0.594444444,-0.061111111,1,0,0,0,145,145,196,1,nakijken,images/br_nakijken.png,images/cb_nakijken.png,0,,,,,,,,,,,,,,,,,,,,,,
,,,,,00106,2023-11-12_19h30.20.244,vbt_B2_day3,2022.2.4,MacIntel,62.5,,,,,,down,0,1.242,,0.594444444,-0.061111111,1,0,0,0,146,146,91,1,gezond,images/br_gezond.png,images/cb_gezond.png,0,,,,,,,,,,,,,,,,,,,,,,
,,,,,00106,2023-11-12_19h30.20.244,vbt_B2_day3,2022.2.4,MacIntel,62.5,,,,,,down,0,3.07,,0.594444444,-0.061111111,1,0,0,0,147,147,85,1,heilig,images/br_heilig.png,images/cb_heilig.png,0,,,,,,,,,,,,,,,,,,,,,,
,,,,,00106,2023-11-12_19h30.20.244,vbt_B2_day3,2022.2.4,MacIntel,62.5,,,,,,down,0,2.585,,0.594444444,-0.061111111,1,0,0,0,148,148,114,1,vullen,images/br_vullen.png,images/cb_vullen.png,0,,,,,,,,,,,,,,,,,,,,,,
,,,,,00106,2023-11-12_19h30.20.244,vbt_B2_day3,2022.2.4,MacIntel,62.5,,,,,,down,0,7.629,,0.594444444,-0.061111111,1,0,0,0,149,149,162,1,uitdelen,images/br_uitdelen.png,images/cb_uitdelen.png,0,,,,,,,,,,,,,,,,,,,,,,
,,,,,00106,2023-11-12_19h30.20.244,vbt_B2_day3,2022.2.4,MacIntel,62.5,,,,,,down,0,1.851,,0.6,-0.061111111,1,0,0,0,150,150,105,1,wijlen,images/br_wijlen.png,images/cb_wijlen.png,0,,,,,,,,,,,,,,,,,,,,,,
,,,,,00106,2023-11-12_19h30.20.244,vbt_B2_day3,2022.2.4,MacIntel,62.5,,,,,,down,0,6.307,,0.6,-0.061111111,1,0,0,0,151,151,24,1,jurk,images/br_jurk.png,images/cb_jurk.png,0,,,,,,,,,,,,,,,,,,,,,,
,,,,,00106,2023-11-12_19h30.20.244,vbt_B2_day3,2022.2.4,MacIntel,62.5,,,,,,down,0,1.1,,0.605555556,-0.06,1,0,0,0,152,152,136,1,waarbij,images/br_waarbij.png,images/cb_waarbij.png,0,,,,,,,,,,,,,,,,,,,,,,
,,,,,00106,2023-11-12_19h30.20.244,vbt_B2_day3,2022.2.4,MacIntel,62.5,,,,,,down,0,5.293,,0.605555556,-0.062222222,1,0,0,0,153,153,187,1,opkijken,images/br_opkijken.png,images/cb_opkijken.png,0,,,,,,,,,,,,,,,,,,,,,,
,,,,,00106,2023-11-12_19h30.20.244,vbt_B2_day3,2022.2.4,MacIntel,62.5,,,,,,down,0,5.525,,0.605555556,-0.062222222,1,0,0,0,154,154,93,1,waarop,images/br_waarop.png,images/cb_waarop.png,0,,,,,,,,,,,,,,,,,,,,,,
,,,,,00106,2023-11-12_19h30.20.244,vbt_B2_day3,2022.2.4,MacIntel,62.5,,,,,,down,0,3.375,,0.605555556,-0.062222222,1,0,0,0,155,155,157,1,uitlaat,images/br_uitlaat.png,images/cb_uitlaat.png,0,,,,,,,,,,,,,,,,,,,,,,
,,,,,00106,2023-11-12_19h30.20.244,vbt_B2_day3,2022.2.4,MacIntel,62.5,,,,,,down,0,28.836,,0.605555556,-0.062222222,1,0,0,0,156,156,100,1,geduld,images/br_geduld.png,images/cb_geduld.png,1,geduld,,,,,,,,,,,,,,,,,,,,,
,,,,,00106,2023-11-12_19h30.20.244,vbt_B2_day3,2022.2.4,MacIntel,62.5,,,,,,down,0,7.245,,0.605555556,-0.062222222,1,0,0,0,157,157,73,1,volop,images/br_volop.png,images/cb_volop.png,0,,,,,,,,,,,,,,,,,,,,,,
,,,,,00106,2023-11-12_19h30.20.244,vbt_B2_day3,2022.2.4,MacIntel,62.5,,,,,,down,0,133.646,,0.605555556,-0.062222222,1,0,0,0,158,158,10,1,leek,images/br_leek.png,images/cb_leek.png,0,,,,,,,,,,,,,,,,,,,,,,
,,,,,00106,2023-11-12_19h30.20.244,vbt_B2_day3,2022.2.4,MacIntel,62.5,,,,,,down,0,0.31,,0.605555556,-0.062222222,1,0,0,0,159,159,7,1,geld,images/br_geld.png,images/cb_geld.png,0,,,,,,,,,,,,,,,,,,,,,,
,,,,,00106,2023-11-12_19h30.20.244,vbt_B2_day3,2022.2.4,MacIntel,62.5,,,,,,down,0,1.273,,0.605555556,-0.062222222,1,0,0,0,160,160,130,1,keihard,images/br_keihard.png,images/cb_keihard.png,0,,,,,,,,,,,,,,,,,,,,,,
,,,,,00106,2023-11-12_19h30.20.244,vbt_B2_day3,2022.2.4,MacIntel,62.5,,,,,,down,0,13.011,,0.605555556,-0.062222222,1,0,0,0,161,161,60,1,jasje,images/br_jasje.png,images/cb_jasje.png,1,jasje,,,,,,,,,,,,,,,,,,,,,
,,,,,00106,2023-11-12_19h30.20.244,vbt_B2_day3,2022.2.4,MacIntel,62.5,,,,,,down,0,11.444,,0.605555556,-0.062222222,1,0,0,0,162,162,184,1,aandelen,images/br_aandelen.png,images/cb_aandelen.png,0,,,,,,,,,,,,,,,,,,,,,,
,,,,,00106,2023-11-12_19h30.20.244,vbt_B2_day3,2022.2.4,MacIntel,62.5,,,,,,down,0,43.77,,0.605555556,-0.062222222,1,0,0,0,163,163,194,1,driemaal,images/br_driemaal.png,images/cb_driemaal.png,0,,,,,,,,,,,,,,,,,,,,,,
,,,,,00106,2023-11-12_19h30.20.244,vbt_B2_day3,2022.2.4,MacIntel,62.5,,,,,,down,0,6.369,,0.605555556,-0.062222222,1,0,0,0,164,164,189,1,aanraden,images/br_aanraden.png,images/cb_aanraden.png,0,,,,,,,,,,,,,,,,,,,,,,
,,,,,00106,2023-11-12_19h30.20.244,vbt_B2_day3,2022.2.4,MacIntel,62.5,,,,,,down,0,5.086,,0.605555556,-0.062222222,1,0,0,0,165,165,92,1,geheim,images/br_geheim.png,images/cb_geheim.png,0,,,,,,,,,,,,,,,,,,,,,,
,,,,,00106,2023-11-12_19h30.20.244,vbt_B2_day3,2022.2.4,MacIntel,62.5,,,,,,down,0,156.737,,0.605555556,-0.062222222,1,0,0,0,166,166,178,1,huisdier,images/br_huisdier.png,images/cb_huisdier.png,0,,,,,,,,,,,,,,,,,,,,,,
,,,,,00106,2023-11-12_19h30.20.244,vbt_B2_day3,2022.2.4,MacIntel,62.5,,,,,,down,0,11.087,,0.605555556,-0.062222222,1,0,0,0,167,167,181,1,toegeven,images/br_toegeven.png,images/cb_toegeven.png,1,toegeven,,,,,,,,,,,,,,,,,,,,,
,,,,,00106,2023-11-12_19h30.20.244,vbt_B2_day3,2022.2.4,MacIntel,62.5,,,,,,down,0,6.553,,0.605555556,-0.062222222,1,0,0,0,168,168,126,1,kasteel,images/br_kasteel.png,images/cb_kasteel.png,0,,,,,,,,,,,,,,,,,,,,,,
,,,,,00106,2023-11-12_19h30.20.244,vbt_B2_day3,2022.2.4,MacIntel,62.5,,,,,,down,0,3.316,,0.605555556,-0.062222222,1,0,0,0,169,169,66,1,lever,images/br_lever.png,images/cb_lever.png,0,,,,,,,,,,,,,,,,,,,,,,
,,,,,00106,2023-11-12_19h30.20.244,vbt_B2_day3,2022.2.4,MacIntel,62.5,,,,,,down,0,6.056,,0.655555556,0.183333333,1,0,0,0,170,170,173,1,apparaat,images/br_apparaat.png,images/cb_apparaat.png,0,,,,,,,,,,,,,,,,,,,,,,
,,,,,00106,2023-11-12_19h30.20.244,vbt_B2_day3,2022.2.4,MacIntel,62.5,,,,,,down,0,3.427,,0.655555556,0.183333333,1,0,0,0,171,171,29,1,baas,images/br_baas.png,images/cb_baas.png,0,,,,,,,,,,,,,,,,,,,,,,
,,,,,00106,2023-11-12_19h30.20.244,vbt_B2_day3,2022.2.4,MacIntel,62.5,,,,,,down,0,29.903,,0.568888889,0.085555556,1,0,0,0,172,172,191,1,opheffen,images/br_opheffen.png,images/cb_opheffen.png,0,,,,,,,,,,,,,,,,,,,,,,
,,,,,00106,2023-11-12_19h30.20.244,vbt_B2_day3,2022.2.4,MacIntel,62.5,,,,,,down,0,59.04,,0.568888889,0.085555556,1,0,0,0,173,173,133,1,seizoen,images/br_seizoen.png,images/cb_seizoen.png,0,,,,,,,,,,,,,,,,,,,,,,
,,,,,00106,2023-11-12_19h30.20.244,vbt_B2_day3,2022.2.4,MacIntel,62.5,,,,,,down,0,5.068,,0.568888889,0.085555556,1,0,0,0,174,174,86,1,woning,images/br_woning.png,images/cb_woning.png,0,,,,,,,,,,,,,,,,,,,,,,
,,,,,00106,2023-11-12_19h30.20.244,vbt_B2_day3,2022.2.4,MacIntel,62.5,,,,,,down,0,23.058,,0.568888889,0.085555556,1,0,0,0,175,175,190,1,goedkoop,images/br_goedkoop.png,images/cb_goedkoop.png,0,,,,,,,,,,,,,,,,,,,,,,
,,,,,00106,2023-11-12_19h30.20.244,vbt_B2_day3,2022.2.4,MacIntel,62.5,,,,,,down,0,6.093,,0.568888889,0.085555556,1,0,0,0,176,176,177,1,maaltijd,images/br_maaltijd.png,images/cb_maaltijd.png,0,,,,,,,,,,,,,,,,,,,,,,
,,,,,00106,2023-11-12_19h30.20.244,vbt_B2_day3,2022.2.4,MacIntel,62.5,,,,,,down,0,3.97,,0.568888889,0.085555556,1,0,0,0,177,177,22,1,stof,images/br_stof.png,images/cb_stof.png,1,stof,,,,,,,,,,,,,,,,,,,,,
,,,,,00106,2023-11-12_19h30.20.244,vbt_B2_day3,2022.2.4,MacIntel,62.5,,,,,,down,0,8.201,,0.568888889,0.085555556,1,0,0,0,178,178,110,1,zuster,images/br_zuster.png,images/cb_zuster.png,0,,,,,,,,,,,,,,,,,,,,,,
,,,,,00106,2023-11-12_19h30.20.244,vbt_B2_day3,2022.2.4,MacIntel,62.5,,,,,,down,0,7.974,,0.568888889,0.084444444,1,0,0,0,179,179,142,1,snuiven,images/br_snuiven.png,images/cb_snuiven.png,1,snuiven,,,,,,,,,,,,,,,,,,,,,
,,,,,00106,2023-11-12_19h30.20.244,vbt_B2_day3,2022.2.4,MacIntel,62.5,,,,,,down,0,16.461,,0.568888889,0.084444444,1,0,0,0,180,180,113,1,koppen,images/br_koppen.png,images/cb_koppen.png,0,,,,,,,,,,,,,,,,,,,,,,
,,,,,00106,2023-11-12_19h30.20.244,vbt_B2_day3,2022.2.4,MacIntel,62.5,,,,,,down,0,5.259,,0.568888889,0.084444444,1,0,0,0,181,181,180,1,openbaar,images/br_openbaar.png,images/cb_openbaar.png,1,openbaar,,,,,,,,,,,,,,,,,,,,,
,,,,,00106,2023-11-12_19h30.20.244,vbt_B2_day3,2022.2.4,MacIntel,62.5,,,,,,down,0,22.593,,0.568888889,0.084444444,1,0,0,0,182,182,16,1,ziek,images/br_ziek.png,images/cb_ziek.png,0,,,,,,,,,,,,,,,,,,,,,,
,,,,,00106,2023-11-12_19h30.20.244,vbt_B2_day3,2022.2.4,MacIntel,62.5,,,,,,down,0,13.757,,0.568888889,0.084444444,1,0,0,0,183,183,175,1,heengaan,images/br_heengaan.png,images/cb_heengaan.png,0,,,,,,,,,,,,,,,,,,,,,,
,,,,,00106,2023-11-12_19h30.20.244,vbt_B2_day3,2022.2.4,MacIntel,62.5,,,,,,down,0,21.934,,0.568888889,0.084444444,1,0,0,0,184,184,124,1,bloeien,images/br_bloeien.png,images/cb_bloeien.png,0,,,,,,,,,,,,,,,,,,,,,,
,,,,,00106,2023-11-12_19h30.20.244,vbt_B2_day3,2022.2.4,MacIntel,62.5,,,,,,down,0,120.142,,0.568888889,0.084444444,1,0,0,0,185,185,4,1,moes,images/br_moes.png,images/cb_moes.png,0,,,,,,,,,,,,,,,,,,,,,,
,,,,,00106,2023-11-12_19h30.20.244,vbt_B2_day3,2022.2.4,MacIntel,62.5,,,,,,down,0,14.828,,0.568888889,0.084444444,1,0,0,0,186,186,52,1,wagon,images/br_wagon.png,images/cb_wagon.png,0,,,,,,,,,,,,,,,,,,,,,,
,,,,,00106,2023-11-12_19h30.20.244,vbt_B2_day3,2022.2.4,MacIntel,62.5,,,,,,down,0,2.242,,0.568888889,0.084444444,1,0,0,0,187,187,107,1,maling,images/br_maling.png,images/cb_maling.png,0,,,,,,,,,,,,,,,,,,,,,,
,,,,,00106,2023-11-12_19h30.20.244,vbt_B2_day3,2022.2.4,MacIntel,62.5,,,,,,down,0,52.413,,0.568888889,0.084444444,1,0,0,0,188,188,6,1,diep,images/br_diep.png,images/cb_diep.png,0,,,,,,,,,,,,,,,,,,,,,,
,,,,,00106,2023-11-12_19h30.20.244,vbt_B2_day3,2022.2.4,MacIntel,62.5,,,,,,down,0,1.132,,0.568888889,0.084444444,1,0,0,0,189,189,28,1,stal,images/br_stal.png,images/cb_stal.png,0,,,,,,,,,,,,,,,,,,,,,,
,,,,,00106,2023-11-12_19h30.20.244,vbt_B2_day3,2022.2.4,MacIntel,62.5,,,,,,down,0,5.957,,0.568888889,0.084444444,1,0,0,0,190,190,43,1,klauw,images/br_klauw.png,images/cb_klauw.png,0,,,,,,,,,,,,,,,,,,,,,,
,,,,,00106,2023-11-12_19h30.20.244,vbt_B2_day3,2022.2.4,MacIntel,62.5,,,,,,down,0,2.905,,0.568888889,0.084444444,1,0,0,0,191,191,146,1,opkomen,images/br_opkomen.png,images/cb_opkomen.png,0,,,,,,,,,,,,,,,,,,,,,,
,,,,,00106,2023-11-12_19h30.20.244,vbt_B2_day3,2022.2.4,MacIntel,62.5,,,,,,down,0,0.972,,0.568888889,0.082222222,1,0,0,0,192,192,57,1,steek,images/br_steek.png,images/cb_steek.png,0,,,,,,,,,,,,,,,,,,,,,,
,,,,,00106,2023-11-12_19h30.20.244,vbt_B2_day3,2022.2.4,MacIntel,62.5,,,,,,down,0,0.036,,0.572222222,0.078888889,1,0,0,0,193,193,89,1,slapen,images/br_slapen.png,images/cb_slapen.png,0,,,,,,,,,,,,,,,,,,,,,,
,,,,,00106,2023-11-12_19h30.20.244,vbt_B2_day3,2022.2.4,MacIntel,62.5,,,,,,down,0,5.902,,0.572222222,0.078888889,1,0,0,0,194,194,183,1,getuigen,images/br_getuigen.png,images/cb_getuigen.png,1,getuigen,,,,,,,,,,,,,,,,,,,,,
,,,,,00106,2023-11-12_19h30.20.244,vbt_B2_day3,2022.2.4,MacIntel,62.5,,,,,,down,0,3.818,,0.572222222,0.078888889,1,0,0,0,195,195,56,1,traag,images/br_traag.png,images/cb_traag.png,0,,,,,,,,,,,,,,,,,,,,,,
,,,,,00106,2023-11-12_19h30.20.244,vbt_B2_day3,2022.2.4,MacIntel,62.5,,,,,,down,0,2.733,,0.575555556,0.076666667,1,0,0,0,196,196,156,1,rechten,images/br_rechten.png,images/cb_rechten.png,0,,,,,,,,,,,,,,,,,,,,,,
,,,,,00106,2023-11-12_19h30.20.244,vbt_B2_day3,2022.2.4,MacIntel,62.5,,,,,,down,0,2.726,,0.575555556,0.076666667,1,0,0,0,197,197,154,1,aflopen,images/br_aflopen.png,images/cb_aflopen.png,0,,,,,,,,,,,,,,,,,,,,,,
,,,,,00106,2023-11-12_19h30.20.244,vbt_B2_day3,2022.2.4,MacIntel,62.5,,,,,,down,0,106.044,,0.575555556,0.076666667,1,0,0,0,198,198,131,1,opzicht,images/br_opzicht.png,images/cb_opzicht.png,0,,,,,,,,,,,,,,,,,,,,,,
,,,,,00106,2023-11-12_19h30.20.244,vbt_B2_day3,2022.2.4,MacIntel,62.5,,,,,,down,0,6.237,,0.575555556,0.076666667,1,0,0,0,199,199,44,1,flits,images/br_flits.png,images/cb_flits.png,0,,,,,,,,,,,,,,,,,,,,,,
,,,,,00106,2023-11-12_19h30.20.244,vbt_B2_day3,2022.2.4,MacIntel,62.5,,,,,,,,,,,,,,,,,,,,,,,,,0.557777778,0.051111111,1,0,0,,,,,,,,,,,,,,,,
,,,,,00106,2023-11-12_19h30.20.244,vbt_B2_day3,2022.2.4,MacIntel,62.5,,,,,,,,,,,,,,,,,,,,,,,,,,,,,,0.557777778,0.051111111,1,0,0,,,,,,,,,,,
,,,,,00106,2023-11-12_19h30.20.244,vbt_B2_day3,2022.2.4,MacIntel,62.5,,,,,,,,,,,,,,,,,,,,gezond,images/br_gezond.png,images/cb_gezond.png,,gezond,,,,,,,,,,,0.557777778,0.051111111,1,0,0,gezond,0,0,0,11,1
,,,,,00106,2023-11-12_19h30.20.244,vbt_B2_day3,2022.2.4,MacIntel,62.5,,,,,,,,,,,,,,,,,,,,geluid,images/br_geluid.png,images/cb_geluid.png,,geluid,,,,,,,,,,,0.351111111,0.041111111,1,0,0,geluid,0,1,1,10,1
,,,,,00106,2023-11-12_19h30.20.244,vbt_B2_day3,2022.2.4,MacIntel,62.5,,,,,,,,,,,,,,,,,,,,beslag,images/br_beslag.png,images/cb_beslag.png,,beslag,,,,,,,,,,,0.351111111,0.041111111,1,0,0,beslag,0,2,2,51,1
,,,,,00106,2023-11-12_19h30.20.244,vbt_B2_day3,2022.2.4,MacIntel,62.5,,,,,,,,,,,,,,,,,,,,stallen,images/br_stallen.png,images/cb_stallen.png,,stallen,,,,,,,,,,,0.351111111,0.041111111,1,0,0,stallen,0,3,3,52,1
,,,,,00106,2023-11-12_19h30.20.244,vbt_B2_day3,2022.2.4,MacIntel,62.5,,,,,,,,,,,,,,,,,,,,begrip,images/br_begrip.png,images/cb_begrip.png,,beg..,,,,,,,,,,,0.351111111,0.041111111,1,0,0,beg..,0,4,4,48,1
,,,,,00106,2023-11-12_19h30.20.244,vbt_B2_day3,2022.2.4,MacIntel,62.5,,,,,,,,,,,,,,,,,,,,prikken,images/br_prikken.png,images/cb_prikken.png,,prikken,,,,,,,,,,,0.351111111,0.041111111,1,0,0,prikken,0,5,5,12,1
,,,,,00106,2023-11-12_19h30.20.244,vbt_B2_day3,2022.2.4,MacIntel,62.5,,,,,,,,,,,,,,,,,,,,verraden,images/br_verraden.png,images/cb_verraden.png,,verraden,,,,,,,,,,,0.351111111,0.041111111,1,0,0,verraden,0,6,6,58,1
,,,,,00106,2023-11-12_19h30.20.244,vbt_B2_day3,2022.2.4,MacIntel,62.5,,,,,,,,,,,,,,,,,,,,kaas,images/br_kaas.png,images/cb_kaas.png,,kaas,,,,,,,,,,,0.351111111,0.041111111,1,0,0,kaas,0,7,7,42,1
,,,,,00106,2023-11-12_19h30.20.244,vbt_B2_day3,2022.2.4,MacIntel,62.5,,,,,,,,,,,,,,,,,,,,brappen,images/br_brappen.png,images/cb_brappen.png,,trappen,,,,,,,,,,,0.347777778,0.04,1,0,0,trappen,0,8,8,35,1
,,,,,00106,2023-11-12_19h30.20.244,vbt_B2_day3,2022.2.4,MacIntel,62.5,,,,,,,,,,,,,,,,,,,,knie,images/br_knie.png,images/cb_knie.png,,knie,,,,,,,,,,,0.347777778,0.04,1,0,0,knie,0,9,9,0,1
,,,,,00106,2023-11-12_19h30.20.244,vbt_B2_day3,2022.2.4,MacIntel,62.5,,,,,,,,,,,,,,,,,,,,verhaal,images/br_verhaal.png,images/cb_verhaal.png,,verhaal,,,,,,,,,,,0.347777778,0.04,1,0,0,verhaal,0,10,10,13,1
,,,,,00106,2023-11-12_19h30.20.244,vbt_B2_day3,2022.2.4,MacIntel,62.5,,,,,,,,,,,,,,,,,,,,kest,images/br_kest.png,images/cb_kest.png,,kist,,,,,,,,,,,0.347777778,0.04,1,0,0,kist,0,11,11,21,1
,,,,,00106,2023-11-12_19h30.20.244,vbt_B2_day3,2022.2.4,MacIntel,62.5,,,,,,,,,,,,,,,,,,,,dwang,images/br_dwang.png,images/cb_dwang.png,,.ang,,,,,,,,,,,0.347777778,0.04,1,0,0,.ang,0,12,12,47,1
,,,,,00106,2023-11-12_19h30.20.244,vbt_B2_day3,2022.2.4,MacIntel,62.5,,,,,,,,,,,,,,,,,,,,leugeren,images/br_leugeren.png,images/cb_leugeren.png,,leu...,,,,,,,,,,,0.347777778,0.04,1,0,0,leu...,0,13,13,37,1
,,,,,00106,2023-11-12_19h30.20.244,vbt_B2_day3,2022.2.4,MacIntel,62.5,,,,,,,,,,,,,,,,,,,,mode,images/br_mode.png,images/cb_mode.png,,mode,,,,,,,,,,,0.347777778,0.04,1,0,0,mode,0,14,14,3,1
,,,,,00106,2023-11-12_19h30.20.244,vbt_B2_day3,2022.2.4,MacIntel,62.5,,,,,,,,,,,,,,,,,,,,samen,images/br_samen.png,images/cb_samen.png,,samen,,,,,,,,,,,0.347777778,0.04,1,0,0,samen,0,15,15,7,1
,,,,,00106,2023-11-12_19h30.20.244,vbt_B2_day3,2022.2.4,MacIntel,62.5,,,,,,,,,,,,,,,,,,,,zone,images/br_zone.png,images/cb_zone.png,,zone,,,,,,,,,,,0.347777778,0.04,1,0,0,zone,0,16,16,41,1
,,,,,00106,2023-11-12_19h30.20.244,vbt_B2_day3,2022.2.4,MacIntel,62.5,,,,,,,,,,,,,,,,,,,,gout,images/br_gout.png,images/cb_gout.png,,gomt,,,,,,,,,,,0.347777778,0.04,1,0,0,gomt,0,17,17,20,1
,,,,,00106,2023-11-12_19h30.20.244,vbt_B2_day3,2022.2.4,MacIntel,62.5,,,,,,,,,,,,,,,,,,,,afbopen,images/br_afbopen.png,images/cb_afbopen.png,,afb.,,,,,,,,,,,0.347777778,0.04,1,0,0,afb.,0,18,18,34,1
,,,,,00106,2023-11-12_19h30.20.244,vbt_B2_day3,2022.2.4,MacIntel,62.5,,,,,,,,,,,,,,,,,,,,leemaken,images/br_leemaken.png,images/cb_leemaken.png,,leem,,,,,,,,,,,0.385555556,0.11,1,0,0,leem,0,19,19,39,1
,,,,,00106,2023-11-12_19h30.20.244,vbt_B2_day3,2022.2.4,MacIntel,62.5,,,,,,,,,,,,,,,,,,,,boeien,images/br_boeien.png,images/cb_boeien.png,,boeien,,,,,,,,,,,0.385555556,0.11,1,0,0,boeien,0,20,20,8,1
,,,,,00106,2023-11-12_19h30.20.244,vbt_B2_day3,2022.2.4,MacIntel,62.5,,,,,,,,,,,,,,,,,,,,eens,images/br_eens.png,images/cb_eens.png,,eens,,,,,,,,,,,0.385555556,0.11,1,0,0,eens,0,21,21,40,1
,,,,,00106,2023-11-12_19h30.20.244,vbt_B2_day3,2022.2.4,MacIntel,62.5,,,,,,,,,,,,,,,,,,,,opzetten,images/br_opzetten.png,images/cb_opzetten.png,,opzetten,,,,,,,,,,,0.385555556,0.11,1,0,0,opzetten,0,22,22,56,1
,,,,,00106,2023-11-12_19h30.20.244,vbt_B2_day3,2022.2.4,MacIntel,62.5,,,,,,,,,,,,,,,,,,,,onrecht,images/br_onrecht.png,images/cb_onrecht.png,,onrecht,,,,,,,,,,,0.385555556,0.11,1,0,0,onrecht,0,23,23,55,1
,,,,,00106,2023-11-12_19h30.20.244,vbt_B2_day3,2022.2.4,MacIntel,62.5,,,,,,,,,,,,,,,,,,,,paken,images/br_paken.png,images/cb_paken.png,,paken,,,,,,,,,,,0.385555556,0.11,1,0,0,paken,0,24,24,27,1
,,,,,00106,2023-11-12_19h30.20.244,vbt_B2_day3,2022.2.4,MacIntel,62.5,,,,,,,,,,,,,,,,,,,,stoom,images/br_stoom.png,images/cb_stoom.png,,stoom,,,,,,,,,,,0.385555556,0.11,1,0,0,stoom,0,25,25,6,1
,,,,,00106,2023-11-12_19h30.20.244,vbt_B2_day3,2022.2.4,MacIntel,62.5,,,,,,,,,,,,,,,,,,,,croo,images/br_croo.png,images/cb_croo.png,,croo,,,,,,,,,,,0.385555556,0.11,1,0,0,croo,0,26,26,22,1
,,,,,00106,2023-11-12_19h30.20.244,vbt_B2_day3,2022.2.4,MacIntel,62.5,,,,,,,,,,,,,,,,,,,,glijden,images/br_glijden.png,images/cb_glijden.png,,glijden,,,,,,,,,,,0.385555556,0.11,1,0,0,glijden,0,27,27,53,1
,,,,,00106,2023-11-12_19h30.20.244,vbt_B2_day3,2022.2.4,MacIntel,62.5,,,,,,,,,,,,,,,,,,,,schatten,images/br_schatten.png,images/cb_schatten.png,,schatten,,,,,,,,,,,0.385555556,0.11,1,0,0,schatten,0,28,28,18,1
,,,,,00106,2023-11-12_19h30.20.244,vbt_B2_day3,2022.2.4,MacIntel,62.5,,,,,,,,,,,,,,,,,,,,steel,images/br_steel.png,images/cb_steel.png,,steel,,,,,,,,,,,0.385555556,0.11,1,0,0,steel,0,29,29,4,1
,,,,,00106,2023-11-12_19h30.20.244,vbt_B2_day3,2022.2.4,MacIntel,62.5,,,,,,,,,,,,,,,,,,,,alsof,images/br_alsof.png,images/cb_alsof.png,,alsof,,,,,,,,,,,0.385555556,0.11,1,0,0,alsof,0,30,30,44,1
,,,,,00106,2023-11-12_19h30.20.244,vbt_B2_day3,2022.2.4,MacIntel,62.5,,,,,,,,,,,,,,,,,,,,twaaf,images/br_twaaf.png,images/cb_twaaf.png,,staaf,,,,,,,,,,,0.385555556,0.11,1,0,0,staaf,0,31,31,24,1
,,,,,00106,2023-11-12_19h30.20.244,vbt_B2_day3,2022.2.4,MacIntel,62.5,,,,,,,,,,,,,,,,,,,,laken,images/br_laken.png,images/cb_laken.png,,laken,,,,,,,,,,,0.385555556,0.11,1,0,0,laken,0,32,32,5,1
,,,,,00106,2023-11-12_19h30.20.244,vbt_B2_day3,2022.2.4,MacIntel,62.5,,,,,,,,,,,,,,,,,,,,invallen,images/br_invallen.png,images/cb_invallen.png,,,,,,,,,,,,,0.376666667,0.112222222,1,0,0,,0,33,33,57,1
,,,,,00106,2023-11-12_19h30.20.244,vbt_B2_day3,2022.2.4,MacIntel,62.5,,,,,,,,,,,,,,,,,,,,uniek,images/br_uniek.png,images/cb_uniek.png,,uniek,,,,,,,,,,,0.378888889,0.112222222,1,0,0,uniek,0,34,34,46,1
,,,,,00106,2023-11-12_19h30.20.244,vbt_B2_day3,2022.2.4,MacIntel,62.5,,,,,,,,,,,,,,,,,,,,makieren,images/br_makieren.png,images/cb_makieren.png,,makei...,,,,,,,,,,,0.378888889,0.112222222,1,0,0,makei...,0,35,35,36,1
,,,,,00106,2023-11-12_19h30.20.244,vbt_B2_day3,2022.2.4,MacIntel,62.5,,,,,,,,,,,,,,,,,,,,sluier,images/br_sluier.png,images/cb_sluier.png,,sluier,,,,,,,,,,,0.378888889,0.112222222,1,0,0,sluier,0,36,36,50,1
,,,,,00106,2023-11-12_19h30.20.244,vbt_B2_day3,2022.2.4,MacIntel,62.5,,,,,,,,,,,,,,,,,,,,verwoor,images/br_verwoor.png,images/cb_verwoor.png,,verwoor,,,,,,,,,,,0.207777778,0.067777778,1,0,0,verwoor,0,37,37,32,1
,,,,,00106,2023-11-12_19h30.20.244,vbt_B2_day3,2022.2.4,MacIntel,62.5,,,,,,,,,,,,,,,,,,,,hier,images/br_hier.png,images/cb_hier.png,,hier,,,,,,,,,,,0.207777778,0.067777778,1,0,0,hier,0,38,38,1,1
,,,,,00106,2023-11-12_19h30.20.244,vbt_B2_day3,2022.2.4,MacIntel,62.5,,,,,,,,,,,,,,,,,,,,hint,images/br_hint.png,images/cb_hint.png,,hint,,,,,,,,,,,0.306666667,0.022222222,1,0,0,hint,0,39,39,43,1
,,,,,00106,2023-11-12_19h30.20.244,vbt_B2_day3,2022.2.4,MacIntel,62.5,,,,,,,,,,,,,,,,,,,,hust,images/br_hust.png,images/cb_hust.png,,hust,,,,,,,,,,,0.297777778,0.023333333,1,0,0,hust,0,40,40,23,1
,,,,,00106,2023-11-12_19h30.20.244,vbt_B2_day3,2022.2.4,MacIntel,62.5,,,,,,,,,,,,,,,,,,,,kwaas,images/br_kwaas.png,images/cb_kwaas.png,,kwaad,,,,,,,,,,,0.297777778,0.023333333,1,0,0,kwaad,0,41,41,26,1
,,,,,00106,2023-11-12_19h30.20.244,vbt_B2_day3,2022.2.4,MacIntel,62.5,,,,,,,,,,,,,,,,,,,,slapen,images/br_slapen.png,images/cb_slapen.png,,,,,,,,,,,,,0.297777778,0.023333333,1,0,0,,0,42,42,9,1
,,,,,00106,2023-11-12_19h30.20.244,vbt_B2_day3,2022.2.4,MacIntel,62.5,,,,,,,,,,,,,,,,,,,,stikken,images/br_stikken.png,images/cb_stikken.png,,stikken,,,,,,,,,,,0.236666667,-0.017777778,1,0,0,stikken,0,43,43,54,1
,,,,,00106,2023-11-12_19h30.20.244,vbt_B2_day3,2022.2.4,MacIntel,62.5,,,,,,,,,,,,,,,,,,,,schodel,images/br_schodel.png,images/cb_schodel.png,,scho..,,,,,,,,,,,0.236666667,-0.017777778,1,0,0,scho..,0,44,44,33,1
,,,,,00106,2023-11-12_19h30.20.244,vbt_B2_day3,2022.2.4,MacIntel,62.5,,,,,,,,,,,,,,,,,,,,opzicht,images/br_opzicht.png,images/cb_opzicht.png,,opzich,,,,,,,,,,,0.236666667,-0.017777778,1,0,0,opzich,0,45,45,15,1
,,,,,00106,2023-11-12_19h30.20.244,vbt_B2_day3,2022.2.4,MacIntel,62.5,,,,,,,,,,,,,,,,,,,,keihard,images/br_keihard.png,images/cb_keihard.png,,kei...,,,,,,,,,,,0.264444444,-0.145555556,1,0,0,kei...,0,46,46,14,1
,,,,,00106,2023-11-12_19h30.20.244,vbt_B2_day3,2022.2.4,MacIntel,62.5,,,,,,,,,,,,,,,,,,,,gebod,images/br_gebod.png,images/cb_gebod.png,,gebod,,,,,,,,,,,0.264444444,-0.145555556,1,0,0,gebod,0,47,47,45,1
,,,,,00106,2023-11-12_19h30.20.244,vbt_B2_day3,2022.2.4,MacIntel,62.5,,,,,,,,,,,,,,,,,,,,bisschop,images/br_bisschop.png,images/cb_bisschop.png,,bisschop,,,,,,,,,,,0.264444444,-0.145555556,1,0,0,bisschop,0,48,48,16,1
,,,,,00106,2023-11-12_19h30.20.244,vbt_B2_day3,2022.2.4,MacIntel,62.5,,,,,,,,,,,,,,,,,,,,booien,images/br_booien.png,images/cb_booien.png,,booien,,,,,,,,,,,0.331111111,-0.104444444,1,0,0,booien,0,49,49,31,1
,,,,,00106,2023-11-12_19h30.20.244,vbt_B2_day3,2022.2.4,MacIntel,62.5,,,,,,,,,,,,,,,,,,,,leek,images/br_leek.png,images/cb_leek.png,,leek,,,,,,,,,,,0.412222222,-0.118888889,1,0,0,leek,0,50,50,2,1
,,,,,00106,2023-11-12_19h30.20.244,vbt_B2_day3,2022.2.4,MacIntel,62.5,,,,,,,,,,,,,,,,,,,,mugeek,images/br_mugeek.png,images/cb_mugeek.png,,mugeen,,,,,,,,,,,0.203333333,-0.043333333,1,0,0,mugeen,0,51,51,29,1
,,,,,00106,2023-11-12_19h30.20.244,vbt_B2_day3,2022.2.4,MacIntel,62.5,,,,,,,,,,,,,,,,,,,,theeting,images/br_theeting.png,images/cb_theeting.png,,,,,,,,,,,,,0.342222222,-0.047777778,1,0,0,,0,52,52,38,1
,,,,,00106,2023-11-12_19h30.20.244,vbt_B2_day3,2022.2.4,MacIntel,62.5,,,,,,,,,,,,,,,,,,,,bevret,images/br_bevret.png,images/cb_bevret.png,,bevr...,,,,,,,,,,,0.438888889,0.032222222,1,0,0,bevr...,0,53,53,30,1
,,,,,00106,2023-11-12_19h30.20.244,vbt_B2_day3,2022.2.4,MacIntel,62.5,,,,,,,,,,,,,,,,,,,,vlager,images/br_vlager.png,images/cb_vlager.png,,vlager,,,,,,,,,,,0.09,0.05,1,0,0,vlager,0,54,54,28,1
,,,,,00106,2023-11-12_19h30.20.244,vbt_B2_day3,2022.2.4,MacIntel,62.5,,,,,,,,,,,,,,,,,,,,jongelui,images/br_jongelui.png,images/cb_jongelui.png,,honger,,,,,,,,,,,0.09,0.05,1,0,0,honger,0,55,55,59,1
,,,,,00106,2023-11-12_19h30.20.244,vbt_B2_day3,2022.2.4,MacIntel,62.5,,,,,,,,,,,,,,,,,,,,uviek,images/br_uviek.png,images/cb_uviek.png,,,,,,,,,,,,,0.09,0.05,1,0,0,,0,56,56,25,1
,,,,,00106,2023-11-12_19h30.20.244,vbt_B2_day3,2022.2.4,MacIntel,62.5,,,,,,,,,,,,,,,,,,,,oprotten,images/br_oprotten.png,images/cb_oprotten.png,,,,,,,,,,,,,0.284444444,0.236666667,1,0,0,,0,57,57,17,1
,,,,,00106,2023-11-12_19h30.20.244,vbt_B2_day3,2022.2.4,MacIntel,62.5,,,,,,,,,,,,,,,,,,,,aarzelen,images/br_aarzelen.png,images/cb_aarzelen.png,,aarzelen,,,,,,,,,,,0.284444444,0.236666667,1,0,0,aarzelen,0,58,58,19,1
,,,,,00106,2023-11-12_19h30.20.244,vbt_B2_day3,2022.2.4,MacIntel,62.5,,,,,,,,,,,,,,,,,,,,sultan,images/br_sultan.png,images/cb_sultan.png,,sultan,,,,,,,,,,,0.284444444,0.236666667,1,0,0,sultan,0,59,59,49,1
,,,,,00106,2023-11-12_19h30.20.244,vbt_B2_day3,2022.2.4,MacIntel,62.5,,,,,,,,,,,,,,,,,,,,,,,,,,,,,,,,,,,,,,,,,,,,,
