welcome_mouse.x,welcome_mouse.y,welcome_mouse.leftButton,welcome_mouse.midButton,welcome_mouse.rightButton,"ID",date,expName,psychopyVersion,OS,frameRate,trainInstr_mouse.x,trainInstr_mouse.y,trainInstr_mouse.leftButton,trainInstr_mouse.midButton,trainInstr_mouse.rightButton,translation_key.keys,translation_key.corr,translation_key.rt,word_rsp.text,trWrd_mouse.x,trWrd_mouse.y,trWrd_mouse.leftButton,trWrd_mouse.midButton,trWrd_mouse.rightButton,train_loop.thisRepN,train_loop.thisTrialN,train_loop.thisN,train_loop.thisIndex,train_loop.ran,nlWrd,brWrd,cbWrd,test,testResp,mouse.x,mouse.y,mouse.leftButton,mouse.midButton,mouse.rightButton,testInstr_mouse.x,testInstr_mouse.y,testInstr_mouse.leftButton,testInstr_mouse.midButton,testInstr_mouse.rightButton,test_mouse.x,test_mouse.y,test_mouse.leftButton,test_mouse.midButton,test_mouse.rightButton,test_response.text,test_loop.thisRepN,test_loop.thisTrialN,test_loop.thisN,test_loop.thisIndex,test_loop.ran
0.03148151,-0.261111111,1,0,0,00094,2023-11-01_16h28.12.522,vbt_B2_day3,2022.2.4,Win32,60.0276127,,,,,,,,,,,,,,,,,,,,,,,,,,,,,,,,,,,,,,,,,,,,,
,,,,,00094,2023-11-01_16h28.12.522,vbt_B2_day3,2022.2.4,Win32,60.0276127,0.334259288,-0.296296353,1,0,0,,,,,,,,,,,,,,,,,,,,,,,,,,,,,,,,,,,,,,,,
,,,,,00094,2023-11-01_16h28.12.522,vbt_B2_day3,2022.2.4,Win32,60.0276127,,,,,,down,0,10.8621,,0.334259288,-0.296296353,1,0,0,0,0,0,164,1,anarchie,images/br_anarchie.png,images/cb_anarchie.png,0,,,,,,,,,,,,,,,,,,,,,,
,,,,,00094,2023-11-01_16h28.12.522,vbt_B2_day3,2022.2.4,Win32,60.0276127,,,,,,down,0,3.9596,,0.334259288,-0.296296353,1,0,0,0,1,1,152,1,afnemen,images/br_afnemen.png,images/cb_afnemen.png,0,,,,,,,,,,,,,,,,,,,,,,
,,,,,00094,2023-11-01_16h28.12.522,vbt_B2_day3,2022.2.4,Win32,60.0276127,,,,,,down,0,17.8667,,0.459259288,-0.112037065,1,0,0,0,2,2,182,1,bijkomen,images/br_bijkomen.png,images/cb_bijkomen.png,1,bijkomen,,,,,,,,,,,,,,,,,,,,,
,,,,,00094,2023-11-01_16h28.12.522,vbt_B2_day3,2022.2.4,Win32,60.0276127,,,,,,down,0,6.5272,,0.459259288,-0.112037065,1,0,0,0,3,3,175,1,heengaan,images/br_heengaan.png,images/cb_heengaan.png,0,,,,,,,,,,,,,,,,,,,,,,
,,,,,00094,2023-11-01_16h28.12.522,vbt_B2_day3,2022.2.4,Win32,60.0276127,,,,,,down,0,1.9489,,0.459259288,-0.112037065,1,0,0,0,4,4,44,1,flits,images/br_flits.png,images/cb_flits.png,0,,,,,,,,,,,,,,,,,,,,,,
,,,,,00094,2023-11-01_16h28.12.522,vbt_B2_day3,2022.2.4,Win32,60.0276127,,,,,,down,0,4.5842,,0.459259288,-0.112037065,1,0,0,0,5,5,131,1,opzicht,images/br_opzicht.png,images/cb_opzicht.png,0,,,,,,,,,,,,,,,,,,,,,,
,,,,,00094,2023-11-01_16h28.12.522,vbt_B2_day3,2022.2.4,Win32,60.0276127,,,,,,down,0,3.8606,,0.459259288,-0.112037065,1,0,0,0,6,6,97,1,loyaal,images/br_loyaal.png,images/cb_loyaal.png,0,,,,,,,,,,,,,,,,,,,,,,
,,,,,00094,2023-11-01_16h28.12.522,vbt_B2_day3,2022.2.4,Win32,60.0276127,,,,,,down,0,0.6828,,0.459259288,-0.112037065,1,0,0,0,7,7,1,1,zaal,images/br_zaal.png,images/cb_zaal.png,0,,,,,,,,,,,,,,,,,,,,,,
,,,,,00094,2023-11-01_16h28.12.522,vbt_B2_day3,2022.2.4,Win32,60.0276127,,,,,,down,0,3.4855,,0.459259288,-0.112037065,1,0,0,0,8,8,79,1,nodig,images/br_nodig.png,images/cb_nodig.png,0,,,,,,,,,,,,,,,,,,,,,,
,,,,,00094,2023-11-01_16h28.12.522,vbt_B2_day3,2022.2.4,Win32,60.0276127,,,,,,down,0,6.1144,,0.459259288,-0.112037065,1,0,0,0,9,9,177,1,maaltijd,images/br_maaltijd.png,images/cb_maaltijd.png,0,,,,,,,,,,,,,,,,,,,,,,
,,,,,00094,2023-11-01_16h28.12.522,vbt_B2_day3,2022.2.4,Win32,60.0276127,,,,,,down,0,6.9567,,0.459259288,-0.112037065,1,0,0,0,10,10,42,1,bleek,images/br_bleek.png,images/cb_bleek.png,0,,,,,,,,,,,,,,,,,,,,,,
,,,,,00094,2023-11-01_16h28.12.522,vbt_B2_day3,2022.2.4,Win32,60.0276127,,,,,,down,0,21.796,,0.459259288,-0.112037065,1,0,0,0,11,11,193,1,weeshuis,images/br_weeshuis.png,images/cb_weeshuis.png,0,,,,,,,,,,,,,,,,,,,,,,
,,,,,00094,2023-11-01_16h28.12.522,vbt_B2_day3,2022.2.4,Win32,60.0276127,,,,,,down,0,2.3201,,0.459259288,-0.112037065,1,0,0,0,12,12,139,1,stiekem,images/br_stiekem.png,images/cb_stiekem.png,0,,,,,,,,,,,,,,,,,,,,,,
,,,,,00094,2023-11-01_16h28.12.522,vbt_B2_day3,2022.2.4,Win32,60.0276127,,,,,,down,0,10.9304,,0.459259288,-0.112037065,1,0,0,0,13,13,80,1,kanjer,images/br_kanjer.png,images/cb_kanjer.png,0,,,,,,,,,,,,,,,,,,,,,,
,,,,,00094,2023-11-01_16h28.12.522,vbt_B2_day3,2022.2.4,Win32,60.0276127,,,,,,down,0,0.5908,,0.459259288,-0.112037065,1,0,0,0,14,14,13,1,kaal,images/br_kaal.png,images/cb_kaal.png,0,,,,,,,,,,,,,,,,,,,,,,
,,,,,00094,2023-11-01_16h28.12.522,vbt_B2_day3,2022.2.4,Win32,60.0276127,,,,,,down,0,3.2487,,0.459259288,-0.112037065,1,0,0,0,15,15,112,1,lukken,images/br_lukken.png,images/cb_lukken.png,0,,,,,,,,,,,,,,,,,,,,,,
,,,,,00094,2023-11-01_16h28.12.522,vbt_B2_day3,2022.2.4,Win32,60.0276127,,,,,,down,0,6.1156,,0.459259288,-0.112037065,1,0,0,0,16,16,199,1,beseffen,images/br_beseffen.png,images/cb_beseffen.png,0,,,,,,,,,,,,,,,,,,,,,,
,,,,,00094,2023-11-01_16h28.12.522,vbt_B2_day3,2022.2.4,Win32,60.0276127,,,,,,down,0,5.6226,,0.459259288,-0.112037065,1,0,0,0,17,17,159,1,sufferd,images/br_sufferd.png,images/cb_sufferd.png,0,,,,,,,,,,,,,,,,,,,,,,
,,,,,00094,2023-11-01_16h28.12.522,vbt_B2_day3,2022.2.4,Win32,60.0276127,,,,,,down,0,1.5086,,0.459259288,-0.112037065,1,0,0,0,18,18,124,1,bloeien,images/br_bloeien.png,images/cb_bloeien.png,0,,,,,,,,,,,,,,,,,,,,,,
,,,,,00094,2023-11-01_16h28.12.522,vbt_B2_day3,2022.2.4,Win32,60.0276127,,,,,,down,0,10.5584,,0.236111111,-0.075,1,0,0,0,19,19,14,1,rijp,images/br_rijp.png,images/cb_rijp.png,0,,,,,,,,,,,,,,,,,,,,,,
,,,,,00094,2023-11-01_16h28.12.522,vbt_B2_day3,2022.2.4,Win32,60.0276127,,,,,,down,0,1.2236,,0.236111111,-0.075,1,0,0,0,20,20,25,1,plek,images/br_plek.png,images/cb_plek.png,0,,,,,,,,,,,,,,,,,,,,,,
,,,,,00094,2023-11-01_16h28.12.522,vbt_B2_day3,2022.2.4,Win32,60.0276127,,,,,,down,0,6.0642,,0.236111111,-0.075,1,0,0,0,21,21,91,1,gezond,images/br_gezond.png,images/cb_gezond.png,0,,,,,,,,,,,,,,,,,,,,,,
,,,,,00094,2023-11-01_16h28.12.522,vbt_B2_day3,2022.2.4,Win32,60.0276127,,,,,,down,0,1.8781,,0.236111111,-0.075,1,0,0,0,22,22,33,1,vlek,images/br_vlek.png,images/cb_vlek.png,0,,,,,,,,,,,,,,,,,,,,,,
,,,,,00094,2023-11-01_16h28.12.522,vbt_B2_day3,2022.2.4,Win32,60.0276127,,,,,,down,0,13.6462,,0.236111111,-0.075,1,0,0,0,23,23,185,1,mijnheer,images/br_mijnheer.png,images/cb_mijnheer.png,0,,,,,,,,,,,,,,,,,,,,,,
,,,,,00094,2023-11-01_16h28.12.522,vbt_B2_day3,2022.2.4,Win32,60.0276127,,,,,,down,0,4.9179,,0.236111111,-0.075,1,0,0,0,24,24,161,1,attentie,images/br_attentie.png,images/cb_attentie.png,0,,,,,,,,,,,,,,,,,,,,,,
,,,,,00094,2023-11-01_16h28.12.522,vbt_B2_day3,2022.2.4,Win32,60.0276127,,,,,,down,0,2.6086,,0.236111111,-0.075,1,0,0,0,25,25,188,1,strekken,images/br_strekken.png,images/cb_strekken.png,0,,,,,,,,,,,,,,,,,,,,,,
,,,,,00094,2023-11-01_16h28.12.522,vbt_B2_day3,2022.2.4,Win32,60.0276127,,,,,,down,0,1.8098,,0.236111111,-0.075,1,0,0,0,26,26,113,1,koppen,images/br_koppen.png,images/cb_koppen.png,0,,,,,,,,,,,,,,,,,,,,,,
,,,,,00094,2023-11-01_16h28.12.522,vbt_B2_day3,2022.2.4,Win32,60.0276127,,,,,,down,0,3.9835,,0.236111111,-0.075,1,0,0,0,27,27,104,1,zweven,images/br_zweven.png,images/cb_zweven.png,0,,,,,,,,,,,,,,,,,,,,,,
,,,,,00094,2023-11-01_16h28.12.522,vbt_B2_day3,2022.2.4,Win32,60.0276127,,,,,,down,0,5.1316,,0.236111111,-0.075,1,0,0,0,28,28,170,1,schatten,images/br_schatten.png,images/cb_schatten.png,0,,,,,,,,,,,,,,,,,,,,,,
,,,,,00094,2023-11-01_16h28.12.522,vbt_B2_day3,2022.2.4,Win32,60.0276127,,,,,,down,0,6.3826,,0.205555556,-0.05,1,0,0,0,29,29,16,1,ziek,images/br_ziek.png,images/cb_ziek.png,0,,,,,,,,,,,,,,,,,,,,,,
,,,,,00094,2023-11-01_16h28.12.522,vbt_B2_day3,2022.2.4,Win32,60.0276127,,,,,,down,0,1.156,,0.205555556,-0.05,1,0,0,0,30,30,73,1,volop,images/br_volop.png,images/cb_volop.png,0,,,,,,,,,,,,,,,,,,,,,,
,,,,,00094,2023-11-01_16h28.12.522,vbt_B2_day3,2022.2.4,Win32,60.0276127,,,,,,down,0,2.0712,,0.205555556,-0.05,1,0,0,0,31,31,3,1,mand,images/br_mand.png,images/cb_mand.png,0,,,,,,,,,,,,,,,,,,,,,,
,,,,,00094,2023-11-01_16h28.12.522,vbt_B2_day3,2022.2.4,Win32,60.0276127,,,,,,down,0,0.3766,,0.205555556,-0.05,1,0,0,0,32,32,50,1,stoom,images/br_stoom.png,images/cb_stoom.png,0,,,,,,,,,,,,,,,,,,,,,,
,,,,,00094,2023-11-01_16h28.12.522,vbt_B2_day3,2022.2.4,Win32,60.0276127,,,,,,down,0,4.2321,,0.205555556,-0.05,1,0,0,0,33,33,70,1,ijdel,images/br_ijdel.png,images/cb_ijdel.png,0,,,,,,,,,,,,,,,,,,,,,,
,,,,,00094,2023-11-01_16h28.12.522,vbt_B2_day3,2022.2.4,Win32,60.0276127,,,,,,down,0,10.2254,,0.205555556,-0.05,1,0,0,0,34,34,168,1,bisschop,images/br_bisschop.png,images/cb_bisschop.png,0,,,,,,,,,,,,,,,,,,,,,,
,,,,,00094,2023-11-01_16h28.12.522,vbt_B2_day3,2022.2.4,Win32,60.0276127,,,,,,down,0,6.4502,,0.205555556,-0.05,1,0,0,0,35,35,118,1,vinger,images/br_vinger.png,images/cb_vinger.png,0,,,,,,,,,,,,,,,,,,,,,,
,,,,,00094,2023-11-01_16h28.12.522,vbt_B2_day3,2022.2.4,Win32,60.0276127,,,,,,down,0,4.805,,0.205555556,-0.05,1,0,0,0,36,36,176,1,techniek,images/br_techniek.png,images/cb_techniek.png,0,,,,,,,,,,,,,,,,,,,,,,
,,,,,00094,2023-11-01_16h28.12.522,vbt_B2_day3,2022.2.4,Win32,60.0276127,,,,,,down,0,2.3819,,0.205555556,-0.05,1,0,0,0,37,37,26,1,leuk,images/br_leuk.png,images/cb_leuk.png,0,,,,,,,,,,,,,,,,,,,,,,
,,,,,00094,2023-11-01_16h28.12.522,vbt_B2_day3,2022.2.4,Win32,60.0276127,,,,,,down,0,0.5534,,0.205555556,-0.05,1,0,0,0,38,38,39,1,laag,images/br_laag.png,images/cb_laag.png,0,,,,,,,,,,,,,,,,,,,,,,
,,,,,00094,2023-11-01_16h28.12.522,vbt_B2_day3,2022.2.4,Win32,60.0276127,,,,,,down,0,16.1663,,0.205555556,-0.05,1,0,0,0,39,39,46,1,jagen,images/br_jagen.png,images/cb_jagen.png,0,,,,,,,,,,,,,,,,,,,,,,
,,,,,00094,2023-11-01_16h28.12.522,vbt_B2_day3,2022.2.4,Win32,60.0276127,,,,,,down,0,4.6205,,0.205555556,-0.05,1,0,0,0,40,40,62,1,knaap,images/br_knaap.png,images/cb_knaap.png,1,knaap,,,,,,,,,,,,,,,,,,,,,
,,,,,00094,2023-11-01_16h28.12.522,vbt_B2_day3,2022.2.4,Win32,60.0276127,,,,,,down,0,3.405,,0.205555556,-0.05,1,0,0,0,41,41,189,1,aanraden,images/br_aanraden.png,images/cb_aanraden.png,0,,,,,,,,,,,,,,,,,,,,,,
,,,,,00094,2023-11-01_16h28.12.522,vbt_B2_day3,2022.2.4,Win32,60.0276127,,,,,,down,0,1.4914,,0.205555556,-0.05,1,0,0,0,42,42,35,1,lust,images/br_lust.png,images/cb_lust.png,0,,,,,,,,,,,,,,,,,,,,,,
,,,,,00094,2023-11-01_16h28.12.522,vbt_B2_day3,2022.2.4,Win32,60.0276127,,,,,,down,0,2.6375,,0.205555556,-0.05,1,0,0,0,43,43,93,1,waarop,images/br_waarop.png,images/cb_waarop.png,0,,,,,,,,,,,,,,,,,,,,,,
,,,,,00094,2023-11-01_16h28.12.522,vbt_B2_day3,2022.2.4,Win32,60.0276127,,,,,,down,0,10.9978,,0.205555556,-0.05,1,0,0,0,44,44,178,1,huisdier,images/br_huisdier.png,images/cb_huisdier.png,0,,,,,,,,,,,,,,,,,,,,,,
,,,,,00094,2023-11-01_16h28.12.522,vbt_B2_day3,2022.2.4,Win32,60.0276127,,,,,,down,0,3.1112,,0.205555556,-0.05,1,0,0,0,45,45,102,1,legaal,images/br_legaal.png,images/cb_legaal.png,1,legaal,,,,,,,,,,,,,,,,,,,,,
,,,,,00094,2023-11-01_16h28.12.522,vbt_B2_day3,2022.2.4,Win32,60.0276127,,,,,,down,0,6.3669,,0.205555556,-0.05,1,0,0,0,46,46,149,1,redding,images/br_redding.png,images/cb_redding.png,0,,,,,,,,,,,,,,,,,,,,,,
,,,,,00094,2023-11-01_16h28.12.522,vbt_B2_day3,2022.2.4,Win32,60.0276127,,,,,,down,0,14.2161,,0.571296353,-0.149074088,1,0,0,0,47,47,142,1,snuiven,images/br_snuiven.png,images/cb_snuiven.png,1,snuiven,,,,,,,,,,,,,,,,,,,,,
,,,,,00094,2023-11-01_16h28.12.522,vbt_B2_day3,2022.2.4,Win32,60.0276127,,,,,,down,0,4.9603,,0.571296353,-0.149074088,1,0,0,0,48,48,123,1,hiervan,images/br_hiervan.png,images/cb_hiervan.png,0,,,,,,,,,,,,,,,,,,,,,,
,,,,,00094,2023-11-01_16h28.12.522,vbt_B2_day3,2022.2.4,Win32,60.0276127,,,,,,down,0,6.446,,0.571296353,-0.149074088,1,0,0,0,49,49,43,1,klauw,images/br_klauw.png,images/cb_klauw.png,0,,,,,,,,,,,,,,,,,,,,,,
,,,,,00094,2023-11-01_16h28.12.522,vbt_B2_day3,2022.2.4,Win32,60.0276127,,,,,,down,0,3.4061,,0.571296353,-0.149074088,1,0,0,0,50,50,89,1,slapen,images/br_slapen.png,images/cb_slapen.png,0,,,,,,,,,,,,,,,,,,,,,,
,,,,,00094,2023-11-01_16h28.12.522,vbt_B2_day3,2022.2.4,Win32,60.0276127,,,,,,down,0,6.1127,,0.571296353,-0.149074088,1,0,0,0,51,51,147,1,komisch,images/br_komisch.png,images/cb_komisch.png,0,,,,,,,,,,,,,,,,,,,,,,
,,,,,00094,2023-11-01_16h28.12.522,vbt_B2_day3,2022.2.4,Win32,60.0276127,,,,,,down,0,1.9043,,0.571296353,-0.149074088,1,0,0,0,52,52,34,1,vorm,images/br_vorm.png,images/cb_vorm.png,0,,,,,,,,,,,,,,,,,,,,,,
,,,,,00094,2023-11-01_16h28.12.522,vbt_B2_day3,2022.2.4,Win32,60.0276127,,,,,,down,0,1.4682,,0.571296353,-0.149074088,1,0,0,0,53,53,18,1,blik,images/br_blik.png,images/cb_blik.png,0,,,,,,,,,,,,,,,,,,,,,,
,,,,,00094,2023-11-01_16h28.12.522,vbt_B2_day3,2022.2.4,Win32,60.0276127,,,,,,down,0,1.3189,,0.571296353,-0.149074088,1,0,0,0,54,54,20,1,site,images/br_site.png,images/cb_site.png,1,site,,,,,,,,,,,,,,,,,,,,,
,,,,,00094,2023-11-01_16h28.12.522,vbt_B2_day3,2022.2.4,Win32,60.0276127,,,,,,down,0,5.0735,,0.571296353,-0.149074088,1,0,0,0,55,55,53,1,baron,images/br_baron.png,images/cb_baron.png,0,,,,,,,,,,,,,,,,,,,,,,
,,,,,00094,2023-11-01_16h28.12.522,vbt_B2_day3,2022.2.4,Win32,60.0276127,,,,,,down,0,4.7268,,0.571296353,-0.149074088,1,0,0,0,56,56,90,1,geluid,images/br_geluid.png,images/cb_geluid.png,0,,,,,,,,,,,,,,,,,,,,,,
,,,,,00094,2023-11-01_16h28.12.522,vbt_B2_day3,2022.2.4,Win32,60.0276127,,,,,,down,0,4.7689,,0.571296353,-0.149074088,1,0,0,0,57,57,115,1,kleren,images/br_kleren.png,images/cb_kleren.png,0,,,,,,,,,,,,,,,,,,,,,,
,,,,,00094,2023-11-01_16h28.12.522,vbt_B2_day3,2022.2.4,Win32,60.0276127,,,,,,down,0,6.8881,,0.571296353,-0.149074088,1,0,0,0,58,58,87,1,toeval,images/br_toeval.png,images/cb_toeval.png,0,,,,,,,,,,,,,,,,,,,,,,
,,,,,00094,2023-11-01_16h28.12.522,vbt_B2_day3,2022.2.4,Win32,60.0276127,,,,,,down,0,6.7616,,0.571296353,-0.149074088,1,0,0,0,59,59,129,1,verhaal,images/br_verhaal.png,images/cb_verhaal.png,0,,,,,,,,,,,,,,,,,,,,,,
,,,,,00094,2023-11-01_16h28.12.522,vbt_B2_day3,2022.2.4,Win32,60.0276127,,,,,,down,0,1.8954,,0.571296353,-0.149074088,1,0,0,0,60,60,88,1,boeien,images/br_boeien.png,images/cb_boeien.png,0,,,,,,,,,,,,,,,,,,,,,,
,,,,,00094,2023-11-01_16h28.12.522,vbt_B2_day3,2022.2.4,Win32,60.0276127,,,,,,down,0,7.4728,,0.571296353,-0.149074088,1,0,0,0,61,61,183,1,getuigen,images/br_getuigen.png,images/cb_getuigen.png,1,getuigen,,,,,,,,,,,,,,,,,,,,,
,,,,,00094,2023-11-01_16h28.12.522,vbt_B2_day3,2022.2.4,Win32,60.0276127,,,,,,down,0,4.6652,,0.571296353,-0.149074088,1,0,0,0,62,62,133,1,seizoen,images/br_seizoen.png,images/cb_seizoen.png,0,,,,,,,,,,,,,,,,,,,,,,
,,,,,00094,2023-11-01_16h28.12.522,vbt_B2_day3,2022.2.4,Win32,60.0276127,,,,,,down,0,5.0215,,0.571296353,-0.149074088,1,0,0,0,63,63,68,1,schat,images/br_schat.png,images/cb_schat.png,0,,,,,,,,,,,,,,,,,,,,,,
,,,,,00094,2023-11-01_16h28.12.522,vbt_B2_day3,2022.2.4,Win32,60.0276127,,,,,,down,0,1.9556,,0.571296353,-0.149074088,1,0,0,0,64,64,19,1,geit,images/br_geit.png,images/cb_geit.png,0,,,,,,,,,,,,,,,,,,,,,,
,,,,,00094,2023-11-01_16h28.12.522,vbt_B2_day3,2022.2.4,Win32,60.0276127,,,,,,down,0,5.2161,,0.571296353,-0.149074088,1,0,0,0,65,65,150,1,gegeven,images/br_gegeven.png,images/cb_gegeven.png,0,,,,,,,,,,,,,,,,,,,,,,
,,,,,00094,2023-11-01_16h28.12.522,vbt_B2_day3,2022.2.4,Win32,60.0276127,,,,,,down,0,1.5863,,0.571296353,-0.149074088,1,0,0,0,66,66,78,1,leren,images/br_leren.png,images/cb_leren.png,0,,,,,,,,,,,,,,,,,,,,,,
,,,,,00094,2023-11-01_16h28.12.522,vbt_B2_day3,2022.2.4,Win32,60.0276127,,,,,,down,0,2.3704,,0.571296353,-0.149074088,1,0,0,0,67,67,30,1,uien,images/br_uien.png,images/cb_uien.png,0,,,,,,,,,,,,,,,,,,,,,,
,,,,,00094,2023-11-01_16h28.12.522,vbt_B2_day3,2022.2.4,Win32,60.0276127,,,,,,down,0,8.5941,,0.571296353,-0.149074088,1,0,0,0,68,68,106,1,zingen,images/br_zingen.png,images/cb_zingen.png,0,,,,,,,,,,,,,,,,,,,,,,
,,,,,00094,2023-11-01_16h28.12.522,vbt_B2_day3,2022.2.4,Win32,60.0276127,,,,,,down,0,0.9219,,0.571296353,-0.149074088,1,0,0,0,69,69,5,1,blad,images/br_blad.png,images/cb_blad.png,0,,,,,,,,,,,,,,,,,,,,,,
,,,,,00094,2023-11-01_16h28.12.522,vbt_B2_day3,2022.2.4,Win32,60.0276127,,,,,,down,0,6.2164,,0.571296353,-0.149074088,1,0,0,0,70,70,181,1,toegeven,images/br_toegeven.png,images/cb_toegeven.png,1,toegeven,,,,,,,,,,,,,,,,,,,,,
,,,,,00094,2023-11-01_16h28.12.522,vbt_B2_day3,2022.2.4,Win32,60.0276127,,,,,,down,0,5.8367,,0.571296353,-0.149074088,1,0,0,0,71,71,145,1,invloed,images/br_invloed.png,images/cb_invloed.png,0,,,,,,,,,,,,,,,,,,,,,,
,,,,,00094,2023-11-01_16h28.12.522,vbt_B2_day3,2022.2.4,Win32,60.0276127,,,,,,down,0,2.3357,,0.571296353,-0.149074088,1,0,0,0,72,72,186,1,voorraad,images/br_voorraad.png,images/cb_voorraad.png,0,,,,,,,,,,,,,,,,,,,,,,
,,,,,00094,2023-11-01_16h28.12.522,vbt_B2_day3,2022.2.4,Win32,60.0276127,,,,,,down,0,7.5418,,0.571296353,-0.149074088,1,0,0,0,73,73,92,1,geheim,images/br_geheim.png,images/cb_geheim.png,0,,,,,,,,,,,,,,,,,,,,,,
,,,,,00094,2023-11-01_16h28.12.522,vbt_B2_day3,2022.2.4,Win32,60.0276127,,,,,,down,0,1.5128,,0.571296353,-0.149074088,1,0,0,0,74,74,12,1,kust,images/br_kust.png,images/cb_kust.png,0,,,,,,,,,,,,,,,,,,,,,,
,,,,,00094,2023-11-01_16h28.12.522,vbt_B2_day3,2022.2.4,Win32,60.0276127,,,,,,down,0,6.8205,,0.571296353,-0.149074088,1,0,0,0,75,75,134,1,geliefd,images/br_geliefd.png,images/cb_geliefd.png,0,,,,,,,,,,,,,,,,,,,,,,
,,,,,00094,2023-11-01_16h28.12.522,vbt_B2_day3,2022.2.4,Win32,60.0276127,,,,,,down,0,3.9829,,0.571296353,-0.149074088,1,0,0,0,76,76,83,1,mening,images/br_mening.png,images/cb_mening.png,0,,,,,,,,,,,,,,,,,,,,,,
,,,,,00094,2023-11-01_16h28.12.522,vbt_B2_day3,2022.2.4,Win32,60.0276127,,,,,,down,0,3.1819,,0.571296353,-0.149074088,1,0,0,0,77,77,58,1,tekst,images/br_tekst.png,images/cb_tekst.png,0,,,,,,,,,,,,,,,,,,,,,,
,,,,,00094,2023-11-01_16h28.12.522,vbt_B2_day3,2022.2.4,Win32,60.0276127,,,,,,down,0,4.5309,,0.571296353,-0.149074088,1,0,0,0,78,78,125,1,aanzien,images/br_aanzien.png,images/cb_aanzien.png,0,,,,,,,,,,,,,,,,,,,,,,
,,,,,00094,2023-11-01_16h28.12.522,vbt_B2_day3,2022.2.4,Win32,60.0276127,,,,,,down,0,1.0669,,0.571296353,-0.149074088,1,0,0,0,79,79,71,1,bever,images/br_bever.png,images/cb_bever.png,0,,,,,,,,,,,,,,,,,,,,,,
,,,,,00094,2023-11-01_16h28.12.522,vbt_B2_day3,2022.2.4,Win32,60.0276127,,,,,,down,0,3.7738,,0.571296353,-0.149074088,1,0,0,0,80,80,66,1,lever,images/br_lever.png,images/cb_lever.png,0,,,,,,,,,,,,,,,,,,,,,,
,,,,,00094,2023-11-01_16h28.12.522,vbt_B2_day3,2022.2.4,Win32,60.0276127,,,,,,down,0,6.0281,,0.571296353,-0.149074088,1,0,0,0,81,81,105,1,wijlen,images/br_wijlen.png,images/cb_wijlen.png,0,,,,,,,,,,,,,,,,,,,,,,
,,,,,00094,2023-11-01_16h28.12.522,vbt_B2_day3,2022.2.4,Win32,60.0276127,,,,,,down,0,2.0159,,0.571296353,-0.149074088,1,0,0,0,82,82,195,1,middelen,images/br_middelen.png,images/cb_middelen.png,0,,,,,,,,,,,,,,,,,,,,,,
,,,,,00094,2023-11-01_16h28.12.522,vbt_B2_day3,2022.2.4,Win32,60.0276127,,,,,,down,0,4.5745,,0.571296353,-0.149074088,1,0,0,0,83,83,154,1,aflopen,images/br_aflopen.png,images/cb_aflopen.png,0,,,,,,,,,,,,,,,,,,,,,,
,,,,,00094,2023-11-01_16h28.12.522,vbt_B2_day3,2022.2.4,Win32,60.0276127,,,,,,down,0,2.2556,,0.571296353,-0.149074088,1,0,0,0,84,84,10,1,leek,images/br_leek.png,images/cb_leek.png,0,,,,,,,,,,,,,,,,,,,,,,
,,,,,00094,2023-11-01_16h28.12.522,vbt_B2_day3,2022.2.4,Win32,60.0276127,,,,,,down,0,3.301,,0.571296353,-0.149074088,1,0,0,0,85,85,45,1,piste,images/br_piste.png,images/cb_piste.png,0,,,,,,,,,,,,,,,,,,,,,,
,,,,,00094,2023-11-01_16h28.12.522,vbt_B2_day3,2022.2.4,Win32,60.0276127,,,,,,down,0,2.5161,,0.571296353,-0.149074088,1,0,0,0,86,86,52,1,wagon,images/br_wagon.png,images/cb_wagon.png,0,,,,,,,,,,,,,,,,,,,,,,
,,,,,00094,2023-11-01_16h28.12.522,vbt_B2_day3,2022.2.4,Win32,60.0276127,,,,,,down,0,1.3509,,0.571296353,-0.149074088,1,0,0,0,87,87,110,1,zuster,images/br_zuster.png,images/cb_zuster.png,0,,,,,,,,,,,,,,,,,,,,,,
,,,,,00094,2023-11-01_16h28.12.522,vbt_B2_day3,2022.2.4,Win32,60.0276127,,,,,,down,0,6.4367,,0.571296353,-0.149074088,1,0,0,0,88,88,138,1,akkoord,images/br_akkoord.png,images/cb_akkoord.png,0,,,,,,,,,,,,,,,,,,,,,,
,,,,,00094,2023-11-01_16h28.12.522,vbt_B2_day3,2022.2.4,Win32,60.0276127,,,,,,down,0,7.759,,0.571296353,-0.149074088,1,0,0,0,89,89,165,1,feestdag,images/br_feestdag.png,images/cb_feestdag.png,0,,,,,,,,,,,,,,,,,,,,,,
,,,,,00094,2023-11-01_16h28.12.522,vbt_B2_day3,2022.2.4,Win32,60.0276127,,,,,,down,0,2.0144,,0.571296353,-0.149074088,1,0,0,0,90,90,174,1,stemming,images/br_stemming.png,images/cb_stemming.png,0,,,,,,,,,,,,,,,,,,,,,,
,,,,,00094,2023-11-01_16h28.12.522,vbt_B2_day3,2022.2.4,Win32,60.0276127,,,,,,down,0,9.0312,,0.571296353,-0.149074088,1,0,0,0,91,91,156,1,rechten,images/br_rechten.png,images/cb_rechten.png,0,,,,,,,,,,,,,,,,,,,,,,
,,,,,00094,2023-11-01_16h28.12.522,vbt_B2_day3,2022.2.4,Win32,60.0276127,,,,,,down,0,0.6519,,0.571296353,-0.149074088,1,0,0,0,92,92,51,1,samen,images/br_samen.png,images/cb_samen.png,0,,,,,,,,,,,,,,,,,,,,,,
,,,,,00094,2023-11-01_16h28.12.522,vbt_B2_day3,2022.2.4,Win32,60.0276127,,,,,,down,0,6.5799,,0.571296353,-0.149074088,1,0,0,0,93,93,140,1,blijven,images/br_blijven.png,images/cb_blijven.png,1,blihven,,,,,,,,,,,,,,,,,,,,,
,,,,,00094,2023-11-01_16h28.12.522,vbt_B2_day3,2022.2.4,Win32,60.0276127,,,,,,down,0,4.4579,,0.571296353,-0.149074088,1,0,0,0,94,94,48,1,steel,images/br_steel.png,images/cb_steel.png,0,,,,,,,,,,,,,,,,,,,,,,
,,,,,00094,2023-11-01_16h28.12.522,vbt_B2_day3,2022.2.4,Win32,60.0276127,,,,,,down,0,29.1801,,0.571296353,-0.149074088,1,0,0,0,95,95,111,1,ticket,images/br_ticket.png,images/cb_ticket.png,0,,,,,,,,,,,,,,,,,,,,,,
,,,,,00094,2023-11-01_16h28.12.522,vbt_B2_day3,2022.2.4,Win32,60.0276127,,,,,,down,0,3.5262,,0.571296353,-0.149074088,1,0,0,0,96,96,23,1,zout,images/br_zout.png,images/cb_zout.png,1,zout,,,,,,,,,,,,,,,,,,,,,
,,,,,00094,2023-11-01_16h28.12.522,vbt_B2_day3,2022.2.4,Win32,60.0276127,,,,,,down,0,0.9532,,0.571296353,-0.149074088,1,0,0,0,97,97,8,1,knie,images/br_knie.png,images/cb_knie.png,0,,,,,,,,,,,,,,,,,,,,,,
,,,,,00094,2023-11-01_16h28.12.522,vbt_B2_day3,2022.2.4,Win32,60.0276127,,,,,,down,0,2.2986,,0.571296353,-0.149074088,1,0,0,0,98,98,77,1,woede,images/br_woede.png,images/cb_woede.png,0,,,,,,,,,,,,,,,,,,,,,,
,,,,,00094,2023-11-01_16h28.12.522,vbt_B2_day3,2022.2.4,Win32,60.0276127,,,,,,down,0,3.4338,,0.571296353,-0.149074088,1,0,0,0,99,99,36,1,vuur,images/br_vuur.png,images/cb_vuur.png,0,,,,,,,,,,,,,,,,,,,,,,
,,,,,00094,2023-11-01_16h28.12.522,vbt_B2_day3,2022.2.4,Win32,60.0276127,,,,,,down,0,3.6288,,0.571296353,-0.149074088,1,0,0,0,100,100,114,1,vullen,images/br_vullen.png,images/cb_vullen.png,0,,,,,,,,,,,,,,,,,,,,,,
,,,,,00094,2023-11-01_16h28.12.522,vbt_B2_day3,2022.2.4,Win32,60.0276127,,,,,,down,0,3.4408,,0.571296353,-0.149074088,1,0,0,0,101,101,172,1,weigeren,images/br_weigeren.png,images/cb_weigeren.png,0,,,,,,,,,,,,,,,,,,,,,,
,,,,,00094,2023-11-01_16h28.12.522,vbt_B2_day3,2022.2.4,Win32,60.0276127,,,,,,down,0,8.937,,0.571296353,-0.149074088,1,0,0,0,102,102,103,1,joggen,images/br_joggen.png,images/cb_joggen.png,1,joggen,,,,,,,,,,,,,,,,,,,,,
,,,,,00094,2023-11-01_16h28.12.522,vbt_B2_day3,2022.2.4,Win32,60.0276127,,,,,,down,0,2.8156,,0.571296353,-0.149074088,1,0,0,0,103,103,122,1,waarvan,images/br_waarvan.png,images/cb_waarvan.png,0,,,,,,,,,,,,,,,,,,,,,,
,,,,,00094,2023-11-01_16h28.12.522,vbt_B2_day3,2022.2.4,Win32,60.0276127,,,,,,down,0,1.1689,,0.571296353,-0.149074088,1,0,0,0,104,104,75,1,snoep,images/br_snoep.png,images/cb_snoep.png,0,,,,,,,,,,,,,,,,,,,,,,
,,,,,00094,2023-11-01_16h28.12.522,vbt_B2_day3,2022.2.4,Win32,60.0276127,,,,,,down,0,8.3414,,0.571296353,-0.149074088,1,0,0,0,105,105,196,1,nakijken,images/br_nakijken.png,images/cb_nakijken.png,0,,,,,,,,,,,,,,,,,,,,,,
,,,,,00094,2023-11-01_16h28.12.522,vbt_B2_day3,2022.2.4,Win32,60.0276127,,,,,,down,0,12.1826,,0.571296353,-0.149074088,1,0,0,0,106,106,190,1,goedkoop,images/br_goedkoop.png,images/cb_goedkoop.png,0,,,,,,,,,,,,,,,,,,,,,,
,,,,,00094,2023-11-01_16h28.12.522,vbt_B2_day3,2022.2.4,Win32,60.0276127,,,,,,down,0,2.1381,,0.571296353,-0.149074088,1,0,0,0,107,107,169,1,oprotten,images/br_oprotten.png,images/cb_oprotten.png,0,,,,,,,,,,,,,,,,,,,,,,
,,,,,00094,2023-11-01_16h28.12.522,vbt_B2_day3,2022.2.4,Win32,60.0276127,,,,,,down,0,3.4246,,0.571296353,-0.149074088,1,0,0,0,108,108,15,1,soda,images/br_soda.png,images/cb_soda.png,0,,,,,,,,,,,,,,,,,,,,,,
,,,,,00094,2023-11-01_16h28.12.522,vbt_B2_day3,2022.2.4,Win32,60.0276127,,,,,,down,0,8.3138,,0.571296353,-0.149074088,1,0,0,0,109,109,94,1,oceaan,images/br_oceaan.png,images/cb_oceaan.png,0,,,,,,,,,,,,,,,,,,,,,,
,,,,,00094,2023-11-01_16h28.12.522,vbt_B2_day3,2022.2.4,Win32,60.0276127,,,,,,down,0,1.4962,,0.571296353,-0.149074088,1,0,0,0,110,110,40,1,schep,images/br_schep.png,images/cb_schep.png,0,,,,,,,,,,,,,,,,,,,,,,
,,,,,00094,2023-11-01_16h28.12.522,vbt_B2_day3,2022.2.4,Win32,60.0276127,,,,,,down,0,1.6042,,0.571296353,-0.149074088,1,0,0,0,111,111,74,1,graaf,images/br_graaf.png,images/cb_graaf.png,0,,,,,,,,,,,,,,,,,,,,,,
,,,,,00094,2023-11-01_16h28.12.522,vbt_B2_day3,2022.2.4,Win32,60.0276127,,,,,,down,0,2.2051,,0.571296353,-0.149074088,1,0,0,0,112,112,163,1,schuilen,images/br_schuilen.png,images/cb_schuilen.png,0,,,,,,,,,,,,,,,,,,,,,,
,,,,,00094,2023-11-01_16h28.12.522,vbt_B2_day3,2022.2.4,Win32,60.0276127,,,,,,down,0,14.7254,,0.571296353,-0.149074088,1,0,0,0,113,113,60,1,jasje,images/br_jasje.png,images/cb_jasje.png,1,jasje,,,,,,,,,,,,,,,,,,,,,
,,,,,00094,2023-11-01_16h28.12.522,vbt_B2_day3,2022.2.4,Win32,60.0276127,,,,,,down,0,1.7824,,0.571296353,-0.149074088,1,0,0,0,114,114,86,1,woning,images/br_woning.png,images/cb_woning.png,0,,,,,,,,,,,,,,,,,,,,,,
,,,,,00094,2023-11-01_16h28.12.522,vbt_B2_day3,2022.2.4,Win32,60.0276127,,,,,,down,0,8.6277,,0.571296353,-0.149074088,1,0,0,0,115,115,67,1,zwart,images/br_zwart.png,images/cb_zwart.png,0,,,,,,,,,,,,,,,,,,,,,,
,,,,,00094,2023-11-01_16h28.12.522,vbt_B2_day3,2022.2.4,Win32,60.0276127,,,,,,down,0,3.4903,,0.571296353,-0.149074088,1,0,0,0,116,116,101,1,staren,images/br_staren.png,images/cb_staren.png,1,staren,,,,,,,,,,,,,,,,,,,,,
,,,,,00094,2023-11-01_16h28.12.522,vbt_B2_day3,2022.2.4,Win32,60.0276127,,,,,,down,0,4.8992,,0.571296353,-0.149074088,1,0,0,0,117,117,135,1,gedicht,images/br_gedicht.png,images/cb_gedicht.png,0,,,,,,,,,,,,,,,,,,,,,,
,,,,,00094,2023-11-01_16h28.12.522,vbt_B2_day3,2022.2.4,Win32,60.0276127,,,,,,down,0,13.2835,,0.571296353,-0.149074088,1,0,0,0,118,118,198,1,bedoelen,images/br_bedoelen.png,images/cb_bedoelen.png,0,,,,,,,,,,,,,,,,,,,,,,
,,,,,00094,2023-11-01_16h28.12.522,vbt_B2_day3,2022.2.4,Win32,60.0276127,,,,,,down,0,3.4922,,0.571296353,-0.149074088,1,0,0,0,119,119,192,1,schaamte,images/br_schaamte.png,images/cb_schaamte.png,0,,,,,,,,,,,,,,,,,,,,,,
,,,,,00094,2023-11-01_16h28.12.522,vbt_B2_day3,2022.2.4,Win32,60.0276127,,,,,,down,0,6.2821,,0.571296353,-0.149074088,1,0,0,0,120,120,107,1,maling,images/br_maling.png,images/cb_maling.png,0,,,,,,,,,,,,,,,,,,,,,,
,,,,,00094,2023-11-01_16h28.12.522,vbt_B2_day3,2022.2.4,Win32,60.0276127,,,,,,down,0,0.7777,,0.571296353,-0.149074088,1,0,0,0,121,121,120,1,klimmen,images/br_klimmen.png,images/cb_klimmen.png,0,,,,,,,,,,,,,,,,,,,,,,
,,,,,00094,2023-11-01_16h28.12.522,vbt_B2_day3,2022.2.4,Win32,60.0276127,,,,,,down,0,10.1718,,0.571296353,-0.149074088,1,0,0,0,122,122,9,1,hier,images/br_hier.png,images/cb_hier.png,0,,,,,,,,,,,,,,,,,,,,,,
,,,,,00094,2023-11-01_16h28.12.522,vbt_B2_day3,2022.2.4,Win32,60.0276127,,,,,,down,0,10.008,,0.571296353,-0.149074088,1,0,0,0,123,123,180,1,openbaar,images/br_openbaar.png,images/cb_openbaar.png,1,openbaar,,,,,,,,,,,,,,,,,,,,,
,,,,,00094,2023-11-01_16h28.12.522,vbt_B2_day3,2022.2.4,Win32,60.0276127,,,,,,down,0,8.6637,,0.571296353,-0.149074088,1,0,0,0,124,124,153,1,vervoer,images/br_vervoer.png,images/cb_vervoer.png,0,,,,,,,,,,,,,,,,,,,,,,
,,,,,00094,2023-11-01_16h28.12.522,vbt_B2_day3,2022.2.4,Win32,60.0276127,,,,,,down,0,9.5685,,0.571296353,-0.149074088,1,0,0,0,125,125,24,1,jurk,images/br_jurk.png,images/cb_jurk.png,0,,,,,,,,,,,,,,,,,,,,,,
,,,,,00094,2023-11-01_16h28.12.522,vbt_B2_day3,2022.2.4,Win32,60.0276127,,,,,,down,0,0.9045,,0.571296353,-0.149074088,1,0,0,0,126,126,32,1,palm,images/br_palm.png,images/cb_palm.png,0,,,,,,,,,,,,,,,,,,,,,,
,,,,,00094,2023-11-01_16h28.12.522,vbt_B2_day3,2022.2.4,Win32,60.0276127,,,,,,down,0,3.0594,,0.571296353,-0.149074088,1,0,0,0,127,127,119,1,liefje,images/br_liefje.png,images/cb_liefje.png,0,,,,,,,,,,,,,,,,,,,,,,
,,,,,00094,2023-11-01_16h28.12.522,vbt_B2_day3,2022.2.4,Win32,60.0276127,,,,,,down,0,5.6179,,0.571296353,-0.149074088,1,0,0,0,128,128,197,1,spanning,images/br_spanning.png,images/cb_spanning.png,0,,,,,,,,,,,,,,,,,,,,,,
,,,,,00094,2023-11-01_16h28.12.522,vbt_B2_day3,2022.2.4,Win32,60.0276127,,,,,,down,0,4.9121,,0.571296353,-0.149074088,1,0,0,0,129,129,158,1,innemen,images/br_innemen.png,images/cb_innemen.png,0,,,,,,,,,,,,,,,,,,,,,,
,,,,,00094,2023-11-01_16h28.12.522,vbt_B2_day3,2022.2.4,Win32,60.0276127,,,,,,down,0,5.4413,,0.571296353,-0.149074088,1,0,0,0,130,130,108,1,excuus,images/br_excuus.png,images/cb_excuus.png,0,,,,,,,,,,,,,,,,,,,,,,
,,,,,00094,2023-11-01_16h28.12.522,vbt_B2_day3,2022.2.4,Win32,60.0276127,,,,,,down,0,5.1929,,0.571296353,-0.149074088,1,0,0,0,131,131,167,1,eenhoorn,images/br_eenhoorn.png,images/cb_eenhoorn.png,0,,,,,,,,,,,,,,,,,,,,,,
,,,,,00094,2023-11-01_16h28.12.522,vbt_B2_day3,2022.2.4,Win32,60.0276127,,,,,,down,0,3.6855,,0.571296353,-0.149074088,1,0,0,0,132,132,137,1,trekker,images/br_trekker.png,images/cb_trekker.png,0,,,,,,,,,,,,,,,,,,,,,,
,,,,,00094,2023-11-01_16h28.12.522,vbt_B2_day3,2022.2.4,Win32,60.0276127,,,,,,down,0,0.0787,,0.571296353,-0.149074088,1,0,0,0,133,133,55,1,praat,images/br_praat.png,images/cb_praat.png,0,,,,,,,,,,,,,,,,,,,,,,
,,,,,00094,2023-11-01_16h28.12.522,vbt_B2_day3,2022.2.4,Win32,60.0276127,,,,,,down,0,4.5323,,0.571296353,-0.149074088,1,0,0,0,134,134,63,1,flirt,images/br_flirt.png,images/cb_flirt.png,1,flirt,,,,,,,,,,,,,,,,,,,,,
,,,,,00094,2023-11-01_16h28.12.522,vbt_B2_day3,2022.2.4,Win32,60.0276127,,,,,,down,0,17.5475,,0.571296353,-0.149074088,1,0,0,0,135,135,100,1,geduld,images/br_geduld.png,images/cb_geduld.png,1,geduld,,,,,,,,,,,,,,,,,,,,,
,,,,,00094,2023-11-01_16h28.12.522,vbt_B2_day3,2022.2.4,Win32,60.0276127,,,,,,down,0,13.2476,,0.571296353,-0.149074088,1,0,0,0,136,136,162,1,uitdelen,images/br_uitdelen.png,images/cb_uitdelen.png,0,,,,,,,,,,,,,,,,,,,,,,
,,,,,00094,2023-11-01_16h28.12.522,vbt_B2_day3,2022.2.4,Win32,60.0276127,,,,,,down,0,0.0417,,0.571296353,-0.149074088,1,0,0,0,137,137,28,1,stal,images/br_stal.png,images/cb_stal.png,0,,,,,,,,,,,,,,,,,,,,,,
,,,,,00094,2023-11-01_16h28.12.522,vbt_B2_day3,2022.2.4,Win32,60.0276127,,,,,,down,0,2.5586,,0.571296353,-0.149074088,1,0,0,0,138,138,47,1,kabel,images/br_kabel.png,images/cb_kabel.png,0,,,,,,,,,,,,,,,,,,,,,,
,,,,,00094,2023-11-01_16h28.12.522,vbt_B2_day3,2022.2.4,Win32,60.0276127,,,,,,down,0,2.6932,,0.571296353,-0.149074088,1,0,0,0,139,139,184,1,aandelen,images/br_aandelen.png,images/cb_aandelen.png,0,,,,,,,,,,,,,,,,,,,,,,
,,,,,00094,2023-11-01_16h28.12.522,vbt_B2_day3,2022.2.4,Win32,60.0276127,,,,,,down,0,8.7634,,0.571296353,-0.149074088,1,0,0,0,140,140,187,1,opkijken,images/br_opkijken.png,images/cb_opkijken.png,0,,,,,,,,,,,,,,,,,,,,,,
,,,,,00094,2023-11-01_16h28.12.522,vbt_B2_day3,2022.2.4,Win32,60.0276127,,,,,,down,0,5.9649,,0.571296353,-0.149074088,1,0,0,0,141,141,160,1,daarheen,images/br_daarheen.png,images/cb_daarheen.png,0,,,,,,,,,,,,,,,,,,,,,,
,,,,,00094,2023-11-01_16h28.12.522,vbt_B2_day3,2022.2.4,Win32,60.0276127,,,,,,down,0,0.8049,,0.571296353,-0.149074088,1,0,0,0,142,142,38,1,baai,images/br_baai.png,images/cb_baai.png,0,,,,,,,,,,,,,,,,,,,,,,
,,,,,00094,2023-11-01_16h28.12.522,vbt_B2_day3,2022.2.4,Win32,60.0276127,,,,,,down,0,1.3695,,0.571296353,-0.149074088,1,0,0,0,143,143,29,1,baas,images/br_baas.png,images/cb_baas.png,0,,,,,,,,,,,,,,,,,,,,,,
,,,,,00094,2023-11-01_16h28.12.522,vbt_B2_day3,2022.2.4,Win32,60.0276127,,,,,,down,0,9.0236,,0.571296353,-0.149074088,1,0,0,0,144,144,173,1,apparaat,images/br_apparaat.png,images/cb_apparaat.png,0,,,,,,,,,,,,,,,,,,,,,,
,,,,,00094,2023-11-01_16h28.12.522,vbt_B2_day3,2022.2.4,Win32,60.0276127,,,,,,down,0,3.4936,,0.571296353,-0.149074088,1,0,0,0,145,145,54,1,gebit,images/br_gebit.png,images/cb_gebit.png,0,,,,,,,,,,,,,,,,,,,,,,
,,,,,00094,2023-11-01_16h28.12.522,vbt_B2_day3,2022.2.4,Win32,60.0276127,,,,,,down,0,2.3837,,0.571296353,-0.149074088,1,0,0,0,146,146,11,1,mode,images/br_mode.png,images/cb_mode.png,0,,,,,,,,,,,,,,,,,,,,,,
,,,,,00094,2023-11-01_16h28.12.522,vbt_B2_day3,2022.2.4,Win32,60.0276127,,,,,,down,0,6.1611,,0.571296353,-0.149074088,1,0,0,0,147,147,85,1,heilig,images/br_heilig.png,images/cb_heilig.png,0,,,,,,,,,,,,,,,,,,,,,,
,,,,,00094,2023-11-01_16h28.12.522,vbt_B2_day3,2022.2.4,Win32,60.0276127,,,,,,down,0,2.2199,,0.571296353,-0.149074088,1,0,0,0,148,148,98,1,kreeft,images/br_kreeft.png,images/cb_kreeft.png,0,,,,,,,,,,,,,,,,,,,,,,
,,,,,00094,2023-11-01_16h28.12.522,vbt_B2_day3,2022.2.4,Win32,60.0276127,,,,,,down,0,1.0914,,0.571296353,-0.149074088,1,0,0,0,149,149,4,1,moes,images/br_moes.png,images/cb_moes.png,0,,,,,,,,,,,,,,,,,,,,,,
,,,,,00094,2023-11-01_16h28.12.522,vbt_B2_day3,2022.2.4,Win32,60.0276127,,,,,,down,0,1.1288,,0.571296353,-0.149074088,1,0,0,0,150,150,41,1,maken,images/br_maken.png,images/cb_maken.png,0,,,,,,,,,,,,,,,,,,,,,,
,,,,,00094,2023-11-01_16h28.12.522,vbt_B2_day3,2022.2.4,Win32,60.0276127,,,,,,down,0,0.3973,,0.571296353,-0.149074088,1,0,0,0,151,151,64,1,wegen,images/br_wegen.png,images/cb_wegen.png,0,,,,,,,,,,,,,,,,,,,,,,
,,,,,00094,2023-11-01_16h28.12.522,vbt_B2_day3,2022.2.4,Win32,60.0276127,,,,,,down,0,7.0197,,0.571296353,-0.149074088,1,0,0,0,152,152,166,1,strikken,images/br_strikken.png,images/cb_strikken.png,0,,,,,,,,,,,,,,,,,,,,,,
,,,,,00094,2023-11-01_16h28.12.522,vbt_B2_day3,2022.2.4,Win32,60.0276127,,,,,,down,0,3.4997,,0.571296353,-0.149074088,1,0,0,0,153,153,95,1,vreten,images/br_vreten.png,images/cb_vreten.png,0,,,,,,,,,,,,,,,,,,,,,,
,,,,,00094,2023-11-01_16h28.12.522,vbt_B2_day3,2022.2.4,Win32,60.0276127,,,,,,down,0,5.3869,,0.571296353,-0.149074088,1,0,0,0,154,154,141,1,knielen,images/br_knielen.png,images/cb_knielen.png,1,knielen,,,,,,,,,,,,,,,,,,,,,
,,,,,00094,2023-11-01_16h28.12.522,vbt_B2_day3,2022.2.4,Win32,60.0276127,,,,,,down,0,14.5767,,0.571296353,-0.149074088,1,0,0,0,155,155,130,1,keihard,images/br_keihard.png,images/cb_keihard.png,0,,,,,,,,,,,,,,,,,,,,,,
,,,,,00094,2023-11-01_16h28.12.522,vbt_B2_day3,2022.2.4,Win32,60.0276127,,,,,,down,0,4.9601,,0.571296353,-0.149074088,1,0,0,0,156,156,157,1,uitlaat,images/br_uitlaat.png,images/cb_uitlaat.png,0,,,,,,,,,,,,,,,,,,,,,,
,,,,,00094,2023-11-01_16h28.12.522,vbt_B2_day3,2022.2.4,Win32,60.0276127,,,,,,down,0,0.567,,0.571296353,-0.149074088,1,0,0,0,157,157,7,1,geld,images/br_geld.png,images/cb_geld.png,0,,,,,,,,,,,,,,,,,,,,,,
,,,,,00094,2023-11-01_16h28.12.522,vbt_B2_day3,2022.2.4,Win32,60.0276127,,,,,,down,0,6.3762,,0.571296353,-0.149074088,1,0,0,0,158,158,144,1,eetlust,images/br_eetlust.png,images/cb_eetlust.png,0,,,,,,,,,,,,,,,,,,,,,,
,,,,,00094,2023-11-01_16h28.12.522,vbt_B2_day3,2022.2.4,Win32,60.0276127,,,,,,down,0,2.8331,,0.571296353,-0.149074088,1,0,0,0,159,159,155,1,gerucht,images/br_gerucht.png,images/cb_gerucht.png,0,,,,,,,,,,,,,,,,,,,,,,
,,,,,00094,2023-11-01_16h28.12.522,vbt_B2_day3,2022.2.4,Win32,60.0276127,,,,,,down,0,6.1069,,0.571296353,-0.149074088,1,0,0,0,160,160,117,1,kennis,images/br_kennis.png,images/cb_kennis.png,0,,,,,,,,,,,,,,,,,,,,,,
,,,,,00094,2023-11-01_16h28.12.522,vbt_B2_day3,2022.2.4,Win32,60.0276127,,,,,,down,0,6.4167,,0.571296353,-0.149074088,1,0,0,0,161,161,65,1,parel,images/br_parel.png,images/cb_parel.png,0,,,,,,,,,,,,,,,,,,,,,,
,,,,,00094,2023-11-01_16h28.12.522,vbt_B2_day3,2022.2.4,Win32,60.0276127,,,,,,down,0,3.725,,0.571296353,-0.149074088,1,0,0,0,162,162,57,1,steek,images/br_steek.png,images/cb_steek.png,0,,,,,,,,,,,,,,,,,,,,,,
,,,,,00094,2023-11-01_16h28.12.522,vbt_B2_day3,2022.2.4,Win32,60.0276127,,,,,,down,0,1.5856,,0.571296353,-0.149074088,1,0,0,0,163,163,0,1,slak,images/br_slak.png,images/cb_slak.png,0,,,,,,,,,,,,,,,,,,,,,,
,,,,,00094,2023-11-01_16h28.12.522,vbt_B2_day3,2022.2.4,Win32,60.0276127,,,,,,down,0,2.0663,,0.571296353,-0.149074088,1,0,0,0,164,164,127,1,doodmoe,images/br_doodmoe.png,images/cb_doodmoe.png,0,,,,,,,,,,,,,,,,,,,,,,
,,,,,00094,2023-11-01_16h28.12.522,vbt_B2_day3,2022.2.4,Win32,60.0276127,,,,,,down,0,8.1115,,0.571296353,-0.149074088,1,0,0,0,165,165,56,1,traag,images/br_traag.png,images/cb_traag.png,0,,,,,,,,,,,,,,,,,,,,,,
,,,,,00094,2023-11-01_16h28.12.522,vbt_B2_day3,2022.2.4,Win32,60.0276127,,,,,,down,0,4.6958,,0.571296353,-0.149074088,1,0,0,0,166,166,191,1,opheffen,images/br_opheffen.png,images/cb_opheffen.png,0,,,,,,,,,,,,,,,,,,,,,,
,,,,,00094,2023-11-01_16h28.12.522,vbt_B2_day3,2022.2.4,Win32,60.0276127,,,,,,down,0,0.8505,,0.571296353,-0.149074088,1,0,0,0,167,167,132,1,grappen,images/br_grappen.png,images/cb_grappen.png,0,,,,,,,,,,,,,,,,,,,,,,
,,,,,00094,2023-11-01_16h28.12.522,vbt_B2_day3,2022.2.4,Win32,60.0276127,,,,,,down,0,1.902,,0.571296353,-0.149074088,1,0,0,0,168,168,21,1,mist,images/br_mist.png,images/cb_mist.png,1,mist,,,,,,,,,,,,,,,,,,,,,
,,,,,00094,2023-11-01_16h28.12.522,vbt_B2_day3,2022.2.4,Win32,60.0276127,,,,,,down,0,5.9101,,0.571296353,-0.149074088,1,0,0,0,169,169,151,1,aanzoek,images/br_aanzoek.png,images/cb_aanzoek.png,0,,,,,,,,,,,,,,,,,,,,,,
,,,,,00094,2023-11-01_16h28.12.522,vbt_B2_day3,2022.2.4,Win32,60.0276127,,,,,,down,0,1.55,,0.571296353,-0.149074088,1,0,0,0,170,170,126,1,kasteel,images/br_kasteel.png,images/cb_kasteel.png,0,,,,,,,,,,,,,,,,,,,,,,
,,,,,00094,2023-11-01_16h28.12.522,vbt_B2_day3,2022.2.4,Win32,60.0276127,,,,,,down,0,5.467,,0.571296353,-0.149074088,1,0,0,0,171,171,194,1,driemaal,images/br_driemaal.png,images/cb_driemaal.png,0,,,,,,,,,,,,,,,,,,,,,,
,,,,,00094,2023-11-01_16h28.12.522,vbt_B2_day3,2022.2.4,Win32,60.0276127,,,,,,down,0,5.7481,,0.571296353,-0.149074088,1,0,0,0,172,172,171,1,aarzelen,images/br_aarzelen.png,images/cb_aarzelen.png,0,,,,,,,,,,,,,,,,,,,,,,
,,,,,00094,2023-11-01_16h28.12.522,vbt_B2_day3,2022.2.4,Win32,60.0276127,,,,,,down,0,3.6501,,0.571296353,-0.149074088,1,0,0,0,173,173,69,1,waken,images/br_waken.png,images/cb_waken.png,0,,,,,,,,,,,,,,,,,,,,,,
,,,,,00094,2023-11-01_16h28.12.522,vbt_B2_day3,2022.2.4,Win32,60.0276127,,,,,,down,0,0.9167,,0.571296353,-0.149074088,1,0,0,0,174,174,31,1,poes,images/br_poes.png,images/cb_poes.png,0,,,,,,,,,,,,,,,,,,,,,,
,,,,,00094,2023-11-01_16h28.12.522,vbt_B2_day3,2022.2.4,Win32,60.0276127,,,,,,down,0,7.7201,,0.571296353,-0.149074088,1,0,0,0,175,175,121,1,twijfel,images/br_twijfel.png,images/cb_twijfel.png,0,,,,,,,,,,,,,,,,,,,,,,
,,,,,00094,2023-11-01_16h28.12.522,vbt_B2_day3,2022.2.4,Win32,60.0276127,,,,,,down,0,3.9471,,0.571296353,-0.149074088,1,0,0,0,176,176,37,1,mijn,images/br_mijn.png,images/cb_mijn.png,0,,,,,,,,,,,,,,,,,,,,,,
,,,,,00094,2023-11-01_16h28.12.522,vbt_B2_day3,2022.2.4,Win32,60.0276127,,,,,,down,0,1.1568,,0.571296353,-0.149074088,1,0,0,0,177,177,96,1,slagen,images/br_slagen.png,images/cb_slagen.png,0,,,,,,,,,,,,,,,,,,,,,,
,,,,,00094,2023-11-01_16h28.12.522,vbt_B2_day3,2022.2.4,Win32,60.0276127,,,,,,down,0,3.7947,,0.571296353,-0.149074088,1,0,0,0,178,178,61,1,groen,images/br_groen.png,images/cb_groen.png,1,groen,,,,,,,,,,,,,,,,,,,,,
,,,,,00094,2023-11-01_16h28.12.522,vbt_B2_day3,2022.2.4,Win32,60.0276127,,,,,,down,0,2.0541,,0.571296353,-0.149074088,1,0,0,0,179,179,128,1,prikken,images/br_prikken.png,images/cb_prikken.png,0,,,,,,,,,,,,,,,,,,,,,,
,,,,,00094,2023-11-01_16h28.12.522,vbt_B2_day3,2022.2.4,Win32,60.0276127,,,,,,down,0,4.0503,,0.571296353,-0.149074088,1,0,0,0,180,180,59,1,kring,images/br_kring.png,images/cb_kring.png,0,,,,,,,,,,,,,,,,,,,,,,
,,,,,00094,2023-11-01_16h28.12.522,vbt_B2_day3,2022.2.4,Win32,60.0276127,,,,,,down,0,1.9005,,0.571296353,-0.149074088,1,0,0,0,181,181,179,1,woestijn,images/br_woestijn.png,images/cb_woestijn.png,0,,,,,,,,,,,,,,,,,,,,,,
,,,,,00094,2023-11-01_16h28.12.522,vbt_B2_day3,2022.2.4,Win32,60.0276127,,,,,,down,0,1.4757,,0.571296353,-0.149074088,1,0,0,0,182,182,84,1,lokken,images/br_lokken.png,images/cb_lokken.png,0,,,,,,,,,,,,,,,,,,,,,,
,,,,,00094,2023-11-01_16h28.12.522,vbt_B2_day3,2022.2.4,Win32,60.0276127,,,,,,down,0,3.4364,,0.571296353,-0.149074088,1,0,0,0,183,183,27,1,dans,images/br_dans.png,images/cb_dans.png,0,,,,,,,,,,,,,,,,,,,,,,
,,,,,00094,2023-11-01_16h28.12.522,vbt_B2_day3,2022.2.4,Win32,60.0276127,,,,,,down,0,4.9637,,0.571296353,-0.149074088,1,0,0,0,184,184,136,1,waarbij,images/br_waarbij.png,images/cb_waarbij.png,0,,,,,,,,,,,,,,,,,,,,,,
,,,,,00094,2023-11-01_16h28.12.522,vbt_B2_day3,2022.2.4,Win32,60.0276127,,,,,,down,0,1.0033,,0.571296353,-0.149074088,1,0,0,0,185,185,148,1,smullen,images/br_smullen.png,images/cb_smullen.png,0,,,,,,,,,,,,,,,,,,,,,,
,,,,,00094,2023-11-01_16h28.12.522,vbt_B2_day3,2022.2.4,Win32,60.0276127,,,,,,down,0,4.878,,0.571296353,-0.149074088,1,0,0,0,186,186,116,1,besmet,images/br_besmet.png,images/cb_besmet.png,0,,,,,,,,,,,,,,,,,,,,,,
,,,,,00094,2023-11-01_16h28.12.522,vbt_B2_day3,2022.2.4,Win32,60.0276127,,,,,,down,0,2.3732,,0.571296353,-0.149074088,1,0,0,0,187,187,6,1,diep,images/br_diep.png,images/cb_diep.png,0,,,,,,,,,,,,,,,,,,,,,,
,,,,,00094,2023-11-01_16h28.12.522,vbt_B2_day3,2022.2.4,Win32,60.0276127,,,,,,down,0,1.0532,,0.571296353,-0.149074088,1,0,0,0,188,188,82,1,muziek,images/br_muziek.png,images/cb_muziek.png,0,,,,,,,,,,,,,,,,,,,,,,
,,,,,00094,2023-11-01_16h28.12.522,vbt_B2_day3,2022.2.4,Win32,60.0276127,,,,,,down,0,1.9629,,0.571296353,-0.149074088,1,0,0,0,189,189,17,1,taal,images/br_taal.png,images/cb_taal.png,0,,,,,,,,,,,,,,,,,,,,,,
,,,,,00094,2023-11-01_16h28.12.522,vbt_B2_day3,2022.2.4,Win32,60.0276127,,,,,,down,0,1.3715,,0.571296353,-0.149074088,1,0,0,0,190,190,49,1,laken,images/br_laken.png,images/cb_laken.png,0,,,,,,,,,,,,,,,,,,,,,,
,,,,,00094,2023-11-01_16h28.12.522,vbt_B2_day3,2022.2.4,Win32,60.0276127,,,,,,down,0,4.0719,,0.571296353,-0.149074088,1,0,0,0,191,191,2,1,jaar,images/br_jaar.png,images/cb_jaar.png,0,,,,,,,,,,,,,,,,,,,,,,
,,,,,00094,2023-11-01_16h28.12.522,vbt_B2_day3,2022.2.4,Win32,60.0276127,,,,,,down,0,1.4604,,0.571296353,-0.149074088,1,0,0,0,192,192,146,1,opkomen,images/br_opkomen.png,images/cb_opkomen.png,0,,,,,,,,,,,,,,,,,,,,,,
,,,,,00094,2023-11-01_16h28.12.522,vbt_B2_day3,2022.2.4,Win32,60.0276127,,,,,,down,0,5.703,,0.571296353,-0.149074088,1,0,0,0,193,193,76,1,afval,images/br_afval.png,images/cb_afval.png,0,,,,,,,,,,,,,,,,,,,,,,
,,,,,00094,2023-11-01_16h28.12.522,vbt_B2_day3,2022.2.4,Win32,60.0276127,,,,,,down,0,1.5101,,0.571296353,-0.149074088,1,0,0,0,194,194,109,1,totaal,images/br_totaal.png,images/cb_totaal.png,0,,,,,,,,,,,,,,,,,,,,,,
,,,,,00094,2023-11-01_16h28.12.522,vbt_B2_day3,2022.2.4,Win32,60.0276127,,,,,,down,0,2.9509,,0.571296353,-0.149074088,1,0,0,0,195,195,22,1,stof,images/br_stof.png,images/cb_stof.png,1,stof,,,,,,,,,,,,,,,,,,,,,
,,,,,00094,2023-11-01_16h28.12.522,vbt_B2_day3,2022.2.4,Win32,60.0276127,,,,,,down,0,1.8751,,0.571296353,-0.149074088,1,0,0,0,196,196,81,1,dubbel,images/br_dubbel.png,images/cb_dubbel.png,0,,,,,,,,,,,,,,,,,,,,,,
,,,,,00094,2023-11-01_16h28.12.522,vbt_B2_day3,2022.2.4,Win32,60.0276127,,,,,,down,0,9.5527,,0.571296353,-0.149074088,1,0,0,0,197,197,143,1,hechten,images/br_hechten.png,images/cb_hechten.png,1,hechten,,,,,,,,,,,,,,,,,,,,,
,,,,,00094,2023-11-01_16h28.12.522,vbt_B2_day3,2022.2.4,Win32,60.0276127,,,,,,down,0,2.644,,0.571296353,-0.149074088,1,0,0,0,198,198,72,1,strak,images/br_strak.png,images/cb_strak.png,0,,,,,,,,,,,,,,,,,,,,,,
,,,,,00094,2023-11-01_16h28.12.522,vbt_B2_day3,2022.2.4,Win32,60.0276127,,,,,,down,0,3.4402,,0.571296353,-0.149074088,1,0,0,0,199,199,99,1,koffie,images/br_koffie.png,images/cb_koffie.png,0,,,,,,,,,,,,,,,,,,,,,,
,,,,,00094,2023-11-01_16h28.12.522,vbt_B2_day3,2022.2.4,Win32,60.0276127,,,,,,,,,,,,,,,,,,,,,,,,,0.542592706,-0.204629644,1,0,0,,,,,,,,,,,,,,,,
,,,,,00094,2023-11-01_16h28.12.522,vbt_B2_day3,2022.2.4,Win32,60.0276127,,,,,,,,,,,,,,,,,,,,,,,,,,,,,,0.542592706,-0.204629644,1,0,0,,,,,,,,,,,
,,,,,00094,2023-11-01_16h28.12.522,vbt_B2_day3,2022.2.4,Win32,60.0276127,,,,,,,,,,,,,,,,,,,,keihard,images/br_keihard.png,images/cb_keihard.png,,kie...,,,,,,,,,,,0.542592706,-0.204629644,1,0,0,kie...,0,0,0,14,1
,,,,,00094,2023-11-01_16h28.12.522,vbt_B2_day3,2022.2.4,Win32,60.0276127,,,,,,,,,,,,,,,,,,,,laken,images/br_laken.png,images/cb_laken.png,,laken,,,,,,,,,,,0.542592706,-0.204629644,1,0,0,laken,0,1,1,5,1
,,,,,00094,2023-11-01_16h28.12.522,vbt_B2_day3,2022.2.4,Win32,60.0276127,,,,,,,,,,,,,,,,,,,,brappen,images/br_brappen.png,images/cb_brappen.png,,brappen,,,,,,,,,,,0.521296353,-0.062962977,1,0,0,brappen,0,2,2,35,1
,,,,,00094,2023-11-01_16h28.12.522,vbt_B2_day3,2022.2.4,Win32,60.0276127,,,,,,,,,,,,,,,,,,,,bisschop,images/br_bisschop.png,images/cb_bisschop.png,,bisschop,,,,,,,,,,,0.521296353,-0.062962977,1,0,0,bisschop,0,3,3,16,1
,,,,,00094,2023-11-01_16h28.12.522,vbt_B2_day3,2022.2.4,Win32,60.0276127,,,,,,,,,,,,,,,,,,,,stallen,images/br_stallen.png,images/cb_stallen.png,,stallen,,,,,,,,,,,0.521296353,-0.062962977,1,0,0,stallen,0,4,4,52,1
,,,,,00094,2023-11-01_16h28.12.522,vbt_B2_day3,2022.2.4,Win32,60.0276127,,,,,,,,,,,,,,,,,,,,sultan,images/br_sultan.png,images/cb_sultan.png,,sultan,,,,,,,,,,,0.521296353,-0.062962977,1,0,0,sultan,0,5,5,49,1
,,,,,00094,2023-11-01_16h28.12.522,vbt_B2_day3,2022.2.4,Win32,60.0276127,,,,,,,,,,,,,,,,,,,,uviek,images/br_uviek.png,images/cb_uviek.png,,uveik,,,,,,,,,,,0.521296353,-0.062962977,1,0,0,uveik,0,6,6,25,1
,,,,,00094,2023-11-01_16h28.12.522,vbt_B2_day3,2022.2.4,Win32,60.0276127,,,,,,,,,,,,,,,,,,,,geluid,images/br_geluid.png,images/cb_geluid.png,,geluid,,,,,,,,,,,0.521296353,-0.062962977,1,0,0,geluid,0,7,7,10,1
,,,,,00094,2023-11-01_16h28.12.522,vbt_B2_day3,2022.2.4,Win32,60.0276127,,,,,,,,,,,,,,,,,,,,invallen,images/br_invallen.png,images/cb_invallen.png,,invallen,,,,,,,,,,,0.521296353,-0.062962977,1,0,0,invallen,0,8,8,57,1
,,,,,00094,2023-11-01_16h28.12.522,vbt_B2_day3,2022.2.4,Win32,60.0276127,,,,,,,,,,,,,,,,,,,,vlager,images/br_vlager.png,images/cb_vlager.png,,vlager,,,,,,,,,,,0.521296353,-0.062962977,1,0,0,vlager,0,9,9,28,1
,,,,,00094,2023-11-01_16h28.12.522,vbt_B2_day3,2022.2.4,Win32,60.0276127,,,,,,,,,,,,,,,,,,,,kwaas,images/br_kwaas.png,images/cb_kwaas.png,,kwaas,,,,,,,,,,,0.521296353,-0.062962977,1,0,0,kwaas,0,10,10,26,1
,,,,,00094,2023-11-01_16h28.12.522,vbt_B2_day3,2022.2.4,Win32,60.0276127,,,,,,,,,,,,,,,,,,,,kest,images/br_kest.png,images/cb_kest.png,,kest,,,,,,,,,,,0.521296353,-0.062962977,1,0,0,kest,0,11,11,21,1
,,,,,00094,2023-11-01_16h28.12.522,vbt_B2_day3,2022.2.4,Win32,60.0276127,,,,,,,,,,,,,,,,,,,,leemaken,images/br_leemaken.png,images/cb_leemaken.png,,leemaken,,,,,,,,,,,0.521296353,-0.062962977,1,0,0,leemaken,0,12,12,39,1
,,,,,00094,2023-11-01_16h28.12.522,vbt_B2_day3,2022.2.4,Win32,60.0276127,,,,,,,,,,,,,,,,,,,,begrip,images/br_begrip.png,images/cb_begrip.png,,begrip,,,,,,,,,,,0.521296353,-0.062962977,1,0,0,begrip,0,13,13,48,1
,,,,,00094,2023-11-01_16h28.12.522,vbt_B2_day3,2022.2.4,Win32,60.0276127,,,,,,,,,,,,,,,,,,,,opzicht,images/br_opzicht.png,images/cb_opzicht.png,,opzicht,,,,,,,,,,,0.521296353,-0.062962977,1,0,0,opzicht,0,14,14,15,1
,,,,,00094,2023-11-01_16h28.12.522,vbt_B2_day3,2022.2.4,Win32,60.0276127,,,,,,,,,,,,,,,,,,,,stoom,images/br_stoom.png,images/cb_stoom.png,,stoom,,,,,,,,,,,0.521296353,-0.062962977,1,0,0,stoom,0,15,15,6,1
,,,,,00094,2023-11-01_16h28.12.522,vbt_B2_day3,2022.2.4,Win32,60.0276127,,,,,,,,,,,,,,,,,,,,beslag,images/br_beslag.png,images/cb_beslag.png,,beslag,,,,,,,,,,,0.521296353,-0.062962977,1,0,0,beslag,0,16,16,51,1
,,,,,00094,2023-11-01_16h28.12.522,vbt_B2_day3,2022.2.4,Win32,60.0276127,,,,,,,,,,,,,,,,,,,,onrecht,images/br_onrecht.png,images/cb_onrecht.png,,onrecht,,,,,,,,,,,0.521296353,-0.062962977,1,0,0,onrecht,0,17,17,55,1
,,,,,00094,2023-11-01_16h28.12.522,vbt_B2_day3,2022.2.4,Win32,60.0276127,,,,,,,,,,,,,,,,,,,,jongelui,images/br_jongelui.png,images/cb_jongelui.png,,jongelui,,,,,,,,,,,0.521296353,-0.062962977,1,0,0,jongelui,0,18,18,59,1
,,,,,00094,2023-11-01_16h28.12.522,vbt_B2_day3,2022.2.4,Win32,60.0276127,,,,,,,,,,,,,,,,,,,,twaaf,images/br_twaaf.png,images/cb_twaaf.png,,twaaf,,,,,,,,,,,0.521296353,-0.062962977,1,0,0,twaaf,0,19,19,24,1
,,,,,00094,2023-11-01_16h28.12.522,vbt_B2_day3,2022.2.4,Win32,60.0276127,,,,,,,,,,,,,,,,,,,,opzetten,images/br_opzetten.png,images/cb_opzetten.png,,opzetten,,,,,,,,,,,0.521296353,-0.062962977,1,0,0,opzetten,0,20,20,56,1
,,,,,00094,2023-11-01_16h28.12.522,vbt_B2_day3,2022.2.4,Win32,60.0276127,,,,,,,,,,,,,,,,,,,,steel,images/br_steel.png,images/cb_steel.png,,steel,,,,,,,,,,,0.521296353,-0.062962977,1,0,0,steel,0,21,21,4,1
,,,,,00094,2023-11-01_16h28.12.522,vbt_B2_day3,2022.2.4,Win32,60.0276127,,,,,,,,,,,,,,,,,,,,sluier,images/br_sluier.png,images/cb_sluier.png,,sluier,,,,,,,,,,,0.521296353,-0.062962977,1,0,0,sluier,0,22,22,50,1
,,,,,00094,2023-11-01_16h28.12.522,vbt_B2_day3,2022.2.4,Win32,60.0276127,,,,,,,,,,,,,,,,,,,,dwang,images/br_dwang.png,images/cb_dwang.png,,dwang,,,,,,,,,,,0.521296353,-0.062962977,1,0,0,dwang,0,23,23,47,1
,,,,,00094,2023-11-01_16h28.12.522,vbt_B2_day3,2022.2.4,Win32,60.0276127,,,,,,,,,,,,,,,,,,,,mugeek,images/br_mugeek.png,images/cb_mugeek.png,,mugeek,,,,,,,,,,,0.521296353,-0.062962977,1,0,0,mugeek,0,24,24,29,1
,,,,,00094,2023-11-01_16h28.12.522,vbt_B2_day3,2022.2.4,Win32,60.0276127,,,,,,,,,,,,,,,,,,,,leugeren,images/br_leugeren.png,images/cb_leugeren.png,,leugeren,,,,,,,,,,,0.521296353,-0.062962977,1,0,0,leugeren,0,25,25,37,1
,,,,,00094,2023-11-01_16h28.12.522,vbt_B2_day3,2022.2.4,Win32,60.0276127,,,,,,,,,,,,,,,,,,,,glijden,images/br_glijden.png,images/cb_glijden.png,,geij...,,,,,,,,,,,0.521296353,-0.062962977,1,0,0,geij...,0,26,26,53,1
,,,,,00094,2023-11-01_16h28.12.522,vbt_B2_day3,2022.2.4,Win32,60.0276127,,,,,,,,,,,,,,,,,,,,gezond,images/br_gezond.png,images/cb_gezond.png,,gezond,,,,,,,,,,,0.521296353,-0.062962977,1,0,0,gezond,0,27,27,11,1
,,,,,00094,2023-11-01_16h28.12.522,vbt_B2_day3,2022.2.4,Win32,60.0276127,,,,,,,,,,,,,,,,,,,,stikken,images/br_stikken.png,images/cb_stikken.png,,stikken,,,,,,,,,,,0.521296353,-0.062962977,1,0,0,stikken,0,28,28,54,1
,,,,,00094,2023-11-01_16h28.12.522,vbt_B2_day3,2022.2.4,Win32,60.0276127,,,,,,,,,,,,,,,,,,,,gebod,images/br_gebod.png,images/cb_gebod.png,,gebod,,,,,,,,,,,0.521296353,-0.062962977,1,0,0,gebod,0,29,29,45,1
,,,,,00094,2023-11-01_16h28.12.522,vbt_B2_day3,2022.2.4,Win32,60.0276127,,,,,,,,,,,,,,,,,,,,bevret,images/br_bevret.png,images/cb_bevret.png,,bevret,,,,,,,,,,,0.521296353,-0.062962977,1,0,0,bevret,0,30,30,30,1
,,,,,00094,2023-11-01_16h28.12.522,vbt_B2_day3,2022.2.4,Win32,60.0276127,,,,,,,,,,,,,,,,,,,,hint,images/br_hint.png,images/cb_hint.png,,hint,,,,,,,,,,,0.521296353,-0.062962977,1,0,0,hint,0,31,31,43,1
,,,,,00094,2023-11-01_16h28.12.522,vbt_B2_day3,2022.2.4,Win32,60.0276127,,,,,,,,,,,,,,,,,,,,schatten,images/br_schatten.png,images/cb_schatten.png,,schatten,,,,,,,,,,,0.521296353,-0.062962977,1,0,0,schatten,0,32,32,18,1
,,,,,00094,2023-11-01_16h28.12.522,vbt_B2_day3,2022.2.4,Win32,60.0276127,,,,,,,,,,,,,,,,,,,,verhaal,images/br_verhaal.png,images/cb_verhaal.png,,verhaal,,,,,,,,,,,0.521296353,-0.062962977,1,0,0,verhaal,0,33,33,13,1
,,,,,00094,2023-11-01_16h28.12.522,vbt_B2_day3,2022.2.4,Win32,60.0276127,,,,,,,,,,,,,,,,,,,,hust,images/br_hust.png,images/cb_hust.png,,hust,,,,,,,,,,,0.521296353,-0.062962977,1,0,0,hust,0,34,34,23,1
,,,,,00094,2023-11-01_16h28.12.522,vbt_B2_day3,2022.2.4,Win32,60.0276127,,,,,,,,,,,,,,,,,,,,knie,images/br_knie.png,images/cb_knie.png,,knie,,,,,,,,,,,0.521296353,-0.062962977,1,0,0,knie,0,35,35,0,1
,,,,,00094,2023-11-01_16h28.12.522,vbt_B2_day3,2022.2.4,Win32,60.0276127,,,,,,,,,,,,,,,,,,,,zone,images/br_zone.png,images/cb_zone.png,,zone,,,,,,,,,,,0.521296353,-0.062962977,1,0,0,zone,0,36,36,41,1
,,,,,00094,2023-11-01_16h28.12.522,vbt_B2_day3,2022.2.4,Win32,60.0276127,,,,,,,,,,,,,,,,,,,,verraden,images/br_verraden.png,images/cb_verraden.png,,verraden,,,,,,,,,,,0.521296353,-0.062962977,1,0,0,verraden,0,37,37,58,1
,,,,,00094,2023-11-01_16h28.12.522,vbt_B2_day3,2022.2.4,Win32,60.0276127,,,,,,,,,,,,,,,,,,,,samen,images/br_samen.png,images/cb_samen.png,,samen,,,,,,,,,,,0.521296353,-0.062962977,1,0,0,samen,0,38,38,7,1
,,,,,00094,2023-11-01_16h28.12.522,vbt_B2_day3,2022.2.4,Win32,60.0276127,,,,,,,,,,,,,,,,,,,,afbopen,images/br_afbopen.png,images/cb_afbopen.png,,afbopen,,,,,,,,,,,0.521296353,-0.062962977,1,0,0,afbopen,0,39,39,34,1
,,,,,00094,2023-11-01_16h28.12.522,vbt_B2_day3,2022.2.4,Win32,60.0276127,,,,,,,,,,,,,,,,,,,,schodel,images/br_schodel.png,images/cb_schodel.png,,schodel,,,,,,,,,,,0.521296353,-0.062962977,1,0,0,schodel,0,40,40,33,1
,,,,,00094,2023-11-01_16h28.12.522,vbt_B2_day3,2022.2.4,Win32,60.0276127,,,,,,,,,,,,,,,,,,,,slapen,images/br_slapen.png,images/cb_slapen.png,,slapen,,,,,,,,,,,0.521296353,-0.062962977,1,0,0,slapen,0,41,41,9,1
,,,,,00094,2023-11-01_16h28.12.522,vbt_B2_day3,2022.2.4,Win32,60.0276127,,,,,,,,,,,,,,,,,,,,theeting,images/br_theeting.png,images/cb_theeting.png,,theeteng,,,,,,,,,,,0.521296353,-0.062962977,1,0,0,theeteng,0,42,42,38,1
,,,,,00094,2023-11-01_16h28.12.522,vbt_B2_day3,2022.2.4,Win32,60.0276127,,,,,,,,,,,,,,,,,,,,makieren,images/br_makieren.png,images/cb_makieren.png,,makier..,,,,,,,,,,,0.521296353,-0.062962977,1,0,0,makier..,0,43,43,36,1
,,,,,00094,2023-11-01_16h28.12.522,vbt_B2_day3,2022.2.4,Win32,60.0276127,,,,,,,,,,,,,,,,,,,,booien,images/br_booien.png,images/cb_booien.png,,booien,,,,,,,,,,,0.521296353,-0.062962977,1,0,0,booien,0,44,44,31,1
,,,,,00094,2023-11-01_16h28.12.522,vbt_B2_day3,2022.2.4,Win32,60.0276127,,,,,,,,,,,,,,,,,,,,paken,images/br_paken.png,images/cb_paken.png,,paken,,,,,,,,,,,0.521296353,-0.062962977,1,0,0,paken,0,45,45,27,1
,,,,,00094,2023-11-01_16h28.12.522,vbt_B2_day3,2022.2.4,Win32,60.0276127,,,,,,,,,,,,,,,,,,,,uniek,images/br_uniek.png,images/cb_uniek.png,,uniek,,,,,,,,,,,0.521296353,-0.062962977,1,0,0,uniek,0,46,46,46,1
,,,,,00094,2023-11-01_16h28.12.522,vbt_B2_day3,2022.2.4,Win32,60.0276127,,,,,,,,,,,,,,,,,,,,aarzelen,images/br_aarzelen.png,images/cb_aarzelen.png,,aarzelen,,,,,,,,,,,0.521296353,-0.062962977,1,0,0,aarzelen,0,47,47,19,1
,,,,,00094,2023-11-01_16h28.12.522,vbt_B2_day3,2022.2.4,Win32,60.0276127,,,,,,,,,,,,,,,,,,,,mode,images/br_mode.png,images/cb_mode.png,,mode,,,,,,,,,,,0.521296353,-0.062962977,1,0,0,mode,0,48,48,3,1
,,,,,00094,2023-11-01_16h28.12.522,vbt_B2_day3,2022.2.4,Win32,60.0276127,,,,,,,,,,,,,,,,,,,,kaas,images/br_kaas.png,images/cb_kaas.png,,kaas,,,,,,,,,,,0.521296353,-0.062962977,1,0,0,kaas,0,49,49,42,1
,,,,,00094,2023-11-01_16h28.12.522,vbt_B2_day3,2022.2.4,Win32,60.0276127,,,,,,,,,,,,,,,,,,,,hier,images/br_hier.png,images/cb_hier.png,,hier,,,,,,,,,,,0.521296353,-0.062962977,1,0,0,hier,0,50,50,1,1
,,,,,00094,2023-11-01_16h28.12.522,vbt_B2_day3,2022.2.4,Win32,60.0276127,,,,,,,,,,,,,,,,,,,,verwoor,images/br_verwoor.png,images/cb_verwoor.png,,verwoor,,,,,,,,,,,0.521296353,-0.062962977,1,0,0,verwoor,0,51,51,32,1
,,,,,00094,2023-11-01_16h28.12.522,vbt_B2_day3,2022.2.4,Win32,60.0276127,,,,,,,,,,,,,,,,,,,,prikken,images/br_prikken.png,images/cb_prikken.png,,prikken,,,,,,,,,,,0.521296353,-0.062962977,1,0,0,prikken,0,52,52,12,1
,,,,,00094,2023-11-01_16h28.12.522,vbt_B2_day3,2022.2.4,Win32,60.0276127,,,,,,,,,,,,,,,,,,,,boeien,images/br_boeien.png,images/cb_boeien.png,,boeien,,,,,,,,,,,0.521296353,-0.062962977,1,0,0,boeien,0,53,53,8,1
,,,,,00094,2023-11-01_16h28.12.522,vbt_B2_day3,2022.2.4,Win32,60.0276127,,,,,,,,,,,,,,,,,,,,croo,images/br_croo.png,images/cb_croo.png,,croo,,,,,,,,,,,0.521296353,-0.062962977,1,0,0,croo,0,54,54,22,1
,,,,,00094,2023-11-01_16h28.12.522,vbt_B2_day3,2022.2.4,Win32,60.0276127,,,,,,,,,,,,,,,,,,,,leek,images/br_leek.png,images/cb_leek.png,,leek,,,,,,,,,,,0.521296353,-0.062962977,1,0,0,leek,0,55,55,2,1
,,,,,00094,2023-11-01_16h28.12.522,vbt_B2_day3,2022.2.4,Win32,60.0276127,,,,,,,,,,,,,,,,,,,,gout,images/br_gout.png,images/cb_gout.png,,gout,,,,,,,,,,,0.521296353,-0.062962977,1,0,0,gout,0,56,56,20,1
,,,,,00094,2023-11-01_16h28.12.522,vbt_B2_day3,2022.2.4,Win32,60.0276127,,,,,,,,,,,,,,,,,,,,eens,images/br_eens.png,images/cb_eens.png,,eens,,,,,,,,,,,0.521296353,-0.062962977,1,0,0,eens,0,57,57,40,1
,,,,,00094,2023-11-01_16h28.12.522,vbt_B2_day3,2022.2.4,Win32,60.0276127,,,,,,,,,,,,,,,,,,,,alsof,images/br_alsof.png,images/cb_alsof.png,,alsof,,,,,,,,,,,0.521296353,-0.062962977,1,0,0,alsof,0,58,58,44,1
,,,,,00094,2023-11-01_16h28.12.522,vbt_B2_day3,2022.2.4,Win32,60.0276127,,,,,,,,,,,,,,,,,,,,oprotten,images/br_oprotten.png,images/cb_oprotten.png,,oprotten,,,,,,,,,,,0.521296353,-0.062962977,1,0,0,oprotten,0,59,59,17,1
,,,,,00094,2023-11-01_16h28.12.522,vbt_B2_day3,2022.2.4,Win32,60.0276127,,,,,,,,,,,,,,,,,,,,,,,,,,,,,,,,,,,,,,,,,,,,,
