welcome_mouse.x,welcome_mouse.y,welcome_mouse.leftButton,welcome_mouse.midButton,welcome_mouse.rightButton,"ID",date,expName,psychopyVersion,OS,frameRate,trainInstr_mouse.x,trainInstr_mouse.y,trainInstr_mouse.leftButton,trainInstr_mouse.midButton,trainInstr_mouse.rightButton,translation_key.keys,translation_key.corr,translation_key.rt,word_rsp.text,trWrd_mouse.x,trWrd_mouse.y,trWrd_mouse.leftButton,trWrd_mouse.midButton,trWrd_mouse.rightButton,train_loop.thisRepN,train_loop.thisTrialN,train_loop.thisN,train_loop.thisIndex,train_loop.ran,nlWrd,brWrd,cbWrd,test,testResp,mouse.x,mouse.y,mouse.leftButton,mouse.midButton,mouse.rightButton,testInstr_mouse.x,testInstr_mouse.y,testInstr_mouse.leftButton,testInstr_mouse.midButton,testInstr_mouse.rightButton,test_mouse.x,test_mouse.y,test_mouse.leftButton,test_mouse.midButton,test_mouse.rightButton,test_response.text,test_loop.thisRepN,test_loop.thisTrialN,test_loop.thisN,test_loop.thisIndex,test_loop.ran
-0.1555334,-0.209870389,1,0,0,00048,2023-10-06_23h27.40.843,vbt_B2_day3,2022.2.4,Win32,59.54507562,,,,,,,,,,,,,,,,,,,,,,,,,,,,,,,,,,,,,,,,,,,,,
,,,,,00048,2023-10-06_23h27.40.843,vbt_B2_day3,2022.2.4,Win32,59.54507562,-0.1555334,-0.209870389,1,0,0,,,,,,,,,,,,,,,,,,,,,,,,,,,,,,,,,,,,,,,,
,,,,,00048,2023-10-06_23h27.40.843,vbt_B2_day3,2022.2.4,Win32,59.54507562,,,,,,down,0,7.4673,,-0.163509472,-0.304253925,1,0,0,0,0,0,104,1,zweven,images/br_zweven.png,images/cb_zweven.png,0,,,,,,,,,,,,,,,,,,,,,,
,,,,,00048,2023-10-06_23h27.40.843,vbt_B2_day3,2022.2.4,Win32,59.54507562,,,,,,down,0,4.3464,,-0.163509472,-0.304253925,1,0,0,0,1,1,39,1,laag,images/br_laag.png,images/cb_laag.png,0,,,,,,,,,,,,,,,,,,,,,,
,,,,,00048,2023-10-06_23h27.40.843,vbt_B2_day3,2022.2.4,Win32,59.54507562,,,,,,down,0,3.3005,,-0.163509472,-0.304253925,1,0,0,0,2,2,74,1,graaf,images/br_graaf.png,images/cb_graaf.png,0,,,,,,,,,,,,,,,,,,,,,,
,,,,,00048,2023-10-06_23h27.40.843,vbt_B2_day3,2022.2.4,Win32,59.54507562,,,,,,down,0,2.8683,,-0.163509472,-0.304253925,1,0,0,0,3,3,54,1,gebit,images/br_gebit.png,images/cb_gebit.png,0,,,,,,,,,,,,,,,,,,,,,,
,,,,,00048,2023-10-06_23h27.40.843,vbt_B2_day3,2022.2.4,Win32,59.54507562,,,,,,down,0,9.0499,,-0.163509472,-0.304253925,1,0,0,0,4,4,25,1,plek,images/br_plek.png,images/cb_plek.png,0,,,,,,,,,,,,,,,,,,,,,,
,,,,,00048,2023-10-06_23h27.40.843,vbt_B2_day3,2022.2.4,Win32,59.54507562,,,,,,down,0,6.567,,-0.163509472,-0.304253925,1,0,0,0,5,5,131,1,opzicht,images/br_opzicht.png,images/cb_opzicht.png,0,,,,,,,,,,,,,,,,,,,,,,
,,,,,00048,2023-10-06_23h27.40.843,vbt_B2_day3,2022.2.4,Win32,59.54507562,,,,,,down,0,9.5871,,-0.166168122,-0.302259907,1,0,0,0,6,6,116,1,besmet,images/br_besmet.png,images/cb_besmet.png,0,,,,,,,,,,,,,,,,,,,,,,
,,,,,00048,2023-10-06_23h27.40.843,vbt_B2_day3,2022.2.4,Win32,59.54507562,,,,,,down,0,8.0534,,-0.160850761,-0.310900672,1,0,0,0,7,7,134,1,geliefd,images/br_geliefd.png,images/cb_geliefd.png,0,,,,,,,,,,,,,,,,,,,,,,
,,,,,00048,2023-10-06_23h27.40.843,vbt_B2_day3,2022.2.4,Win32,59.54507562,,,,,,down,0,4.7841,,-0.161515454,-0.309571286,1,0,0,0,8,8,191,1,opheffen,images/br_opheffen.png,images/cb_opheffen.png,0,,,,,,,,,,,,,,,,,,,,,,
,,,,,00048,2023-10-06_23h27.40.843,vbt_B2_day3,2022.2.4,Win32,59.54507562,,,,,,down,0,1.7844,,-0.161515454,-0.309571286,1,0,0,0,9,9,19,1,geit,images/br_geit.png,images/cb_geit.png,0,,,,,,,,,,,,,,,,,,,,,,
,,,,,00048,2023-10-06_23h27.40.843,vbt_B2_day3,2022.2.4,Win32,59.54507562,,,,,,down,0,1.2801,,-0.161515454,-0.309571286,1,0,0,0,10,10,153,1,vervoer,images/br_vervoer.png,images/cb_vervoer.png,0,,,,,,,,,,,,,,,,,,,,,,
,,,,,00048,2023-10-06_23h27.40.843,vbt_B2_day3,2022.2.4,Win32,59.54507562,,,,,,down,0,0.1839,,-0.15819205,-0.314224015,1,0,0,0,11,11,10,1,leek,images/br_leek.png,images/cb_leek.png,0,,,,,,,,,,,,,,,,,,,,,,
,,,,,00048,2023-10-06_23h27.40.843,vbt_B2_day3,2022.2.4,Win32,59.54507562,,,,,,down,0,1.2171,,-0.15819205,-0.316882726,1,0,0,0,12,12,26,1,leuk,images/br_leuk.png,images/cb_leuk.png,0,,,,,,,,,,,,,,,,,,,,,,
,,,,,00048,2023-10-06_23h27.40.843,vbt_B2_day3,2022.2.4,Win32,59.54507562,,,,,,down,0,3.4347,,-0.154204014,-0.316218033,1,0,0,0,13,13,178,1,huisdier,images/br_huisdier.png,images/cb_huisdier.png,0,,,,,,,,,,,,,,,,,,,,,,
,,,,,00048,2023-10-06_23h27.40.843,vbt_B2_day3,2022.2.4,Win32,59.54507562,,,,,,down,0,3.614,,-0.154204014,-0.316218033,1,0,0,0,14,14,198,1,bedoelen,images/br_bedoelen.png,images/cb_bedoelen.png,0,,,,,,,,,,,,,,,,,,,,,,
,,,,,00048,2023-10-06_23h27.40.843,vbt_B2_day3,2022.2.4,Win32,59.54507562,,,,,,down,0,1.8829,,-0.383516108,-0.242439369,1,0,0,0,15,15,32,1,palm,images/br_palm.png,images/cb_palm.png,0,,,,,,,,,,,,,,,,,,,,,,
,,,,,00048,2023-10-06_23h27.40.843,vbt_B2_day3,2022.2.4,Win32,59.54507562,,,,,,down,0,2.0515,,-0.385510126,-0.253738784,1,0,0,0,16,16,175,1,heengaan,images/br_heengaan.png,images/cb_heengaan.png,0,,,,,,,,,,,,,,,,,,,,,,
,,,,,00048,2023-10-06_23h27.40.843,vbt_B2_day3,2022.2.4,Win32,59.54507562,,,,,,down,0,32.0526,,-0.146227942,-0.306912636,1,0,0,0,17,17,60,1,jasje,images/br_jasje.png,images/cb_jasje.png,1,jasje,,,,,,,,,,,,,,,,,,,,,
,,,,,00048,2023-10-06_23h27.40.843,vbt_B2_day3,2022.2.4,Win32,59.54507562,,,,,,down,0,1.467,,-0.146227942,-0.306912636,1,0,0,0,18,18,16,1,ziek,images/br_ziek.png,images/cb_ziek.png,0,,,,,,,,,,,,,,,,,,,,,,
,,,,,00048,2023-10-06_23h27.40.843,vbt_B2_day3,2022.2.4,Win32,59.54507562,,,,,,down,0,22.9785,,-0.146227942,-0.306912636,1,0,0,0,19,19,186,1,voorraad,images/br_voorraad.png,images/cb_voorraad.png,0,,,,,,,,,,,,,,,,,,,,,,
,,,,,00048,2023-10-06_23h27.40.843,vbt_B2_day3,2022.2.4,Win32,59.54507562,,,,,,down,0,2.2281,,-0.146227942,-0.306912636,1,0,0,0,20,20,114,1,vullen,images/br_vullen.png,images/cb_vullen.png,0,,,,,,,,,,,,,,,,,,,,,,
,,,,,00048,2023-10-06_23h27.40.843,vbt_B2_day3,2022.2.4,Win32,59.54507562,,,,,,down,0,3.3959,,-0.146227942,-0.306912636,1,0,0,0,21,21,76,1,afval,images/br_afval.png,images/cb_afval.png,0,,,,,,,,,,,,,,,,,,,,,,
,,,,,00048,2023-10-06_23h27.40.843,vbt_B2_day3,2022.2.4,Win32,59.54507562,,,,,,down,0,0.2162,,-0.146227942,-0.306912636,1,0,0,0,22,22,9,1,hier,images/br_hier.png,images/cb_hier.png,0,,,,,,,,,,,,,,,,,,,,,,
,,,,,00048,2023-10-06_23h27.40.843,vbt_B2_day3,2022.2.4,Win32,59.54507562,,,,,,down,0,8.4375,,-0.146227942,-0.306912636,1,0,0,0,23,23,185,1,mijnheer,images/br_mijnheer.png,images/cb_mijnheer.png,0,,,,,,,,,,,,,,,,,,,,,,
,,,,,00048,2023-10-06_23h27.40.843,vbt_B2_day3,2022.2.4,Win32,59.54507562,,,,,,down,0,0.2981,,-0.146227942,-0.306912636,1,0,0,0,24,24,179,1,woestijn,images/br_woestijn.png,images/cb_woestijn.png,0,,,,,,,,,,,,,,,,,,,,,,
,,,,,00048,2023-10-06_23h27.40.843,vbt_B2_day3,2022.2.4,Win32,59.54507562,,,,,,down,0,9.243,,-0.146227942,-0.306912636,1,0,0,0,25,25,117,1,kennis,images/br_kennis.png,images/cb_kennis.png,0,,,,,,,,,,,,,,,,,,,,,,
,,,,,00048,2023-10-06_23h27.40.843,vbt_B2_day3,2022.2.4,Win32,59.54507562,,,,,,down,0,1.7151,,-0.146227942,-0.306912636,1,0,0,0,26,26,14,1,rijp,images/br_rijp.png,images/cb_rijp.png,0,,,,,,,,,,,,,,,,,,,,,,
,,,,,00048,2023-10-06_23h27.40.843,vbt_B2_day3,2022.2.4,Win32,59.54507562,,,,,,down,0,14.9156,,-0.146227942,-0.306912636,1,0,0,0,27,27,181,1,toegeven,images/br_toegeven.png,images/cb_toegeven.png,1,toegeven,,,,,,,,,,,,,,,,,,,,,
,,,,,00048,2023-10-06_23h27.40.843,vbt_B2_day3,2022.2.4,Win32,59.54507562,,,,,,down,0,10.0453,,-0.146227942,-0.306912636,1,0,0,0,28,28,93,1,waarop,images/br_waarop.png,images/cb_waarop.png,0,,,,,,,,,,,,,,,,,,,,,,
,,,,,00048,2023-10-06_23h27.40.843,vbt_B2_day3,2022.2.4,Win32,59.54507562,,,,,,down,0,7.8507,,-0.146227942,-0.306912636,1,0,0,0,29,29,68,1,schat,images/br_schat.png,images/cb_schat.png,0,,,,,,,,,,,,,,,,,,,,,,
,,,,,00048,2023-10-06_23h27.40.843,vbt_B2_day3,2022.2.4,Win32,59.54507562,,,,,,down,0,13.7975,,-0.146227942,-0.306912636,1,0,0,0,30,30,97,1,loyaal,images/br_loyaal.png,images/cb_loyaal.png,0,,,,,,,,,,,,,,,,,,,,,,
,,,,,00048,2023-10-06_23h27.40.843,vbt_B2_day3,2022.2.4,Win32,59.54507562,,,,,,down,0,18.5514,,-0.146227942,-0.306912636,1,0,0,0,31,31,84,1,lokken,images/br_lokken.png,images/cb_lokken.png,0,,,,,,,,,,,,,,,,,,,,,,
,,,,,00048,2023-10-06_23h27.40.843,vbt_B2_day3,2022.2.4,Win32,59.54507562,,,,,,down,0,3.6064,,-0.146227942,-0.306912636,1,0,0,0,32,32,96,1,slagen,images/br_slagen.png,images/cb_slagen.png,0,,,,,,,,,,,,,,,,,,,,,,
,,,,,00048,2023-10-06_23h27.40.843,vbt_B2_day3,2022.2.4,Win32,59.54507562,,,,,,down,0,0.0836,,-0.146227942,-0.306912636,1,0,0,0,33,33,24,1,jurk,images/br_jurk.png,images/cb_jurk.png,0,,,,,,,,,,,,,,,,,,,,,,
,,,,,00048,2023-10-06_23h27.40.843,vbt_B2_day3,2022.2.4,Win32,59.54507562,,,,,,down,0,7.9305,,-0.146892635,-0.307577268,1,0,0,0,34,34,115,1,kleren,images/br_kleren.png,images/cb_kleren.png,0,,,,,,,,,,,,,,,,,,,,,,
,,,,,00048,2023-10-06_23h27.40.843,vbt_B2_day3,2022.2.4,Win32,59.54507562,,,,,,down,0,5.5337,,-0.146892635,-0.307577268,1,0,0,0,35,35,161,1,attentie,images/br_attentie.png,images/cb_attentie.png,0,,,,,,,,,,,,,,,,,,,,,,
,,,,,00048,2023-10-06_23h27.40.843,vbt_B2_day3,2022.2.4,Win32,59.54507562,,,,,,down,0,3.6013,,-0.14822196,-0.307577268,1,0,0,0,36,36,164,1,anarchie,images/br_anarchie.png,images/cb_anarchie.png,0,,,,,,,,,,,,,,,,,,,,,,
,,,,,00048,2023-10-06_23h27.40.843,vbt_B2_day3,2022.2.4,Win32,59.54507562,,,,,,down,0,1.1619,,-0.144898617,-0.306912636,1,0,0,0,37,37,35,1,lust,images/br_lust.png,images/cb_lust.png,0,,,,,,,,,,,,,,,,,,,,,,
,,,,,00048,2023-10-06_23h27.40.843,vbt_B2_day3,2022.2.4,Win32,59.54507562,,,,,,down,0,2.2269,,-0.144898617,-0.306912636,1,0,0,0,38,38,82,1,muziek,images/br_muziek.png,images/cb_muziek.png,0,,,,,,,,,,,,,,,,,,,,,,
,,,,,00048,2023-10-06_23h27.40.843,vbt_B2_day3,2022.2.4,Win32,59.54507562,,,,,,down,0,24.5704,,-0.144898617,-0.306912636,1,0,0,0,39,39,17,1,taal,images/br_taal.png,images/cb_taal.png,0,,,,,,,,,,,,,,,,,,,,,,
,,,,,00048,2023-10-06_23h27.40.843,vbt_B2_day3,2022.2.4,Win32,59.54507562,,,,,,down,0,2.5138,,-0.142239906,-0.306247943,1,0,0,0,40,40,139,1,stiekem,images/br_stiekem.png,images/cb_stiekem.png,0,,,,,,,,,,,,,,,,,,,,,,
,,,,,00048,2023-10-06_23h27.40.843,vbt_B2_day3,2022.2.4,Win32,59.54507562,,,,,,down,0,4.3795,,-0.142239906,-0.306247943,1,0,0,0,41,41,40,1,schep,images/br_schep.png,images/cb_schep.png,0,,,,,,,,,,,,,,,,,,,,,,
,,,,,00048,2023-10-06_23h27.40.843,vbt_B2_day3,2022.2.4,Win32,59.54507562,,,,,,down,0,13.5328,,-0.142239906,-0.306247943,1,0,0,0,42,42,1,1,zaal,images/br_zaal.png,images/cb_zaal.png,0,,,,,,,,,,,,,,,,,,,,,,
,,,,,00048,2023-10-06_23h27.40.843,vbt_B2_day3,2022.2.4,Win32,59.54507562,,,,,,down,0,4.1011,,-0.142239906,-0.306247943,1,0,0,0,43,43,151,1,aanzoek,images/br_aanzoek.png,images/cb_aanzoek.png,0,,,,,,,,,,,,,,,,,,,,,,
,,,,,00048,2023-10-06_23h27.40.843,vbt_B2_day3,2022.2.4,Win32,59.54507562,,,,,,down,0,8.633,,-0.142239906,-0.306247943,1,0,0,0,44,44,171,1,aarzelen,images/br_aarzelen.png,images/cb_aarzelen.png,0,,,,,,,,,,,,,,,,,,,,,,
,,,,,00048,2023-10-06_23h27.40.843,vbt_B2_day3,2022.2.4,Win32,59.54507562,,,,,,down,0,23.2324,,-0.142239906,-0.306247943,1,0,0,0,45,45,169,1,oprotten,images/br_oprotten.png,images/cb_oprotten.png,0,,,,,,,,,,,,,,,,,,,,,,
,,,,,00048,2023-10-06_23h27.40.843,vbt_B2_day3,2022.2.4,Win32,59.54507562,,,,,,down,0,6.1844,,-0.142239906,-0.306247943,1,0,0,0,46,46,89,1,slapen,images/br_slapen.png,images/cb_slapen.png,0,,,,,,,,,,,,,,,,,,,,,,
,,,,,00048,2023-10-06_23h27.40.843,vbt_B2_day3,2022.2.4,Win32,59.54507562,,,,,,down,0,0.8202,,-0.142239906,-0.306247943,1,0,0,0,47,47,13,1,kaal,images/br_kaal.png,images/cb_kaal.png,0,,,,,,,,,,,,,,,,,,,,,,
,,,,,00048,2023-10-06_23h27.40.843,vbt_B2_day3,2022.2.4,Win32,59.54507562,,,,,,down,0,1.2137,,-0.142239906,-0.306247943,1,0,0,0,48,48,38,1,baai,images/br_baai.png,images/cb_baai.png,0,,,,,,,,,,,,,,,,,,,,,,
,,,,,00048,2023-10-06_23h27.40.843,vbt_B2_day3,2022.2.4,Win32,59.54507562,,,,,,down,0,15.7517,,-0.17082085,-0.399966787,1,0,0,0,49,49,180,1,openbaar,images/br_openbaar.png,images/cb_openbaar.png,1,openbaar,,,,,,,,,,,,,,,,,,,,,
,,,,,00048,2023-10-06_23h27.40.843,vbt_B2_day3,2022.2.4,Win32,59.54507562,,,,,,down,0,55.7879,,-0.17082085,-0.399966787,1,0,0,0,50,50,112,1,lukken,images/br_lukken.png,images/cb_lukken.png,0,,,,,,,,,,,,,,,,,,,,,,
,,,,,00048,2023-10-06_23h27.40.843,vbt_B2_day3,2022.2.4,Win32,59.54507562,,,,,,down,0,0.5671,,-0.17082085,-0.399966787,1,0,0,0,51,51,33,1,vlek,images/br_vlek.png,images/cb_vlek.png,0,,,,,,,,,,,,,,,,,,,,,,
,,,,,00048,2023-10-06_23h27.40.843,vbt_B2_day3,2022.2.4,Win32,59.54507562,,,,,,down,0,1.4007,,-0.17082085,-0.399966787,1,0,0,0,52,52,133,1,seizoen,images/br_seizoen.png,images/cb_seizoen.png,0,,,,,,,,,,,,,,,,,,,,,,
,,,,,00048,2023-10-06_23h27.40.843,vbt_B2_day3,2022.2.4,Win32,59.54507562,,,,,,down,0,1.3344,,-0.17082085,-0.399966787,1,0,0,0,53,53,189,1,aanraden,images/br_aanraden.png,images/cb_aanraden.png,0,,,,,,,,,,,,,,,,,,,,,,
,,,,,00048,2023-10-06_23h27.40.843,vbt_B2_day3,2022.2.4,Win32,59.54507562,,,,,,down,0,15.9348,,-0.085742772,-0.312229997,1,0,0,0,54,54,63,1,flirt,images/br_flirt.png,images/cb_flirt.png,1,flirt,,,,,,,,,,,,,,,,,,,,,
,,,,,00048,2023-10-06_23h27.40.843,vbt_B2_day3,2022.2.4,Win32,59.54507562,,,,,,down,0,4.8504,,-0.085742772,-0.312229997,1,0,0,0,55,55,135,1,gedicht,images/br_gedicht.png,images/cb_gedicht.png,0,,,,,,,,,,,,,,,,,,,,,,
,,,,,00048,2023-10-06_23h27.40.843,vbt_B2_day3,2022.2.4,Win32,59.54507562,,,,,,down,0,0.2844,,-0.085742772,-0.312229997,1,0,0,0,56,56,71,1,bever,images/br_bever.png,images/cb_bever.png,0,,,,,,,,,,,,,,,,,,,,,,
,,,,,00048,2023-10-06_23h27.40.843,vbt_B2_day3,2022.2.4,Win32,59.54507562,,,,,,down,0,21.4132,,-0.085742772,-0.312229997,1,0,0,0,57,57,78,1,leren,images/br_leren.png,images/cb_leren.png,0,,,,,,,,,,,,,,,,,,,,,,
,,,,,00048,2023-10-06_23h27.40.843,vbt_B2_day3,2022.2.4,Win32,59.54507562,,,,,,down,0,4.3489,,-0.085742772,-0.312229997,1,0,0,0,58,58,111,1,ticket,images/br_ticket.png,images/cb_ticket.png,0,,,,,,,,,,,,,,,,,,,,,,
,,,,,00048,2023-10-06_23h27.40.843,vbt_B2_day3,2022.2.4,Win32,59.54507562,,,,,,down,0,2.6487,,-0.085742772,-0.312229997,1,0,0,0,59,59,168,1,bisschop,images/br_bisschop.png,images/cb_bisschop.png,0,,,,,,,,,,,,,,,,,,,,,,
,,,,,00048,2023-10-06_23h27.40.843,vbt_B2_day3,2022.2.4,Win32,59.54507562,,,,,,down,0,26.0392,,-0.085742772,-0.312229997,1,0,0,0,60,60,152,1,afnemen,images/br_afnemen.png,images/cb_afnemen.png,0,,,,,,,,,,,,,,,,,,,,,,
,,,,,00048,2023-10-06_23h27.40.843,vbt_B2_day3,2022.2.4,Win32,59.54507562,,,,,,down,0,2.8583,,-0.085742772,-0.312229997,1,0,0,0,61,61,94,1,oceaan,images/br_oceaan.png,images/cb_oceaan.png,0,,,,,,,,,,,,,,,,,,,,,,
,,,,,00048,2023-10-06_23h27.40.843,vbt_B2_day3,2022.2.4,Win32,59.54507562,,,,,,down,0,4.5511,,-0.085742772,-0.312229997,1,0,0,0,62,62,193,1,weeshuis,images/br_weeshuis.png,images/cb_weeshuis.png,0,,,,,,,,,,,,,,,,,,,,,,
,,,,,00048,2023-10-06_23h27.40.843,vbt_B2_day3,2022.2.4,Win32,59.54507562,,,,,,down,0,12.0501,,-0.085742772,-0.312229997,1,0,0,0,63,63,69,1,waken,images/br_waken.png,images/cb_waken.png,0,,,,,,,,,,,,,,,,,,,,,,
,,,,,00048,2023-10-06_23h27.40.843,vbt_B2_day3,2022.2.4,Win32,59.54507562,,,,,,down,0,2.5939,,-0.085742772,-0.312229997,1,0,0,0,64,64,105,1,wijlen,images/br_wijlen.png,images/cb_wijlen.png,0,,,,,,,,,,,,,,,,,,,,,,
,,,,,00048,2023-10-06_23h27.40.843,vbt_B2_day3,2022.2.4,Win32,59.54507562,,,,,,down,0,5.0687,,-0.085742772,-0.312229997,1,0,0,0,65,65,4,1,moes,images/br_moes.png,images/cb_moes.png,0,,,,,,,,,,,,,,,,,,,,,,
,,,,,00048,2023-10-06_23h27.40.843,vbt_B2_day3,2022.2.4,Win32,59.54507562,,,,,,down,0,9.001,,-0.086407404,-0.312229997,1,0,0,0,66,66,147,1,komisch,images/br_komisch.png,images/cb_komisch.png,0,,,,,,,,,,,,,,,,,,,,,,
,,,,,00048,2023-10-06_23h27.40.843,vbt_B2_day3,2022.2.4,Win32,59.54507562,,,,,,down,0,2.7847,,-0.08773679,-0.314224015,1,0,0,0,67,67,44,1,flits,images/br_flits.png,images/cb_flits.png,0,,,,,,,,,,,,,,,,,,,,,,
,,,,,00048,2023-10-06_23h27.40.843,vbt_B2_day3,2022.2.4,Win32,59.54507562,,,,,,down,0,2.4237,,-0.08773679,-0.314224015,1,0,0,0,68,68,92,1,geheim,images/br_geheim.png,images/cb_geheim.png,0,,,,,,,,,,,,,,,,,,,,,,
,,,,,00048,2023-10-06_23h27.40.843,vbt_B2_day3,2022.2.4,Win32,59.54507562,,,,,,down,0,3.7341,,-0.08773679,-0.314224015,1,0,0,0,69,69,41,1,maken,images/br_maken.png,images/cb_maken.png,0,,,,,,,,,,,,,,,,,,,,,,
,,,,,00048,2023-10-06_23h27.40.843,vbt_B2_day3,2022.2.4,Win32,59.54507562,,,,,,down,0,1.1647,,-0.08773679,-0.314224015,1,0,0,0,70,70,11,1,mode,images/br_mode.png,images/cb_mode.png,0,,,,,,,,,,,,,,,,,,,,,,
,,,,,00048,2023-10-06_23h27.40.843,vbt_B2_day3,2022.2.4,Win32,59.54507562,,,,,,down,0,4.7467,,-0.08773679,-0.314224015,0,0,1,0,71,71,155,1,gerucht,images/br_gerucht.png,images/cb_gerucht.png,0,,,,,,,,,,,,,,,,,,,,,,
,,,,,00048,2023-10-06_23h27.40.843,vbt_B2_day3,2022.2.4,Win32,59.54507562,,,,,,down,0,12.4742,,-0.08773679,-0.31555334,1,0,0,0,72,72,30,1,uien,images/br_uien.png,images/cb_uien.png,0,,,,,,,,,,,,,,,,,,,,,,
,,,,,00048,2023-10-06_23h27.40.843,vbt_B2_day3,2022.2.4,Win32,59.54507562,,,,,,down,0,63.9892,,-0.078431332,-0.358757103,1,0,0,0,73,73,140,1,blijven,images/br_blijven.png,images/cb_blijven.png,1,bli.ven,,,,,,,,,,,,,,,,,,,,,
,,,,,00048,2023-10-06_23h27.40.843,vbt_B2_day3,2022.2.4,Win32,59.54507562,,,,,,down,0,15.2982,,-0.078431332,-0.358757103,1,0,0,0,74,74,188,1,strekken,images/br_strekken.png,images/cb_strekken.png,0,,,,,,,,,,,,,,,,,,,,,,
,,,,,00048,2023-10-06_23h27.40.843,vbt_B2_day3,2022.2.4,Win32,59.54507562,,,,,,down,0,7.3838,,-0.078431332,-0.358757103,1,0,0,0,75,75,144,1,eetlust,images/br_eetlust.png,images/cb_eetlust.png,0,,,,,,,,,,,,,,,,,,,,,,
,,,,,00048,2023-10-06_23h27.40.843,vbt_B2_day3,2022.2.4,Win32,59.54507562,,,,,,down,0,3.681,,-0.078431332,-0.358757103,1,0,0,0,76,76,110,1,zuster,images/br_zuster.png,images/cb_zuster.png,0,,,,,,,,,,,,,,,,,,,,,,
,,,,,00048,2023-10-06_23h27.40.843,vbt_B2_day3,2022.2.4,Win32,59.54507562,,,,,,down,0,2.9675,,-0.078431332,-0.358757103,1,0,0,0,77,77,80,1,kanjer,images/br_kanjer.png,images/cb_kanjer.png,0,,,,,,,,,,,,,,,,,,,,,,
,,,,,00048,2023-10-06_23h27.40.843,vbt_B2_day3,2022.2.4,Win32,59.54507562,,,,,,down,0,5.3019,,-0.078431332,-0.358757103,1,0,0,0,78,78,101,1,staren,images/br_staren.png,images/cb_staren.png,1,staren,,,,,,,,,,,,,,,,,,,,,
,,,,,00048,2023-10-06_23h27.40.843,vbt_B2_day3,2022.2.4,Win32,59.54507562,,,,,,down,0,1.1999,,-0.078431332,-0.358757103,1,0,0,0,79,79,163,1,schuilen,images/br_schuilen.png,images/cb_schuilen.png,0,,,,,,,,,,,,,,,,,,,,,,
,,,,,00048,2023-10-06_23h27.40.843,vbt_B2_day3,2022.2.4,Win32,59.54507562,,,,,,down,0,23.3175,,-0.078431332,-0.358757103,1,0,0,0,80,80,0,1,slak,images/br_slak.png,images/cb_slak.png,0,,,,,,,,,,,,,,,,,,,,,,
,,,,,00048,2023-10-06_23h27.40.843,vbt_B2_day3,2022.2.4,Win32,59.54507562,,,,,,down,0,13.7342,,-0.078431332,-0.358757103,1,0,0,0,81,81,57,1,steek,images/br_steek.png,images/cb_steek.png,0,,,,,,,,,,,,,,,,,,,,,,
,,,,,00048,2023-10-06_23h27.40.843,vbt_B2_day3,2022.2.4,Win32,59.54507562,,,,,,down,0,13.5999,,-0.078431332,-0.358757103,1,0,0,0,82,82,18,1,blik,images/br_blik.png,images/cb_blik.png,0,,,,,,,,,,,,,,,,,,,,,,
,,,,,00048,2023-10-06_23h27.40.843,vbt_B2_day3,2022.2.4,Win32,59.54507562,,,,,,down,0,12.8584,,-0.078431332,-0.358757103,1,0,0,0,83,83,7,1,geld,images/br_geld.png,images/cb_geld.png,0,,,,,,,,,,,,,,,,,,,,,,
,,,,,00048,2023-10-06_23h27.40.843,vbt_B2_day3,2022.2.4,Win32,59.54507562,,,,,,down,0,6.7364,,-0.078431332,-0.358757103,1,0,0,0,84,84,170,1,schatten,images/br_schatten.png,images/cb_schatten.png,0,,,,,,,,,,,,,,,,,,,,,,
,,,,,00048,2023-10-06_23h27.40.843,vbt_B2_day3,2022.2.4,Win32,59.54507562,,,,,,down,0,9.3879,,-0.078431332,-0.358757103,1,0,0,0,85,85,184,1,aandelen,images/br_aandelen.png,images/cb_aandelen.png,0,,,,,,,,,,,,,,,,,,,,,,
,,,,,00048,2023-10-06_23h27.40.843,vbt_B2_day3,2022.2.4,Win32,59.54507562,,,,,,down,0,8.1975,,-0.078431332,-0.358757103,1,0,0,0,86,86,166,1,strikken,images/br_strikken.png,images/cb_strikken.png,0,,,,,,,,,,,,,,,,,,,,,,
,,,,,00048,2023-10-06_23h27.40.843,vbt_B2_day3,2022.2.4,Win32,59.54507562,,,,,,down,0,14.4187,,-0.078431332,-0.358757103,1,0,0,0,87,87,34,1,vorm,images/br_vorm.png,images/cb_vorm.png,0,,,,,,,,,,,,,,,,,,,,,,
,,,,,00048,2023-10-06_23h27.40.843,vbt_B2_day3,2022.2.4,Win32,59.54507562,,,,,,down,0,8.5834,,-0.078431332,-0.358757103,1,0,0,0,88,88,65,1,parel,images/br_parel.png,images/cb_parel.png,0,,,,,,,,,,,,,,,,,,,,,,
,,,,,00048,2023-10-06_23h27.40.843,vbt_B2_day3,2022.2.4,Win32,59.54507562,,,,,,down,0,5.6016,,-0.078431332,-0.358757103,1,0,0,0,89,89,127,1,doodmoe,images/br_doodmoe.png,images/cb_doodmoe.png,0,,,,,,,,,,,,,,,,,,,,,,
,,,,,00048,2023-10-06_23h27.40.843,vbt_B2_day3,2022.2.4,Win32,59.54507562,,,,,,down,0,5.1037,,-0.078431332,-0.358757103,1,0,0,0,90,90,27,1,dans,images/br_dans.png,images/cb_dans.png,0,,,,,,,,,,,,,,,,,,,,,,
,,,,,00048,2023-10-06_23h27.40.843,vbt_B2_day3,2022.2.4,Win32,59.54507562,,,,,,down,0,6.5964,,-0.078431332,-0.358757103,1,0,0,0,91,91,197,1,spanning,images/br_spanning.png,images/cb_spanning.png,0,,,,,,,,,,,,,,,,,,,,,,
,,,,,00048,2023-10-06_23h27.40.843,vbt_B2_day3,2022.2.4,Win32,59.54507562,,,,,,down,0,2.644,,-0.078431332,-0.358757103,1,0,0,0,92,92,199,1,beseffen,images/br_beseffen.png,images/cb_beseffen.png,0,,,,,,,,,,,,,,,,,,,,,,
,,,,,00048,2023-10-06_23h27.40.843,vbt_B2_day3,2022.2.4,Win32,59.54507562,,,,,,down,0,6.6869,,-0.078431332,-0.358757103,1,0,0,0,93,93,130,1,keihard,images/br_keihard.png,images/cb_keihard.png,0,,,,,,,,,,,,,,,,,,,,,,
,,,,,00048,2023-10-06_23h27.40.843,vbt_B2_day3,2022.2.4,Win32,59.54507562,,,,,,down,0,4.7343,,-0.078431332,-0.358757103,1,0,0,0,94,94,99,1,koffie,images/br_koffie.png,images/cb_koffie.png,0,,,,,,,,,,,,,,,,,,,,,,
,,,,,00048,2023-10-06_23h27.40.843,vbt_B2_day3,2022.2.4,Win32,59.54507562,,,,,,down,0,9.3178,,-0.078431332,-0.358757103,1,0,0,0,95,95,66,1,lever,images/br_lever.png,images/cb_lever.png,0,,,,,,,,,,,,,,,,,,,,,,
,,,,,00048,2023-10-06_23h27.40.843,vbt_B2_day3,2022.2.4,Win32,59.54507562,,,,,,down,0,14.7815,,-0.063143881,-0.302259907,1,0,0,0,96,96,62,1,knaap,images/br_knaap.png,images/cb_knaap.png,1,knaap,,,,,,,,,,,,,,,,,,,,,
,,,,,00048,2023-10-06_23h27.40.843,vbt_B2_day3,2022.2.4,Win32,59.54507562,,,,,,down,0,5.3016,,-0.063143881,-0.302259907,1,0,0,0,97,97,194,1,driemaal,images/br_driemaal.png,images/cb_driemaal.png,0,,,,,,,,,,,,,,,,,,,,,,
,,,,,00048,2023-10-06_23h27.40.843,vbt_B2_day3,2022.2.4,Win32,59.54507562,,,,,,down,0,9.2501,,-0.063143881,-0.302259907,1,0,0,0,98,98,8,1,knie,images/br_knie.png,images/cb_knie.png,0,,,,,,,,,,,,,,,,,,,,,,
,,,,,00048,2023-10-06_23h27.40.843,vbt_B2_day3,2022.2.4,Win32,59.54507562,,,,,,down,0,9.9652,,-0.063143881,-0.302259907,1,0,0,0,99,99,192,1,schaamte,images/br_schaamte.png,images/cb_schaamte.png,0,,,,,,,,,,,,,,,,,,,,,,
,,,,,00048,2023-10-06_23h27.40.843,vbt_B2_day3,2022.2.4,Win32,59.54507562,,,,,,down,0,2.8456,,-0.063143881,-0.302259907,1,0,0,0,100,100,45,1,piste,images/br_piste.png,images/cb_piste.png,0,,,,,,,,,,,,,,,,,,,,,,
,,,,,00048,2023-10-06_23h27.40.843,vbt_B2_day3,2022.2.4,Win32,59.54507562,,,,,,down,0,1.2809,,-0.068461242,-0.302259907,1,0,0,0,101,101,86,1,woning,images/br_woning.png,images/cb_woning.png,0,,,,,,,,,,,,,,,,,,,,,,
,,,,,00048,2023-10-06_23h27.40.843,vbt_B2_day3,2022.2.4,Win32,59.54507562,,,,,,down,0,10.9683,,-0.068461242,-0.302259907,1,0,0,0,102,102,190,1,goedkoop,images/br_goedkoop.png,images/cb_goedkoop.png,0,,,,,,,,,,,,,,,,,,,,,,
,,,,,00048,2023-10-06_23h27.40.843,vbt_B2_day3,2022.2.4,Win32,59.54507562,,,,,,down,0,8.157,,-0.068461242,-0.302259907,1,0,0,0,103,103,177,1,maaltijd,images/br_maaltijd.png,images/cb_maaltijd.png,0,,,,,,,,,,,,,,,,,,,,,,
,,,,,00048,2023-10-06_23h27.40.843,vbt_B2_day3,2022.2.4,Win32,59.54507562,,,,,,down,0,8.0847,,-0.068461242,-0.302259907,1,0,0,0,104,104,126,1,kasteel,images/br_kasteel.png,images/cb_kasteel.png,0,,,,,,,,,,,,,,,,,,,,,,
,,,,,00048,2023-10-06_23h27.40.843,vbt_B2_day3,2022.2.4,Win32,59.54507562,,,,,,down,0,13.405,,-0.068461242,-0.302259907,1,0,0,0,105,105,90,1,geluid,images/br_geluid.png,images/cb_geluid.png,0,,,,,,,,,,,,,,,,,,,,,,
,,,,,00048,2023-10-06_23h27.40.843,vbt_B2_day3,2022.2.4,Win32,59.54507562,,,,,,down,0,12.2024,,-0.068461242,-0.302259907,1,0,0,0,106,106,125,1,aanzien,images/br_aanzien.png,images/cb_aanzien.png,0,,,,,,,,,,,,,,,,,,,,,,
,,,,,00048,2023-10-06_23h27.40.843,vbt_B2_day3,2022.2.4,Win32,59.54507562,,,,,,down,0,4.3016,,-0.068461242,-0.302259907,1,0,0,0,107,107,118,1,vinger,images/br_vinger.png,images/cb_vinger.png,0,,,,,,,,,,,,,,,,,,,,,,
,,,,,00048,2023-10-06_23h27.40.843,vbt_B2_day3,2022.2.4,Win32,59.54507562,,,,,,down,0,5.3795,,-0.068461242,-0.302259907,1,0,0,0,108,108,136,1,waarbij,images/br_waarbij.png,images/cb_waarbij.png,0,,,,,,,,,,,,,,,,,,,,,,
,,,,,00048,2023-10-06_23h27.40.843,vbt_B2_day3,2022.2.4,Win32,59.54507562,,,,,,down,0,15.9442,,-0.068461242,-0.302259907,1,0,0,0,109,109,37,1,mijn,images/br_mijn.png,images/cb_mijn.png,0,,,,,,,,,,,,,,,,,,,,,,
,,,,,00048,2023-10-06_23h27.40.843,vbt_B2_day3,2022.2.4,Win32,59.54507562,,,,,,down,0,2.2668,,-0.068461242,-0.302259907,1,0,0,0,110,110,195,1,middelen,images/br_middelen.png,images/cb_middelen.png,0,,,,,,,,,,,,,,,,,,,,,,
,,,,,00048,2023-10-06_23h27.40.843,vbt_B2_day3,2022.2.4,Win32,59.54507562,,,,,,down,0,2.5847,,-0.068461242,-0.302259907,1,0,0,0,111,111,160,1,daarheen,images/br_daarheen.png,images/cb_daarheen.png,0,,,,,,,,,,,,,,,,,,,,,,
,,,,,00048,2023-10-06_23h27.40.843,vbt_B2_day3,2022.2.4,Win32,59.54507562,,,,,,down,0,1.7842,,-0.068461242,-0.302259907,1,0,0,0,112,112,196,1,nakijken,images/br_nakijken.png,images/cb_nakijken.png,0,,,,,,,,,,,,,,,,,,,,,,
,,,,,00048,2023-10-06_23h27.40.843,vbt_B2_day3,2022.2.4,Win32,59.54507562,,,,,,down,0,2.0181,,-0.068461242,-0.302259907,1,0,0,0,113,113,85,1,heilig,images/br_heilig.png,images/cb_heilig.png,0,,,,,,,,,,,,,,,,,,,,,,
,,,,,00048,2023-10-06_23h27.40.843,vbt_B2_day3,2022.2.4,Win32,59.54507562,,,,,,down,0,0.971,,-0.068461242,-0.302259907,1,0,0,0,114,114,48,1,steel,images/br_steel.png,images/cb_steel.png,0,,,,,,,,,,,,,,,,,,,,,,
,,,,,00048,2023-10-06_23h27.40.843,vbt_B2_day3,2022.2.4,Win32,59.54507562,,,,,,down,0,8.3547,,-0.068461242,-0.302259907,1,0,0,0,115,115,142,1,snuiven,images/br_snuiven.png,images/cb_snuiven.png,1,snuiven,,,,,,,,,,,,,,,,,,,,,
,,,,,00048,2023-10-06_23h27.40.843,vbt_B2_day3,2022.2.4,Win32,59.54507562,,,,,,down,0,18.669,,-0.068461242,-0.302259907,1,0,0,0,116,116,75,1,snoep,images/br_snoep.png,images/cb_snoep.png,0,,,,,,,,,,,,,,,,,,,,,,
,,,,,00048,2023-10-06_23h27.40.843,vbt_B2_day3,2022.2.4,Win32,59.54507562,,,,,,down,0,10.1022,,-0.068461242,-0.302259907,1,0,0,0,117,117,159,1,sufferd,images/br_sufferd.png,images/cb_sufferd.png,0,,,,,,,,,,,,,,,,,,,,,,
,,,,,00048,2023-10-06_23h27.40.843,vbt_B2_day3,2022.2.4,Win32,59.54507562,,,,,,down,0,6.2811,,-0.068461242,-0.302259907,1,0,0,0,118,118,124,1,bloeien,images/br_bloeien.png,images/cb_bloeien.png,0,,,,,,,,,,,,,,,,,,,,,,
,,,,,00048,2023-10-06_23h27.40.843,vbt_B2_day3,2022.2.4,Win32,59.54507562,,,,,,down,0,5.267,,-0.068461242,-0.302259907,1,0,0,0,119,119,87,1,toeval,images/br_toeval.png,images/cb_toeval.png,0,,,,,,,,,,,,,,,,,,,,,,
,,,,,00048,2023-10-06_23h27.40.843,vbt_B2_day3,2022.2.4,Win32,59.54507562,,,,,,down,0,6.4686,,-0.068461242,-0.302259907,1,0,0,0,120,120,162,1,uitdelen,images/br_uitdelen.png,images/cb_uitdelen.png,0,,,,,,,,,,,,,,,,,,,,,,
,,,,,00048,2023-10-06_23h27.40.843,vbt_B2_day3,2022.2.4,Win32,59.54507562,,,,,,down,0,7.3412,,-0.068461242,-0.302259907,1,0,0,0,121,121,58,1,tekst,images/br_tekst.png,images/cb_tekst.png,0,,,,,,,,,,,,,,,,,,,,,,
,,,,,00048,2023-10-06_23h27.40.843,vbt_B2_day3,2022.2.4,Win32,59.54507562,,,,,,down,0,5.8217,,-0.068461242,-0.302259907,1,0,0,0,122,122,172,1,weigeren,images/br_weigeren.png,images/cb_weigeren.png,0,,,,,,,,,,,,,,,,,,,,,,
,,,,,00048,2023-10-06_23h27.40.843,vbt_B2_day3,2022.2.4,Win32,59.54507562,,,,,,down,0,3.3345,,-0.068461242,-0.302259907,1,0,0,0,123,123,145,1,invloed,images/br_invloed.png,images/cb_invloed.png,0,,,,,,,,,,,,,,,,,,,,,,
,,,,,00048,2023-10-06_23h27.40.843,vbt_B2_day3,2022.2.4,Win32,59.54507562,,,,,,down,0,5.1975,,-0.068461242,-0.302259907,1,0,0,0,124,124,173,1,apparaat,images/br_apparaat.png,images/cb_apparaat.png,0,,,,,,,,,,,,,,,,,,,,,,
,,,,,00048,2023-10-06_23h27.40.843,vbt_B2_day3,2022.2.4,Win32,59.54507562,,,,,,down,0,9.8683,,-0.068461242,-0.302259907,1,0,0,0,125,125,53,1,baron,images/br_baron.png,images/cb_baron.png,0,,,,,,,,,,,,,,,,,,,,,,
,,,,,00048,2023-10-06_23h27.40.843,vbt_B2_day3,2022.2.4,Win32,59.54507562,,,,,,down,0,7.7722,,-0.068461242,-0.302259907,1,0,0,0,126,126,121,1,twijfel,images/br_twijfel.png,images/cb_twijfel.png,0,,,,,,,,,,,,,,,,,,,,,,
,,,,,00048,2023-10-06_23h27.40.843,vbt_B2_day3,2022.2.4,Win32,59.54507562,,,,,,down,0,2.7507,,-0.06779661,-0.309571286,1,0,0,0,127,127,128,1,prikken,images/br_prikken.png,images/cb_prikken.png,0,,,,,,,,,,,,,,,,,,,,,,
,,,,,00048,2023-10-06_23h27.40.843,vbt_B2_day3,2022.2.4,Win32,59.54507562,,,,,,down,0,5.074,,-0.06779661,-0.309571286,1,0,0,0,128,128,120,1,klimmen,images/br_klimmen.png,images/cb_klimmen.png,0,,,,,,,,,,,,,,,,,,,,,,
,,,,,00048,2023-10-06_23h27.40.843,vbt_B2_day3,2022.2.4,Win32,59.54507562,,,,,,down,0,15.1726,,0.047191799,-0.310235979,1,0,0,0,129,129,102,1,legaal,images/br_legaal.png,images/cb_legaal.png,1,legaal,,,,,,,,,,,,,,,,,,,,,
,,,,,00048,2023-10-06_23h27.40.843,vbt_B2_day3,2022.2.4,Win32,59.54507562,,,,,,down,0,1.5063,,0.047191799,-0.310235979,1,0,0,0,130,130,47,1,kabel,images/br_kabel.png,images/cb_kabel.png,0,,,,,,,,,,,,,,,,,,,,,,
,,,,,00048,2023-10-06_23h27.40.843,vbt_B2_day3,2022.2.4,Win32,59.54507562,,,,,,down,0,7.8844,,0.047191799,-0.310235979,1,0,0,0,131,131,148,1,smullen,images/br_smullen.png,images/cb_smullen.png,0,,,,,,,,,,,,,,,,,,,,,,
,,,,,00048,2023-10-06_23h27.40.843,vbt_B2_day3,2022.2.4,Win32,59.54507562,,,,,,down,0,14.2108,,0.047191799,-0.310235979,1,0,0,0,132,132,109,1,totaal,images/br_totaal.png,images/cb_totaal.png,0,,,,,,,,,,,,,,,,,,,,,,
,,,,,00048,2023-10-06_23h27.40.843,vbt_B2_day3,2022.2.4,Win32,59.54507562,,,,,,down,0,9.6663,,0.047191799,-0.310235979,0,0,1,0,133,133,113,1,koppen,images/br_koppen.png,images/cb_koppen.png,0,,,,,,,,,,,,,,,,,,,,,,
,,,,,00048,2023-10-06_23h27.40.843,vbt_B2_day3,2022.2.4,Win32,59.54507562,,,,,,down,0,60.1384,,-0.041209684,-0.342804959,1,0,0,0,134,134,73,1,volop,images/br_volop.png,images/cb_volop.png,0,,,,,,,,,,,,,,,,,,,,,,
,,,,,00048,2023-10-06_23h27.40.843,vbt_B2_day3,2022.2.4,Win32,59.54507562,,,,,,down,0,14.401,,-0.041209684,-0.342804959,1,0,0,0,135,135,182,1,bijkomen,images/br_bijkomen.png,images/cb_bijkomen.png,1,bijkomen,,,,,,,,,,,,,,,,,,,,,
,,,,,00048,2023-10-06_23h27.40.843,vbt_B2_day3,2022.2.4,Win32,59.54507562,,,,,,down,0,21.4282,,-0.041209684,-0.342804959,1,0,0,0,136,136,36,1,vuur,images/br_vuur.png,images/cb_vuur.png,0,,,,,,,,,,,,,,,,,,,,,,
,,,,,00048,2023-10-06_23h27.40.843,vbt_B2_day3,2022.2.4,Win32,59.54507562,,,,,,down,0,4.3847,,-0.041209684,-0.342804959,1,0,0,0,137,137,176,1,techniek,images/br_techniek.png,images/cb_techniek.png,0,,,,,,,,,,,,,,,,,,,,,,
,,,,,00048,2023-10-06_23h27.40.843,vbt_B2_day3,2022.2.4,Win32,59.54507562,,,,,,down,0,14.5603,,-0.041209684,-0.342804959,1,0,0,0,138,138,67,1,zwart,images/br_zwart.png,images/cb_zwart.png,0,,,,,,,,,,,,,,,,,,,,,,
,,,,,00048,2023-10-06_23h27.40.843,vbt_B2_day3,2022.2.4,Win32,59.54507562,,,,,,down,0,8.6514,,-0.044533027,-0.342804959,1,0,0,0,139,139,158,1,innemen,images/br_innemen.png,images/cb_innemen.png,0,,,,,,,,,,,,,,,,,,,,,,
,,,,,00048,2023-10-06_23h27.40.843,vbt_B2_day3,2022.2.4,Win32,59.54507562,,,,,,down,0,1.8345,,-0.044533027,-0.342804959,1,0,0,0,140,140,55,1,praat,images/br_praat.png,images/cb_praat.png,0,,,,,,,,,,,,,,,,,,,,,,
,,,,,00048,2023-10-06_23h27.40.843,vbt_B2_day3,2022.2.4,Win32,59.54507562,,,,,,down,0,4.6795,,-0.044533027,-0.342804959,1,0,0,0,141,141,52,1,wagon,images/br_wagon.png,images/cb_wagon.png,0,,,,,,,,,,,,,,,,,,,,,,
,,,,,00048,2023-10-06_23h27.40.843,vbt_B2_day3,2022.2.4,Win32,59.54507562,,,,,,down,0,8.8497,,-0.044533027,-0.342804959,1,0,0,0,142,142,100,1,geduld,images/br_geduld.png,images/cb_geduld.png,1,geduld,,,,,,,,,,,,,,,,,,,,,
,,,,,00048,2023-10-06_23h27.40.843,vbt_B2_day3,2022.2.4,Win32,59.54507562,,,,,,down,0,29.3699,,-0.044533027,-0.342804959,1,0,0,0,143,143,106,1,zingen,images/br_zingen.png,images/cb_zingen.png,0,,,,,,,,,,,,,,,,,,,,,,
,,,,,00048,2023-10-06_23h27.40.843,vbt_B2_day3,2022.2.4,Win32,59.54507562,,,,,,down,0,2.0173,,-0.044533027,-0.342804959,1,0,0,0,144,144,123,1,hiervan,images/br_hiervan.png,images/cb_hiervan.png,0,,,,,,,,,,,,,,,,,,,,,,
,,,,,00048,2023-10-06_23h27.40.843,vbt_B2_day3,2022.2.4,Win32,59.54507562,,,,,,down,0,5.7832,,-0.044533027,-0.342804959,1,0,0,0,145,145,77,1,woede,images/br_woede.png,images/cb_woede.png,0,,,,,,,,,,,,,,,,,,,,,,
,,,,,00048,2023-10-06_23h27.40.843,vbt_B2_day3,2022.2.4,Win32,59.54507562,,,,,,down,0,5.6429,,-0.044533027,-0.342804959,1,0,0,0,146,146,61,1,groen,images/br_groen.png,images/cb_groen.png,1,groen,,,,,,,,,,,,,,,,,,,,,
,,,,,00048,2023-10-06_23h27.40.843,vbt_B2_day3,2022.2.4,Win32,59.54507562,,,,,,down,0,7.3003,,-0.044533027,-0.342804959,1,0,0,0,147,147,154,1,aflopen,images/br_aflopen.png,images/cb_aflopen.png,0,,,,,,,,,,,,,,,,,,,,,,
,,,,,00048,2023-10-06_23h27.40.843,vbt_B2_day3,2022.2.4,Win32,59.54507562,,,,,,down,0,15.4505,,-0.044533027,-0.342804959,1,0,0,0,148,148,157,1,uitlaat,images/br_uitlaat.png,images/cb_uitlaat.png,0,,,,,,,,,,,,,,,,,,,,,,
,,,,,00048,2023-10-06_23h27.40.843,vbt_B2_day3,2022.2.4,Win32,59.54507562,,,,,,down,0,6.4336,,-0.044533027,-0.342804959,1,0,0,0,149,149,43,1,klauw,images/br_klauw.png,images/cb_klauw.png,0,,,,,,,,,,,,,,,,,,,,,,
,,,,,00048,2023-10-06_23h27.40.843,vbt_B2_day3,2022.2.4,Win32,59.54507562,,,,,,down,0,9.7285,,-0.044533027,-0.342804959,1,0,0,0,150,150,174,1,stemming,images/br_stemming.png,images/cb_stemming.png,0,,,,,,,,,,,,,,,,,,,,,,
,,,,,00048,2023-10-06_23h27.40.843,vbt_B2_day3,2022.2.4,Win32,59.54507562,,,,,,down,0,2.3174,,0.017281529,-0.139415129,1,0,0,0,151,151,137,1,trekker,images/br_trekker.png,images/cb_trekker.png,0,,,,,,,,,,,,,,,,,,,,,,
,,,,,00048,2023-10-06_23h27.40.843,vbt_B2_day3,2022.2.4,Win32,59.54507562,,,,,,down,0,1.3175,,0.017281529,-0.139415129,1,0,0,0,152,152,2,1,jaar,images/br_jaar.png,images/cb_jaar.png,0,,,,,,,,,,,,,,,,,,,,,,
,,,,,00048,2023-10-06_23h27.40.843,vbt_B2_day3,2022.2.4,Win32,59.54507562,,,,,,down,0,0.2823,,-0.001994018,-0.146061815,1,0,0,0,153,153,88,1,boeien,images/br_boeien.png,images/cb_boeien.png,0,,,,,,,,,,,,,,,,,,,,,,
,,,,,00048,2023-10-06_23h27.40.843,vbt_B2_day3,2022.2.4,Win32,59.54507562,,,,,,down,0,0.2499,,-0.001994018,-0.146061815,1,0,0,0,154,154,167,1,eenhoorn,images/br_eenhoorn.png,images/cb_eenhoorn.png,0,,,,,,,,,,,,,,,,,,,,,,
,,,,,00048,2023-10-06_23h27.40.843,vbt_B2_day3,2022.2.4,Win32,59.54507562,,,,,,down,0,4.0349,,-0.001994018,-0.146061815,1,0,0,0,155,155,3,1,mand,images/br_mand.png,images/cb_mand.png,0,,,,,,,,,,,,,,,,,,,,,,
,,,,,00048,2023-10-06_23h27.40.843,vbt_B2_day3,2022.2.4,Win32,59.54507562,,,,,,down,0,8.5016,,-0.001994018,-0.146061815,1,0,0,0,156,156,95,1,vreten,images/br_vreten.png,images/cb_vreten.png,0,,,,,,,,,,,,,,,,,,,,,,
,,,,,00048,2023-10-06_23h27.40.843,vbt_B2_day3,2022.2.4,Win32,59.54507562,,,,,,down,0,5.0627,,-0.001994018,-0.146061815,1,0,0,0,157,157,22,1,stof,images/br_stof.png,images/cb_stof.png,1,stof,,,,,,,,,,,,,,,,,,,,,
,,,,,00048,2023-10-06_23h27.40.843,vbt_B2_day3,2022.2.4,Win32,59.54507562,,,,,,down,0,10.4181,,-0.001994018,-0.146061815,1,0,0,0,158,158,183,1,getuigen,images/br_getuigen.png,images/cb_getuigen.png,1,,,,,,,,,,,,,,,,,,,,,,
,,,,,00048,2023-10-06_23h27.40.843,vbt_B2_day3,2022.2.4,Win32,59.54507562,,,,,,down,0,1.6497,,-0.001994018,-0.146061815,1,0,0,0,159,159,31,1,poes,images/br_poes.png,images/cb_poes.png,0,,,,,,,,,,,,,,,,,,,,,,
,,,,,00048,2023-10-06_23h27.40.843,vbt_B2_day3,2022.2.4,Win32,59.54507562,,,,,,down,0,9.2232,,-0.001994018,-0.146061815,1,0,0,0,160,160,81,1,dubbel,images/br_dubbel.png,images/cb_dubbel.png,0,,,,,,,,,,,,,,,,,,,,,,
,,,,,00048,2023-10-06_23h27.40.843,vbt_B2_day3,2022.2.4,Win32,59.54507562,,,,,,down,0,35.7864,,-0.001994018,-0.146061815,1,0,0,0,161,161,165,1,feestdag,images/br_feestdag.png,images/cb_feestdag.png,0,,,,,,,,,,,,,,,,,,,,,,
,,,,,00048,2023-10-06_23h27.40.843,vbt_B2_day3,2022.2.4,Win32,59.54507562,,,,,,down,0,16.1505,,-0.001994018,-0.146061815,1,0,0,0,162,162,23,1,zout,images/br_zout.png,images/cb_zout.png,1,zout,,,,,,,,,,,,,,,,,,,,,
,,,,,00048,2023-10-06_23h27.40.843,vbt_B2_day3,2022.2.4,Win32,59.54507562,,,,,,down,0,16.0847,,-0.001994018,-0.146061815,1,0,0,0,163,163,5,1,blad,images/br_blad.png,images/cb_blad.png,0,,,,,,,,,,,,,,,,,,,,,,
,,,,,00048,2023-10-06_23h27.40.843,vbt_B2_day3,2022.2.4,Win32,59.54507562,,,,,,down,0,7.8505,,-0.008640704,-0.145397182,1,0,0,0,164,164,46,1,jagen,images/br_jagen.png,images/cb_jagen.png,0,,,,,,,,,,,,,,,,,,,,,,
,,,,,00048,2023-10-06_23h27.40.843,vbt_B2_day3,2022.2.4,Win32,59.54507562,,,,,,down,0,23.469,,-0.011964108,-0.145397182,1,0,0,0,165,165,143,1,hechten,images/br_hechten.png,images/cb_hechten.png,1,dechechten,,,,,,,,,,,,,,,,,,,,,
,,,,,00048,2023-10-06_23h27.40.843,vbt_B2_day3,2022.2.4,Win32,59.54507562,,,,,,down,0,23.2131,,-0.015952144,-0.142738472,1,0,0,0,166,166,138,1,akkoord,images/br_akkoord.png,images/cb_akkoord.png,0,,,,,,,,,,,,,,,,,,,,,,
,,,,,00048,2023-10-06_23h27.40.843,vbt_B2_day3,2022.2.4,Win32,59.54507562,,,,,,down,0,13.8317,,-0.015952144,-0.142738472,1,0,0,0,167,167,107,1,maling,images/br_maling.png,images/cb_maling.png,0,,,,,,,,,,,,,,,,,,,,,,
,,,,,00048,2023-10-06_23h27.40.843,vbt_B2_day3,2022.2.4,Win32,59.54507562,,,,,,down,0,10.3489,,-0.016616776,-0.142738472,1,0,0,0,168,168,79,1,nodig,images/br_nodig.png,images/cb_nodig.png,0,,,,,,,,,,,,,,,,,,,,,,
,,,,,00048,2023-10-06_23h27.40.843,vbt_B2_day3,2022.2.4,Win32,59.54507562,,,,,,down,0,20.1821,,-0.016616776,-0.142738472,1,0,0,0,169,169,42,1,bleek,images/br_bleek.png,images/cb_bleek.png,0,,,,,,,,,,,,,,,,,,,,,,
,,,,,00048,2023-10-06_23h27.40.843,vbt_B2_day3,2022.2.4,Win32,59.54507562,,,,,,down,0,3.3009,,-0.016616776,-0.142738472,1,0,0,0,170,170,122,1,waarvan,images/br_waarvan.png,images/cb_waarvan.png,0,,,,,,,,,,,,,,,,,,,,,,
,,,,,00048,2023-10-06_23h27.40.843,vbt_B2_day3,2022.2.4,Win32,59.54507562,,,,,,down,0,14.4678,,-0.017946162,-0.142738472,1,0,0,0,171,171,15,1,soda,images/br_soda.png,images/cb_soda.png,0,,,,,,,,,,,,,,,,,,,,,,
,,,,,00048,2023-10-06_23h27.40.843,vbt_B2_day3,2022.2.4,Win32,59.54507562,,,,,,down,0,12.4461,,-0.017946162,-0.142738472,1,0,0,0,172,172,132,1,grappen,images/br_grappen.png,images/cb_grappen.png,0,,,,,,,,,,,,,,,,,,,,,,
,,,,,00048,2023-10-06_23h27.40.843,vbt_B2_day3,2022.2.4,Win32,59.54507562,,,,,,down,0,3.2838,,-0.017946162,-0.142738472,1,0,0,0,173,173,21,1,mist,images/br_mist.png,images/cb_mist.png,1,mist,,,,,,,,,,,,,,,,,,,,,
,,,,,00048,2023-10-06_23h27.40.843,vbt_B2_day3,2022.2.4,Win32,59.54507562,,,,,,down,0,20.5993,,-0.017946162,-0.142738472,1,0,0,0,174,174,51,1,samen,images/br_samen.png,images/cb_samen.png,0,,,,,,,,,,,,,,,,,,,,,,
,,,,,00048,2023-10-06_23h27.40.843,vbt_B2_day3,2022.2.4,Win32,59.54507562,,,,,,down,0,2.974,,-0.017946162,-0.142738472,1,0,0,0,175,175,149,1,redding,images/br_redding.png,images/cb_redding.png,0,,,,,,,,,,,,,,,,,,,,,,
,,,,,00048,2023-10-06_23h27.40.843,vbt_B2_day3,2022.2.4,Win32,59.54507562,,,,,,down,0,8.8334,,-0.010634722,-0.152043868,1,0,0,0,176,176,59,1,kring,images/br_kring.png,images/cb_kring.png,0,,,,,,,,,,,,,,,,,,,,,,
,,,,,00048,2023-10-06_23h27.40.843,vbt_B2_day3,2022.2.4,Win32,59.54507562,,,,,,down,0,15.0382,,-0.010634722,-0.152043868,1,0,0,0,177,177,187,1,opkijken,images/br_opkijken.png,images/cb_opkijken.png,0,,,,,,,,,,,,,,,,,,,,,,
,,,,,00048,2023-10-06_23h27.40.843,vbt_B2_day3,2022.2.4,Win32,59.54507562,,,,,,down,0,9.9527,,-0.010634722,-0.153373254,1,0,0,0,178,178,12,1,kust,images/br_kust.png,images/cb_kust.png,0,,,,,,,,,,,,,,,,,,,,,,
,,,,,00048,2023-10-06_23h27.40.843,vbt_B2_day3,2022.2.4,Win32,59.54507562,,,,,,down,0,7.8012,,-0.010634722,-0.153373254,1,0,0,0,179,179,141,1,knielen,images/br_knielen.png,images/cb_knielen.png,1,knielen,,,,,,,,,,,,,,,,,,,,,
,,,,,00048,2023-10-06_23h27.40.843,vbt_B2_day3,2022.2.4,Win32,59.54507562,,,,,,down,0,1.9012,,-0.010634722,-0.153373254,1,0,0,0,180,180,64,1,wegen,images/br_wegen.png,images/cb_wegen.png,0,,,,,,,,,,,,,,,,,,,,,,
,,,,,00048,2023-10-06_23h27.40.843,vbt_B2_day3,2022.2.4,Win32,59.54507562,,,,,,down,0,4.5012,,-0.010634722,-0.153373254,1,0,0,0,181,181,20,1,site,images/br_site.png,images/cb_site.png,1,site,,,,,,,,,,,,,,,,,,,,,
,,,,,00048,2023-10-06_23h27.40.843,vbt_B2_day3,2022.2.4,Win32,59.54507562,,,,,,down,0,6.6847,,-0.011299415,-0.158025922,1,0,0,0,182,182,108,1,excuus,images/br_excuus.png,images/cb_excuus.png,0,,,,,,,,,,,,,,,,,,,,,,
,,,,,00048,2023-10-06_23h27.40.843,vbt_B2_day3,2022.2.4,Win32,59.54507562,,,,,,down,0,7.6902,,-0.011299415,-0.158025922,1,0,0,0,183,183,119,1,liefje,images/br_liefje.png,images/cb_liefje.png,0,,,,,,,,,,,,,,,,,,,,,,
,,,,,00048,2023-10-06_23h27.40.843,vbt_B2_day3,2022.2.4,Win32,59.54507562,,,,,,down,0,3.1346,,-0.011299415,-0.158025922,1,0,0,0,184,184,6,1,diep,images/br_diep.png,images/cb_diep.png,0,,,,,,,,,,,,,,,,,,,,,,
,,,,,00048,2023-10-06_23h27.40.843,vbt_B2_day3,2022.2.4,Win32,59.54507562,,,,,,down,0,2.813,,-0.011299415,-0.158025922,1,0,0,0,185,185,28,1,stal,images/br_stal.png,images/cb_stal.png,0,,,,,,,,,,,,,,,,,,,,,,
,,,,,00048,2023-10-06_23h27.40.843,vbt_B2_day3,2022.2.4,Win32,59.54507562,,,,,,down,0,6.4002,,-0.009305397,-0.155367272,1,0,0,0,186,186,156,1,rechten,images/br_rechten.png,images/cb_rechten.png,0,,,,,,,,,,,,,,,,,,,,,,
,,,,,00048,2023-10-06_23h27.40.843,vbt_B2_day3,2022.2.4,Win32,59.54507562,,,,,,down,0,6.7694,,-0.009305397,-0.155367272,1,0,0,0,187,187,103,1,joggen,images/br_joggen.png,images/cb_joggen.png,1,hoggen,,,,,,,,,,,,,,,,,,,,,
,,,,,00048,2023-10-06_23h27.40.843,vbt_B2_day3,2022.2.4,Win32,59.54507562,,,,,,down,0,11.7379,,-0.009305397,-0.155367272,1,0,0,0,188,188,146,1,opkomen,images/br_opkomen.png,images/cb_opkomen.png,0,,,,,,,,,,,,,,,,,,,,,,
,,,,,00048,2023-10-06_23h27.40.843,vbt_B2_day3,2022.2.4,Win32,59.54507562,,,,,,down,0,2.4808,,-0.003323343,-0.158690615,1,0,0,0,189,189,91,1,gezond,images/br_gezond.png,images/cb_gezond.png,0,,,,,,,,,,,,,,,,,,,,,,
,,,,,00048,2023-10-06_23h27.40.843,vbt_B2_day3,2022.2.4,Win32,59.54507562,,,,,,down,0,5.8038,,-0.003323343,-0.158690615,1,0,0,0,190,190,50,1,stoom,images/br_stoom.png,images/cb_stoom.png,0,,,,,,,,,,,,,,,,,,,,,,
,,,,,00048,2023-10-06_23h27.40.843,vbt_B2_day3,2022.2.4,Win32,59.54507562,,,,,,down,0,4.5843,,-0.003323343,-0.159355308,1,0,0,0,191,191,29,1,baas,images/br_baas.png,images/cb_baas.png,0,,,,,,,,,,,,,,,,,,,,,,
,,,,,00048,2023-10-06_23h27.40.843,vbt_B2_day3,2022.2.4,Win32,59.54507562,,,,,,down,0,11.3489,,-0.003323343,-0.159355308,1,0,0,0,192,192,98,1,kreeft,images/br_kreeft.png,images/cb_kreeft.png,0,,,,,,,,,,,,,,,,,,,,,,
,,,,,00048,2023-10-06_23h27.40.843,vbt_B2_day3,2022.2.4,Win32,59.54507562,,,,,,down,0,3.7006,,-0.005982054,-0.158025922,1,0,0,0,193,193,150,1,gegeven,images/br_gegeven.png,images/cb_gegeven.png,0,,,,,,,,,,,,,,,,,,,,,,
,,,,,00048,2023-10-06_23h27.40.843,vbt_B2_day3,2022.2.4,Win32,59.54507562,,,,,,down,0,2.6832,,-0.005982054,-0.158025922,1,0,0,0,194,194,72,1,strak,images/br_strak.png,images/cb_strak.png,0,,,,,,,,,,,,,,,,,,,,,,
,,,,,00048,2023-10-06_23h27.40.843,vbt_B2_day3,2022.2.4,Win32,59.54507562,,,,,,down,0,7.4999,,-0.005982054,-0.159355308,1,0,0,0,195,195,129,1,verhaal,images/br_verhaal.png,images/cb_verhaal.png,0,,,,,,,,,,,,,,,,,,,,,,
,,,,,00048,2023-10-06_23h27.40.843,vbt_B2_day3,2022.2.4,Win32,59.54507562,,,,,,down,0,4.4675,,-0.005982054,-0.159355308,1,0,0,0,196,196,49,1,laken,images/br_laken.png,images/cb_laken.png,0,,,,,,,,,,,,,,,,,,,,,,
,,,,,00048,2023-10-06_23h27.40.843,vbt_B2_day3,2022.2.4,Win32,59.54507562,,,,,,down,0,4.5847,,-0.013293433,-0.175972084,1,0,0,0,197,197,70,1,ijdel,images/br_ijdel.png,images/cb_ijdel.png,0,,,,,,,,,,,,,,,,,,,,,,
,,,,,00048,2023-10-06_23h27.40.843,vbt_B2_day3,2022.2.4,Win32,59.54507562,,,,,,down,0,6.6669,,-0.013293433,-0.175972084,1,0,0,0,198,198,56,1,traag,images/br_traag.png,images/cb_traag.png,0,,,,,,,,,,,,,,,,,,,,,,
,,,,,00048,2023-10-06_23h27.40.843,vbt_B2_day3,2022.2.4,Win32,59.54507562,,,,,,down,0,5.0837,,-0.013293433,-0.175972084,1,0,0,0,199,199,83,1,mening,images/br_mening.png,images/cb_mening.png,0,,,,,,,,,,,,,,,,,,,,,,
,,,,,00048,2023-10-06_23h27.40.843,vbt_B2_day3,2022.2.4,Win32,59.54507562,,,,,,,,,,,,,,,,,,,,,,,,,-0.013293433,-0.175972084,1,0,0,,,,,,,,,,,,,,,,
,,,,,00048,2023-10-06_23h27.40.843,vbt_B2_day3,2022.2.4,Win32,59.54507562,,,,,,,,,,,,,,,,,,,,,,,,,,,,,,-0.013293433,-0.175972084,1,0,0,,,,,,,,,,,
,,,,,00048,2023-10-06_23h27.40.843,vbt_B2_day3,2022.2.4,Win32,59.54507562,,,,,,,,,,,,,,,,,,,,glijden,images/br_glijden.png,images/cb_glijden.png,,gli..en,,,,,,,,,,,-0.013293433,-0.175972084,1,0,0,gli..en,0,0,0,53,1
,,,,,00048,2023-10-06_23h27.40.843,vbt_B2_day3,2022.2.4,Win32,59.54507562,,,,,,,,,,,,,,,,,,,,hier,images/br_hier.png,images/cb_hier.png,,hier,,,,,,,,,,,-0.013293433,-0.175972084,1,0,0,hier,0,1,1,1,1
,,,,,00048,2023-10-06_23h27.40.843,vbt_B2_day3,2022.2.4,Win32,59.54507562,,,,,,,,,,,,,,,,,,,,opzetten,images/br_opzetten.png,images/cb_opzetten.png,,opvotten,,,,,,,,,,,-0.013293433,-0.175972084,1,0,0,opvotten,0,2,2,56,1
,,,,,00048,2023-10-06_23h27.40.843,vbt_B2_day3,2022.2.4,Win32,59.54507562,,,,,,,,,,,,,,,,,,,,vlager,images/br_vlager.png,images/cb_vlager.png,,,,,,,,,,,,,-0.013293433,-0.175972084,1,0,0,,0,3,3,28,1
,,,,,00048,2023-10-06_23h27.40.843,vbt_B2_day3,2022.2.4,Win32,59.54507562,,,,,,,,,,,,,,,,,,,,begrip,images/br_begrip.png,images/cb_begrip.png,,begrip,,,,,,,,,,,-0.013293433,-0.175972084,1,0,0,begrip,0,4,4,48,1
,,,,,00048,2023-10-06_23h27.40.843,vbt_B2_day3,2022.2.4,Win32,59.54507562,,,,,,,,,,,,,,,,,,,,croo,images/br_croo.png,images/cb_croo.png,,croo,,,,,,,,,,,-0.013293433,-0.175972084,1,0,0,croo,0,5,5,22,1
,,,,,00048,2023-10-06_23h27.40.843,vbt_B2_day3,2022.2.4,Win32,59.54507562,,,,,,,,,,,,,,,,,,,,bevret,images/br_bevret.png,images/cb_bevret.png,,belren,,,,,,,,,,,-0.013293433,-0.175972084,1,0,0,belren,0,6,6,30,1
,,,,,00048,2023-10-06_23h27.40.843,vbt_B2_day3,2022.2.4,Win32,59.54507562,,,,,,,,,,,,,,,,,,,,boeien,images/br_boeien.png,images/cb_boeien.png,,boeien,,,,,,,,,,,-0.007976072,-0.141409147,1,0,0,boeien,0,7,7,8,1
,,,,,00048,2023-10-06_23h27.40.843,vbt_B2_day3,2022.2.4,Win32,59.54507562,,,,,,,,,,,,,,,,,,,,leugeren,images/br_leugeren.png,images/cb_leugeren.png,,leugeten,,,,,,,,,,,-0.160186068,-0.418577641,1,0,0,leugeten,0,8,8,37,1
,,,,,00048,2023-10-06_23h27.40.843,vbt_B2_day3,2022.2.4,Win32,59.54507562,,,,,,,,,,,,,,,,,,,,opzicht,images/br_opzicht.png,images/cb_opzicht.png,,opzicht,,,,,,,,,,,-0.085742772,-0.356763085,1,0,0,opzicht,0,9,9,15,1
,,,,,00048,2023-10-06_23h27.40.843,vbt_B2_day3,2022.2.4,Win32,59.54507562,,,,,,,,,,,,,,,,,,,,beslag,images/br_beslag.png,images/cb_beslag.png,,beslag,,,,,,,,,,,-0.085742772,-0.356763085,1,0,0,beslag,0,10,10,51,1
,,,,,00048,2023-10-06_23h27.40.843,vbt_B2_day3,2022.2.4,Win32,59.54507562,,,,,,,,,,,,,,,,,,,,brappen,images/br_brappen.png,images/cb_brappen.png,,brappen,,,,,,,,,,,-0.085742772,-0.356763085,1,0,0,brappen,0,11,11,35,1
,,,,,00048,2023-10-06_23h27.40.843,vbt_B2_day3,2022.2.4,Win32,59.54507562,,,,,,,,,,,,,,,,,,,,slapen,images/br_slapen.png,images/cb_slapen.png,,slapen,,,,,,,,,,,-0.085742772,-0.356763085,1,0,0,slapen,0,12,12,9,1
,,,,,00048,2023-10-06_23h27.40.843,vbt_B2_day3,2022.2.4,Win32,59.54507562,,,,,,,,,,,,,,,,,,,,leemaken,images/br_leemaken.png,images/cb_leemaken.png,,leemaken,,,,,,,,,,,-0.085742772,-0.356763085,1,0,0,leemaken,0,13,13,39,1
,,,,,00048,2023-10-06_23h27.40.843,vbt_B2_day3,2022.2.4,Win32,59.54507562,,,,,,,,,,,,,,,,,,,,dwang,images/br_dwang.png,images/cb_dwang.png,,..ang,,,,,,,,,,,-0.085742772,-0.356763085,1,0,0,..ang,0,14,14,47,1
,,,,,00048,2023-10-06_23h27.40.843,vbt_B2_day3,2022.2.4,Win32,59.54507562,,,,,,,,,,,,,,,,,,,,hust,images/br_hust.png,images/cb_hust.png,,lust,,,,,,,,,,,-0.085742772,-0.356763085,1,0,0,lust,0,15,15,23,1
,,,,,00048,2023-10-06_23h27.40.843,vbt_B2_day3,2022.2.4,Win32,59.54507562,,,,,,,,,,,,,,,,,,,,stallen,images/br_stallen.png,images/cb_stallen.png,,stallen,,,,,,,,,,,-0.085742772,-0.356763085,1,0,0,stallen,0,16,16,52,1
,,,,,00048,2023-10-06_23h27.40.843,vbt_B2_day3,2022.2.4,Win32,59.54507562,,,,,,,,,,,,,,,,,,,,paken,images/br_paken.png,images/cb_paken.png,,paken,,,,,,,,,,,-0.085742772,-0.356763085,1,0,0,paken,0,17,17,27,1
,,,,,00048,2023-10-06_23h27.40.843,vbt_B2_day3,2022.2.4,Win32,59.54507562,,,,,,,,,,,,,,,,,,,,kest,images/br_kest.png,images/cb_kest.png,,kest,,,,,,,,,,,-0.085742772,-0.356763085,1,0,0,kest,0,18,18,21,1
,,,,,00048,2023-10-06_23h27.40.843,vbt_B2_day3,2022.2.4,Win32,59.54507562,,,,,,,,,,,,,,,,,,,,invallen,images/br_invallen.png,images/cb_invallen.png,,invallen,,,,,,,,,,,-0.085742772,-0.356763085,1,0,0,invallen,0,19,19,57,1
,,,,,00048,2023-10-06_23h27.40.843,vbt_B2_day3,2022.2.4,Win32,59.54507562,,,,,,,,,,,,,,,,,,,,afbopen,images/br_afbopen.png,images/cb_afbopen.png,,afbopen,,,,,,,,,,,-0.085742772,-0.356763085,1,0,0,afbopen,0,20,20,34,1
,,,,,00048,2023-10-06_23h27.40.843,vbt_B2_day3,2022.2.4,Win32,59.54507562,,,,,,,,,,,,,,,,,,,,uviek,images/br_uviek.png,images/cb_uviek.png,,uviek,,,,,,,,,,,-0.085742772,-0.356763085,1,0,0,uviek,0,21,21,25,1
,,,,,00048,2023-10-06_23h27.40.843,vbt_B2_day3,2022.2.4,Win32,59.54507562,,,,,,,,,,,,,,,,,,,,twaaf,images/br_twaaf.png,images/cb_twaaf.png,,tzaar,,,,,,,,,,,-0.085742772,-0.356763085,1,0,0,tzaar,0,22,22,24,1
,,,,,00048,2023-10-06_23h27.40.843,vbt_B2_day3,2022.2.4,Win32,59.54507562,,,,,,,,,,,,,,,,,,,,eens,images/br_eens.png,images/cb_eens.png,,eens,,,,,,,,,,,-0.085742772,-0.356763085,1,0,0,eens,0,23,23,40,1
,,,,,00048,2023-10-06_23h27.40.843,vbt_B2_day3,2022.2.4,Win32,59.54507562,,,,,,,,,,,,,,,,,,,,knie,images/br_knie.png,images/cb_knie.png,,knie,,,,,,,,,,,-0.085742772,-0.356763085,1,0,0,knie,0,24,24,0,1
,,,,,00048,2023-10-06_23h27.40.843,vbt_B2_day3,2022.2.4,Win32,59.54507562,,,,,,,,,,,,,,,,,,,,onrecht,images/br_onrecht.png,images/cb_onrecht.png,,onrechs,,,,,,,,,,,-0.085742772,-0.356763085,1,0,0,onrechs,0,25,25,55,1
,,,,,00048,2023-10-06_23h27.40.843,vbt_B2_day3,2022.2.4,Win32,59.54507562,,,,,,,,,,,,,,,,,,,,booien,images/br_booien.png,images/cb_booien.png,,booien,,,,,,,,,,,-0.085742772,-0.356763085,1,0,0,booien,0,26,26,31,1
,,,,,00048,2023-10-06_23h27.40.843,vbt_B2_day3,2022.2.4,Win32,59.54507562,,,,,,,,,,,,,,,,,,,,verraden,images/br_verraden.png,images/cb_verraden.png,,verrading,,,,,,,,,,,-0.085742772,-0.356763085,1,0,0,verrading,0,27,27,58,1
,,,,,00048,2023-10-06_23h27.40.843,vbt_B2_day3,2022.2.4,Win32,59.54507562,,,,,,,,,,,,,,,,,,,,laken,images/br_laken.png,images/cb_laken.png,,laken,,,,,,,,,,,0.126952516,0.307909599,1,0,0,laken,0,28,28,5,1
,,,,,00048,2023-10-06_23h27.40.843,vbt_B2_day3,2022.2.4,Win32,59.54507562,,,,,,,,,,,,,,,,,,,,leek,images/br_leek.png,images/cb_leek.png,,leek,,,,,,,,,,,0.124293806,0.307909599,1,0,0,leek,0,29,29,2,1
,,,,,00048,2023-10-06_23h27.40.843,vbt_B2_day3,2022.2.4,Win32,59.54507562,,,,,,,,,,,,,,,,,,,,zone,images/br_zone.png,images/cb_zone.png,,vone,,,,,,,,,,,0.124293806,0.307909599,1,0,0,vone,0,30,30,41,1
,,,,,00048,2023-10-06_23h27.40.843,vbt_B2_day3,2022.2.4,Win32,59.54507562,,,,,,,,,,,,,,,,,,,,verwoor,images/br_verwoor.png,images/cb_verwoor.png,,lervoor,,,,,,,,,,,0.124293806,0.307909599,1,0,0,lervoor,0,31,31,32,1
,,,,,00048,2023-10-06_23h27.40.843,vbt_B2_day3,2022.2.4,Win32,59.54507562,,,,,,,,,,,,,,,,,,,,schatten,images/br_schatten.png,images/cb_schatten.png,,schatten,,,,,,,,,,,0.124293806,0.310568295,1,0,0,schatten,0,32,32,18,1
,,,,,00048,2023-10-06_23h27.40.843,vbt_B2_day3,2022.2.4,Win32,59.54507562,,,,,,,,,,,,,,,,,,,,stikken,images/br_stikken.png,images/cb_stikken.png,,stikken,,,,,,,,,,,0.124293806,0.310568295,1,0,0,stikken,0,33,33,54,1
,,,,,00048,2023-10-06_23h27.40.843,vbt_B2_day3,2022.2.4,Win32,59.54507562,,,,,,,,,,,,,,,,,,,,alsof,images/br_alsof.png,images/cb_alsof.png,,alsof,,,,,,,,,,,0.124293806,0.310568295,1,0,0,alsof,0,34,34,44,1
,,,,,00048,2023-10-06_23h27.40.843,vbt_B2_day3,2022.2.4,Win32,59.54507562,,,,,,,,,,,,,,,,,,,,mode,images/br_mode.png,images/cb_mode.png,,mode,,,,,,,,,,,0.124293806,0.310568295,1,0,0,mode,0,35,35,3,1
,,,,,00048,2023-10-06_23h27.40.843,vbt_B2_day3,2022.2.4,Win32,59.54507562,,,,,,,,,,,,,,,,,,,,schodel,images/br_schodel.png,images/cb_schodel.png,,schodel,,,,,,,,,,,0.124293806,0.310568295,1,0,0,schodel,0,36,36,33,1
,,,,,00048,2023-10-06_23h27.40.843,vbt_B2_day3,2022.2.4,Win32,59.54507562,,,,,,,,,,,,,,,,,,,,samen,images/br_samen.png,images/cb_samen.png,,samen,,,,,,,,,,,0.124293806,0.310568295,1,0,0,samen,0,37,37,7,1
,,,,,00048,2023-10-06_23h27.40.843,vbt_B2_day3,2022.2.4,Win32,59.54507562,,,,,,,,,,,,,,,,,,,,jongelui,images/br_jongelui.png,images/cb_jongelui.png,,,,,,,,,,,,,0.124293806,0.310568295,1,0,0,,0,38,38,59,1
,,,,,00048,2023-10-06_23h27.40.843,vbt_B2_day3,2022.2.4,Win32,59.54507562,,,,,,,,,,,,,,,,,,,,makieren,images/br_makieren.png,images/cb_makieren.png,,makieren,,,,,,,,,,,0.124293806,0.310568295,1,0,0,makieren,0,39,39,36,1
,,,,,00048,2023-10-06_23h27.40.843,vbt_B2_day3,2022.2.4,Win32,59.54507562,,,,,,,,,,,,,,,,,,,,prikken,images/br_prikken.png,images/cb_prikken.png,,prikken,,,,,,,,,,,0.124293806,0.310568295,1,0,0,prikken,0,40,40,12,1
,,,,,00048,2023-10-06_23h27.40.843,vbt_B2_day3,2022.2.4,Win32,59.54507562,,,,,,,,,,,,,,,,,,,,gebod,images/br_gebod.png,images/cb_gebod.png,,gecon,,,,,,,,,,,0.124293806,0.310568295,1,0,0,gecon,0,41,41,45,1
,,,,,00048,2023-10-06_23h27.40.843,vbt_B2_day3,2022.2.4,Win32,59.54507562,,,,,,,,,,,,,,,,,,,,gezond,images/br_gezond.png,images/cb_gezond.png,,gezond,,,,,,,,,,,0.124293806,0.310568295,1,0,0,gezond,0,42,42,11,1
,,,,,00048,2023-10-06_23h27.40.843,vbt_B2_day3,2022.2.4,Win32,59.54507562,,,,,,,,,,,,,,,,,,,,stoom,images/br_stoom.png,images/cb_stoom.png,,stoom,,,,,,,,,,,0.124293806,0.310568295,1,0,0,stoom,0,43,43,6,1
,,,,,00048,2023-10-06_23h27.40.843,vbt_B2_day3,2022.2.4,Win32,59.54507562,,,,,,,,,,,,,,,,,,,,steel,images/br_steel.png,images/cb_steel.png,,steel,,,,,,,,,,,0.124293806,0.310568295,1,0,0,steel,0,44,44,4,1
,,,,,00048,2023-10-06_23h27.40.843,vbt_B2_day3,2022.2.4,Win32,59.54507562,,,,,,,,,,,,,,,,,,,,uniek,images/br_uniek.png,images/cb_uniek.png,,uniek,,,,,,,,,,,0.124293806,0.310568295,1,0,0,uniek,0,45,45,46,1
,,,,,00048,2023-10-06_23h27.40.843,vbt_B2_day3,2022.2.4,Win32,59.54507562,,,,,,,,,,,,,,,,,,,,mugeek,images/br_mugeek.png,images/cb_mugeek.png,,mugeen,,,,,,,,,,,0.124293806,0.310568295,1,0,0,mugeen,0,46,46,29,1
,,,,,00048,2023-10-06_23h27.40.843,vbt_B2_day3,2022.2.4,Win32,59.54507562,,,,,,,,,,,,,,,,,,,,sultan,images/br_sultan.png,images/cb_sultan.png,,sultan,,,,,,,,,,,0.124293806,0.310568295,1,0,0,sultan,0,47,47,49,1
,,,,,00048,2023-10-06_23h27.40.843,vbt_B2_day3,2022.2.4,Win32,59.54507562,,,,,,,,,,,,,,,,,,,,geluid,images/br_geluid.png,images/cb_geluid.png,,geluid,,,,,,,,,,,0.124293806,0.310568295,1,0,0,geluid,0,48,48,10,1
,,,,,00048,2023-10-06_23h27.40.843,vbt_B2_day3,2022.2.4,Win32,59.54507562,,,,,,,,,,,,,,,,,,,,kwaas,images/br_kwaas.png,images/cb_kwaas.png,,kyaas,,,,,,,,,,,0.124293806,0.310568295,1,0,0,kyaas,0,49,49,26,1
,,,,,00048,2023-10-06_23h27.40.843,vbt_B2_day3,2022.2.4,Win32,59.54507562,,,,,,,,,,,,,,,,,,,,hint,images/br_hint.png,images/cb_hint.png,,dint,,,,,,,,,,,0.124293806,0.310568295,1,0,0,dint,0,50,50,43,1
,,,,,00048,2023-10-06_23h27.40.843,vbt_B2_day3,2022.2.4,Win32,59.54507562,,,,,,,,,,,,,,,,,,,,gout,images/br_gout.png,images/cb_gout.png,,gout,,,,,,,,,,,0.124293806,0.310568295,1,0,0,gout,0,51,51,20,1
,,,,,00048,2023-10-06_23h27.40.843,vbt_B2_day3,2022.2.4,Win32,59.54507562,,,,,,,,,,,,,,,,,,,,keihard,images/br_keihard.png,images/cb_keihard.png,,,,,,,,,,,,,0.124293806,0.310568295,1,0,0,,0,52,52,14,1
,,,,,00048,2023-10-06_23h27.40.843,vbt_B2_day3,2022.2.4,Win32,59.54507562,,,,,,,,,,,,,,,,,,,,sluier,images/br_sluier.png,images/cb_sluier.png,,sluiet,,,,,,,,,,,0.124293806,0.310568295,1,0,0,sluiet,0,53,53,50,1
,,,,,00048,2023-10-06_23h27.40.843,vbt_B2_day3,2022.2.4,Win32,59.54507562,,,,,,,,,,,,,,,,,,,,kaas,images/br_kaas.png,images/cb_kaas.png,,kaas,,,,,,,,,,,0.124293806,0.310568295,1,0,0,kaas,0,54,54,42,1
,,,,,00048,2023-10-06_23h27.40.843,vbt_B2_day3,2022.2.4,Win32,59.54507562,,,,,,,,,,,,,,,,,,,,theeting,images/br_theeting.png,images/cb_theeting.png,,tfaase...,,,,,,,,,,,0.124293806,0.310568295,1,0,0,tfaase...,0,55,55,38,1
,,,,,00048,2023-10-06_23h27.40.843,vbt_B2_day3,2022.2.4,Win32,59.54507562,,,,,,,,,,,,,,,,,,,,aarzelen,images/br_aarzelen.png,images/cb_aarzelen.png,,aarzelen,,,,,,,,,,,0.124293806,0.310568295,1,0,0,aarzelen,0,56,56,19,1
,,,,,00048,2023-10-06_23h27.40.843,vbt_B2_day3,2022.2.4,Win32,59.54507562,,,,,,,,,,,,,,,,,,,,oprotten,images/br_oprotten.png,images/cb_oprotten.png,,oprotten,,,,,,,,,,,0.124293806,0.310568295,1,0,0,oprotten,0,57,57,17,1
,,,,,00048,2023-10-06_23h27.40.843,vbt_B2_day3,2022.2.4,Win32,59.54507562,,,,,,,,,,,,,,,,,,,,bisschop,images/br_bisschop.png,images/cb_bisschop.png,,bischop,,,,,,,,,,,0.124293806,0.310568295,1,0,0,bischop,0,58,58,16,1
,,,,,00048,2023-10-06_23h27.40.843,vbt_B2_day3,2022.2.4,Win32,59.54507562,,,,,,,,,,,,,,,,,,,,verhaal,images/br_verhaal.png,images/cb_verhaal.png,,,,,,,,,,,,,0.124293806,0.310568295,1,0,0,,0,59,59,13,1
,,,,,00048,2023-10-06_23h27.40.843,vbt_B2_day3,2022.2.4,Win32,59.54507562,,,,,,,,,,,,,,,,,,,,,,,,,,,,,,,,,,,,,,,,,,,,,
