welcome_mouse.x,welcome_mouse.y,welcome_mouse.leftButton,welcome_mouse.midButton,welcome_mouse.rightButton,"ID",date,expName,psychopyVersion,OS,frameRate,trainInstr_mouse.x,trainInstr_mouse.y,trainInstr_mouse.leftButton,trainInstr_mouse.midButton,trainInstr_mouse.rightButton,translation_key.keys,translation_key.corr,translation_key.rt,testResp,word_rsp.text,trWrd_mouse.x,trWrd_mouse.y,trWrd_mouse.leftButton,trWrd_mouse.midButton,trWrd_mouse.rightButton,train_loop.thisRepN,train_loop.thisTrialN,train_loop.thisN,train_loop.thisIndex,train_loop.ran,nlWrd,brWrd,cbWrd,test,mouse.x,mouse.y,mouse.leftButton,mouse.midButton,mouse.rightButton,testInstr_mouse.x,testInstr_mouse.y,testInstr_mouse.leftButton,testInstr_mouse.midButton,testInstr_mouse.rightButton,test_mouse.x,test_mouse.y,test_mouse.leftButton,test_mouse.midButton,test_mouse.rightButton,test_response.text,test_loop.thisRepN,test_loop.thisTrialN,test_loop.thisN,test_loop.thisIndex,test_loop.ran
-0.047503397,0.016779891,1,0,0,00017,2023-08-18_23h49.10.228,vbt_B2_day3,2022.2.4,MacIntel,60.0024001,,,,,,,,,,,,,,,,,,,,,,,,,,,,,,,,,,,,,,,,,,,,,
,,,,,00017,2023-08-18_23h49.10.228,vbt_B2_day3,2022.2.4,MacIntel,60.0024001,0.011990489,-0.04721892,1,0,0,,,,,,,,,,,,,,,,,,,,,,,,,,,,,,,,,,,,,,,,
,,,,,00017,2023-08-18_23h49.10.228,vbt_B2_day3,2022.2.4,MacIntel,60.0024001,,,,,,down,0,7.7535,site,,0.062797215,-0.236272928,1,0,0,0,0,0,20,1,site,images/br_site.png,images/cb_site.png,1,,,,,,,,,,,,,,,,,,,,,
,,,,,00017,2023-08-18_23h49.10.228,vbt_B2_day3,2022.2.4,MacIntel,60.0024001,,,,,,down,0,2.8128,,,-0.050326936,-0.261523438,1,0,0,0,1,1,132,1,grappen,images/br_grappen.png,images/cb_grappen.png,0,,,,,,,,,,,,,,,,,,,,,
,,,,,00017,2023-08-18_23h49.10.228,vbt_B2_day3,2022.2.4,MacIntel,60.0024001,,,,,,down,0,2.4736,,,-0.050326936,-0.261523438,1,0,0,0,2,2,74,1,graaf,images/br_graaf.png,images/cb_graaf.png,0,,,,,,,,,,,,,,,,,,,,,
,,,,,00017,2023-08-18_23h49.10.228,vbt_B2_day3,2022.2.4,MacIntel,60.0024001,,,,,,down,0,2.3854,,,-0.050326936,-0.261523438,1,0,0,0,3,3,192,1,schaamte,images/br_schaamte.png,images/cb_schaamte.png,0,,,,,,,,,,,,,,,,,,,,,
,,,,,00017,2023-08-18_23h49.10.228,vbt_B2_day3,2022.2.4,MacIntel,60.0024001,,,,,,down,0,7.9085,,,-0.050326936,-0.261523438,1,0,0,0,4,4,167,1,eenhoorn,images/br_eenhoorn.png,images/cb_eenhoorn.png,0,,,,,,,,,,,,,,,,,,,,,
,,,,,00017,2023-08-18_23h49.10.228,vbt_B2_day3,2022.2.4,MacIntel,60.0024001,,,,,,down,0,5.3408,flirt,,-0.040888247,-0.166873302,1,0,0,0,5,5,63,1,flirt,images/br_flirt.png,images/cb_flirt.png,1,,,,,,,,,,,,,,,,,,,,,
,,,,,00017,2023-08-18_23h49.10.228,vbt_B2_day3,2022.2.4,MacIntel,60.0024001,,,,,,down,0,4.8297,,,-0.040888247,-0.166873302,1,0,0,0,6,6,145,1,invloed,images/br_invloed.png,images/cb_invloed.png,0,,,,,,,,,,,,,,,,,,,,,
,,,,,00017,2023-08-18_23h49.10.228,vbt_B2_day3,2022.2.4,MacIntel,60.0024001,,,,,,down,0,2.0353,,,-0.040888247,-0.166873302,1,0,0,0,7,7,97,1,loyaal,images/br_loyaal.png,images/cb_loyaal.png,0,,,,,,,,,,,,,,,,,,,,,
,,,,,00017,2023-08-18_23h49.10.228,vbt_B2_day3,2022.2.4,MacIntel,60.0024001,,,,,,down,0,0.8368,,,-0.040888247,-0.166873302,1,0,0,0,8,8,96,1,slagen,images/br_slagen.png,images/cb_slagen.png,0,,,,,,,,,,,,,,,,,,,,,
,,,,,00017,2023-08-18_23h49.10.228,vbt_B2_day3,2022.2.4,MacIntel,60.0024001,,,,,,down,0,6.2362,,,-0.040888247,-0.166873302,1,0,0,0,9,9,42,1,bleek,images/br_bleek.png,images/cb_bleek.png,0,,,,,,,,,,,,,,,,,,,,,
,,,,,00017,2023-08-18_23h49.10.228,vbt_B2_day3,2022.2.4,MacIntel,60.0024001,,,,,,down,0,5.6153,,,-0.040888247,-0.166873302,1,0,0,0,10,10,190,1,goedkoop,images/br_goedkoop.png,images/cb_goedkoop.png,0,,,,,,,,,,,,,,,,,,,,,
,,,,,00017,2023-08-18_23h49.10.228,vbt_B2_day3,2022.2.4,MacIntel,60.0024001,,,,,,down,0,1.1262,,,-0.015115489,-0.173212466,1,0,0,0,11,11,49,1,laken,images/br_laken.png,images/cb_laken.png,0,,,,,,,,,,,,,,,,,,,,,
,,,,,00017,2023-08-18_23h49.10.228,vbt_B2_day3,2022.2.4,MacIntel,60.0024001,,,,,,down,0,1.1773,,,-0.023051121,-0.2005732,1,0,0,0,12,12,161,1,attentie,images/br_attentie.png,images/cb_attentie.png,0,,,,,,,,,,,,,,,,,,,,,
,,,,,00017,2023-08-18_23h49.10.228,vbt_B2_day3,2022.2.4,MacIntel,60.0024001,,,,,,down,0,5.0698,knielen,,-0.015433933,-0.188327955,1,0,0,0,13,13,141,1,knielen,images/br_knielen.png,images/cb_knielen.png,1,,,,,,,,,,,,,,,,,,,,,
,,,,,00017,2023-08-18_23h49.10.228,vbt_B2_day3,2022.2.4,MacIntel,60.0024001,,,,,,down,0,6.2079,,,-0.015433933,-0.188327955,1,0,0,0,14,14,135,1,gedicht,images/br_gedicht.png,images/cb_gedicht.png,0,,,,,,,,,,,,,,,,,,,,,
,,,,,00017,2023-08-18_23h49.10.228,vbt_B2_day3,2022.2.4,MacIntel,60.0024001,,,,,,down,0,0.2267,,,-0.015433933,-0.188327955,1,0,0,0,15,15,56,1,traag,images/br_traag.png,images/cb_traag.png,0,,,,,,,,,,,,,,,,,,,,,
,,,,,00017,2023-08-18_23h49.10.228,vbt_B2_day3,2022.2.4,MacIntel,60.0024001,,,,,,down,0,1.5147,,,-0.014877717,-0.187759001,1,0,0,0,16,16,124,1,bloeien,images/br_bloeien.png,images/cb_bloeien.png,0,,,,,,,,,,,,,,,,,,,,,
,,,,,00017,2023-08-18_23h49.10.228,vbt_B2_day3,2022.2.4,MacIntel,60.0024001,,,,,,down,0,0.3695,,,-0.012839674,-0.190977412,1,0,0,0,17,17,17,1,taal,images/br_taal.png,images/cb_taal.png,0,,,,,,,,,,,,,,,,,,,,,
,,,,,00017,2023-08-18_23h49.10.228,vbt_B2_day3,2022.2.4,MacIntel,60.0024001,,,,,,down,0,0.0705,,,-0.012839674,-0.190977412,1,0,0,0,18,18,31,1,poes,images/br_poes.png,images/cb_poes.png,0,,,,,,,,,,,,,,,,,,,,,
,,,,,00017,2023-08-18_23h49.10.228,vbt_B2_day3,2022.2.4,MacIntel,60.0024001,,,,,,down,0,10.4187,,,-0.012839674,-0.190977412,1,0,0,0,19,19,52,1,wagon,images/br_wagon.png,images/cb_wagon.png,0,,,,,,,,,,,,,,,,,,,,,
,,,,,00017,2023-08-18_23h49.10.228,vbt_B2_day3,2022.2.4,MacIntel,60.0024001,,,,,,down,0,0.426,,,-0.012839674,-0.190977412,1,0,0,0,20,20,3,1,mand,images/br_mand.png,images/cb_mand.png,0,,,,,,,,,,,,,,,,,,,,,
,,,,,00017,2023-08-18_23h49.10.228,vbt_B2_day3,2022.2.4,MacIntel,60.0024001,,,,,,down,0,1.0229,,,-0.01204144,-0.19016644,1,0,0,0,21,21,148,1,smullen,images/br_smullen.png,images/cb_smullen.png,0,,,,,,,,,,,,,,,,,,,,,
,,,,,00017,2023-08-18_23h49.10.228,vbt_B2_day3,2022.2.4,MacIntel,60.0024001,,,,,,down,0,6.1189,,,0.084999151,-0.19016644,1,0,0,0,22,22,165,1,feestdag,images/br_feestdag.png,images/cb_feestdag.png,0,,,,,,,,,,,,,,,,,,,,,
,,,,,00017,2023-08-18_23h49.10.228,vbt_B2_day3,2022.2.4,MacIntel,60.0024001,,,,,,down,0,1.7686,zout,,0.084999151,-0.19016644,1,0,0,0,23,23,23,1,zout,images/br_zout.png,images/cb_zout.png,1,,,,,,,,,,,,,,,,,,,,,
,,,,,00017,2023-08-18_23h49.10.228,vbt_B2_day3,2022.2.4,MacIntel,60.0024001,,,,,,down,0,9.8524,bijkomen,,0.084999151,-0.19016644,1,0,0,0,24,24,182,1,bijkomen,images/br_bijkomen.png,images/cb_bijkomen.png,1,,,,,,,,,,,,,,,,,,,,,
,,,,,00017,2023-08-18_23h49.10.228,vbt_B2_day3,2022.2.4,MacIntel,60.0024001,,,,,,down,0,4.6569,,,0.084999151,-0.19016644,1,0,0,0,25,25,194,1,driemaal,images/br_driemaal.png,images/cb_driemaal.png,0,,,,,,,,,,,,,,,,,,,,,
,,,,,00017,2023-08-18_23h49.10.228,vbt_B2_day3,2022.2.4,MacIntel,60.0024001,,,,,,down,0,1.4184,,,0.084999151,-0.19016644,1,0,0,0,26,26,36,1,vuur,images/br_vuur.png,images/cb_vuur.png,0,,,,,,,,,,,,,,,,,,,,,
,,,,,00017,2023-08-18_23h49.10.228,vbt_B2_day3,2022.2.4,MacIntel,60.0024001,,,,,,down,0,4.4907,stof,,0.084999151,-0.19016644,1,0,0,0,27,27,22,1,stof,images/br_stof.png,images/cb_stof.png,1,,,,,,,,,,,,,,,,,,,,,
,,,,,00017,2023-08-18_23h49.10.228,vbt_B2_day3,2022.2.4,MacIntel,60.0024001,,,,,,down,0,0.3997,,,0.084999151,-0.19016644,1,0,0,0,28,28,30,1,uien,images/br_uien.png,images/cb_uien.png,0,,,,,,,,,,,,,,,,,,,,,
,,,,,00017,2023-08-18_23h49.10.228,vbt_B2_day3,2022.2.4,MacIntel,60.0024001,,,,,,down,0,4.5772,,,0.084999151,-0.19016644,1,0,0,0,29,29,143,1,hechten,images/br_hechten.png,images/cb_hechten.png,1,,,,,,,,,,,,,,,,,,,,,
,,,,,00017,2023-08-18_23h49.10.228,vbt_B2_day3,2022.2.4,MacIntel,60.0024001,,,,,,down,0,0.7529,,,0.09956267,-0.19016644,1,0,0,0,30,30,64,1,wegen,images/br_wegen.png,images/cb_wegen.png,0,,,,,,,,,,,,,,,,,,,,,
,,,,,00017,2023-08-18_23h49.10.228,vbt_B2_day3,2022.2.4,MacIntel,60.0024001,,,,,,down,0,3.6986,,,0.120469599,-0.189363961,1,0,0,0,31,31,14,1,rijp,images/br_rijp.png,images/cb_rijp.png,0,,,,,,,,,,,,,,,,,,,,,
,,,,,00017,2023-08-18_23h49.10.228,vbt_B2_day3,2022.2.4,MacIntel,60.0024001,,,,,,down,0,14.4798,,,0.102870245,-0.207723336,1,0,0,0,32,32,95,1,vreten,images/br_vreten.png,images/cb_vreten.png,0,,,,,,,,,,,,,,,,,,,,,
,,,,,00017,2023-08-18_23h49.10.228,vbt_B2_day3,2022.2.4,MacIntel,60.0024001,,,,,,down,0,12.6591,,,0.102870245,-0.207723336,1,0,0,0,33,33,70,1,ijdel,images/br_ijdel.png,images/cb_ijdel.png,0,,,,,,,,,,,,,,,,,,,,,
,,,,,00017,2023-08-18_23h49.10.228,vbt_B2_day3,2022.2.4,MacIntel,60.0024001,,,,,,down,0,2.2676,,,0.103519871,-0.207723336,1,0,0,0,34,34,174,1,stemming,images/br_stemming.png,images/cb_stemming.png,0,,,,,,,,,,,,,,,,,,,,,
,,,,,00017,2023-08-18_23h49.10.228,vbt_B2_day3,2022.2.4,MacIntel,60.0024001,,,,,,down,0,1.2138,,,0.095758322,-0.211323879,1,0,0,0,35,35,67,1,zwart,images/br_zwart.png,images/cb_zwart.png,0,,,,,,,,,,,,,,,,,,,,,
,,,,,00017,2023-08-18_23h49.10.228,vbt_B2_day3,2022.2.4,MacIntel,60.0024001,,,,,,down,0,5.7807,,,0.095758322,-0.211323879,1,0,0,0,36,36,48,1,steel,images/br_steel.png,images/cb_steel.png,0,,,,,,,,,,,,,,,,,,,,,
,,,,,00017,2023-08-18_23h49.10.228,vbt_B2_day3,2022.2.4,MacIntel,60.0024001,,,,,,down,0,2.925,,,0.095758322,-0.211323879,1,0,0,0,37,37,91,1,gezond,images/br_gezond.png,images/cb_gezond.png,0,,,,,,,,,,,,,,,,,,,,,
,,,,,00017,2023-08-18_23h49.10.228,vbt_B2_day3,2022.2.4,MacIntel,60.0024001,,,,,,down,0,1.909,,,0.109077785,-0.211323879,1,0,0,0,38,38,157,1,uitlaat,images/br_uitlaat.png,images/cb_uitlaat.png,0,,,,,,,,,,,,,,,,,,,,,
,,,,,00017,2023-08-18_23h49.10.228,vbt_B2_day3,2022.2.4,MacIntel,60.0024001,,,,,,down,0,0.0867,,,0.123144531,-0.211323879,1,0,0,0,39,39,7,1,geld,images/br_geld.png,images/cb_geld.png,0,,,,,,,,,,,,,,,,,,,,,
,,,,,00017,2023-08-18_23h49.10.228,vbt_B2_day3,2022.2.4,MacIntel,60.0024001,,,,,,down,0,17.2481,,,0.123475713,-0.211323879,1,0,0,0,40,40,189,1,aanraden,images/br_aanraden.png,images/cb_aanraden.png,0,,,,,,,,,,,,,,,,,,,,,
,,,,,00017,2023-08-18_23h49.10.228,vbt_B2_day3,2022.2.4,MacIntel,60.0024001,,,,,,down,0,0.0262,,,0.123475713,-0.211323879,1,0,0,0,41,41,144,1,eetlust,images/br_eetlust.png,images/cb_eetlust.png,0,,,,,,,,,,,,,,,,,,,,,
,,,,,00017,2023-08-18_23h49.10.228,vbt_B2_day3,2022.2.4,MacIntel,60.0024001,,,,,,down,0,1.9673,,,0.123475713,-0.211323879,1,0,0,0,42,42,98,1,kreeft,images/br_kreeft.png,images/cb_kreeft.png,0,,,,,,,,,,,,,,,,,,,,,
,,,,,00017,2023-08-18_23h49.10.228,vbt_B2_day3,2022.2.4,MacIntel,60.0024001,,,,,,down,0,5.5034,,,0.123475713,-0.211323879,1,0,0,0,43,43,164,1,anarchie,images/br_anarchie.png,images/cb_anarchie.png,0,,,,,,,,,,,,,,,,,,,,,
,,,,,00017,2023-08-18_23h49.10.228,vbt_B2_day3,2022.2.4,MacIntel,60.0024001,,,,,,down,0,1.4595,,,0.123475713,-0.211323879,1,0,0,0,44,44,104,1,zweven,images/br_zweven.png,images/cb_zweven.png,0,,,,,,,,,,,,,,,,,,,,,
,,,,,00017,2023-08-18_23h49.10.228,vbt_B2_day3,2022.2.4,MacIntel,60.0024001,,,,,,down,0,2.8508,,,0.123475713,-0.211323879,1,0,0,0,45,45,18,1,blik,images/br_blik.png,images/cb_blik.png,0,,,,,,,,,,,,,,,,,,,,,
,,,,,00017,2023-08-18_23h49.10.228,vbt_B2_day3,2022.2.4,MacIntel,60.0024001,,,,,,down,0,0.6673,,,0.123475713,-0.211323879,1,0,0,0,46,46,2,1,jaar,images/br_jaar.png,images/cb_jaar.png,0,,,,,,,,,,,,,,,,,,,,,
,,,,,00017,2023-08-18_23h49.10.228,vbt_B2_day3,2022.2.4,MacIntel,60.0024001,,,,,,down,0,0.5179,,,0.123475713,-0.211323879,1,0,0,0,47,47,37,1,mijn,images/br_mijn.png,images/cb_mijn.png,0,,,,,,,,,,,,,,,,,,,,,
,,,,,00017,2023-08-18_23h49.10.228,vbt_B2_day3,2022.2.4,MacIntel,60.0024001,,,,,,down,0,0.1038,,,0.123475713,-0.211323879,1,0,0,0,48,48,39,1,laag,images/br_laag.png,images/cb_laag.png,0,,,,,,,,,,,,,,,,,,,,,
,,,,,00017,2023-08-18_23h49.10.228,vbt_B2_day3,2022.2.4,MacIntel,60.0024001,,,,,,down,0,4.1213,,,0.123475713,-0.211323879,1,0,0,0,49,49,147,1,komisch,images/br_komisch.png,images/cb_komisch.png,0,,,,,,,,,,,,,,,,,,,,,
,,,,,00017,2023-08-18_23h49.10.228,vbt_B2_day3,2022.2.4,MacIntel,60.0024001,,,,,,down,0,0.0176,,,0.123475713,-0.211323879,1,0,0,0,50,50,0,1,slak,images/br_slak.png,images/cb_slak.png,0,,,,,,,,,,,,,,,,,,,,,
,,,,,00017,2023-08-18_23h49.10.228,vbt_B2_day3,2022.2.4,MacIntel,60.0024001,,,,,,down,0,2.0716,,,0.123475713,-0.211323879,1,0,0,0,51,51,129,1,verhaal,images/br_verhaal.png,images/cb_verhaal.png,0,,,,,,,,,,,,,,,,,,,,,
,,,,,00017,2023-08-18_23h49.10.228,vbt_B2_day3,2022.2.4,MacIntel,60.0024001,,,,,,down,0,1.9504,,,0.123475713,-0.211323879,1,0,0,0,52,52,168,1,bisschop,images/br_bisschop.png,images/cb_bisschop.png,0,,,,,,,,,,,,,,,,,,,,,
,,,,,00017,2023-08-18_23h49.10.228,vbt_B2_day3,2022.2.4,MacIntel,60.0024001,,,,,,down,0,1.3878,,,0.123475713,-0.211323879,1,0,0,0,53,53,156,1,rechten,images/br_rechten.png,images/cb_rechten.png,0,,,,,,,,,,,,,,,,,,,,,
,,,,,00017,2023-08-18_23h49.10.228,vbt_B2_day3,2022.2.4,MacIntel,60.0024001,,,,,,down,0,0.1741,,,0.123475713,-0.211323879,1,0,0,0,54,54,8,1,knie,images/br_knie.png,images/cb_knie.png,0,,,,,,,,,,,,,,,,,,,,,
,,,,,00017,2023-08-18_23h49.10.228,vbt_B2_day3,2022.2.4,MacIntel,60.0024001,,,,,,down,0,0.3885,,,0.123475713,-0.211323879,1,0,0,0,55,55,5,1,blad,images/br_blad.png,images/cb_blad.png,0,,,,,,,,,,,,,,,,,,,,,
,,,,,00017,2023-08-18_23h49.10.228,vbt_B2_day3,2022.2.4,MacIntel,60.0024001,,,,,,down,0,2.6359,,,0.123475713,-0.211323879,1,0,0,0,56,56,12,1,kust,images/br_kust.png,images/cb_kust.png,0,,,,,,,,,,,,,,,,,,,,,
,,,,,00017,2023-08-18_23h49.10.228,vbt_B2_day3,2022.2.4,MacIntel,60.0024001,,,,,,down,0,3.6188,,,0.123475713,-0.211323879,1,0,0,0,57,57,86,1,woning,images/br_woning.png,images/cb_woning.png,0,,,,,,,,,,,,,,,,,,,,,
,,,,,00017,2023-08-18_23h49.10.228,vbt_B2_day3,2022.2.4,MacIntel,60.0024001,,,,,,down,0,0.1238,,,0.123475713,-0.211323879,1,0,0,0,58,58,171,1,aarzelen,images/br_aarzelen.png,images/cb_aarzelen.png,0,,,,,,,,,,,,,,,,,,,,,
,,,,,00017,2023-08-18_23h49.10.228,vbt_B2_day3,2022.2.4,MacIntel,60.0024001,,,,,,down,0,0.817,,,0.123475713,-0.211323879,1,0,0,0,59,59,84,1,lokken,images/br_lokken.png,images/cb_lokken.png,0,,,,,,,,,,,,,,,,,,,,,
,,,,,00017,2023-08-18_23h49.10.228,vbt_B2_day3,2022.2.4,MacIntel,60.0024001,,,,,,down,0,0.1604,,,0.124456522,-0.211323879,1,0,0,0,60,60,121,1,twijfel,images/br_twijfel.png,images/cb_twijfel.png,0,,,,,,,,,,,,,,,,,,,,,
,,,,,00017,2023-08-18_23h49.10.228,vbt_B2_day3,2022.2.4,MacIntel,60.0024001,,,,,,down,0,0.2168,,,0.124456522,-0.211323879,1,0,0,0,61,61,9,1,hier,images/br_hier.png,images/cb_hier.png,0,,,,,,,,,,,,,,,,,,,,,
,,,,,00017,2023-08-18_23h49.10.228,vbt_B2_day3,2022.2.4,MacIntel,60.0024001,,,,,,down,0,2.8594,,,0.124456522,-0.211323879,1,0,0,0,62,62,169,1,oprotten,images/br_oprotten.png,images/cb_oprotten.png,0,,,,,,,,,,,,,,,,,,,,,
,,,,,00017,2023-08-18_23h49.10.228,vbt_B2_day3,2022.2.4,MacIntel,60.0024001,,,,,,down,0,1.102,,,0.124456522,-0.211323879,1,0,0,0,63,63,24,1,jurk,images/br_jurk.png,images/cb_jurk.png,0,,,,,,,,,,,,,,,,,,,,,
,,,,,00017,2023-08-18_23h49.10.228,vbt_B2_day3,2022.2.4,MacIntel,60.0024001,,,,,,down,0,0.7179,,,0.124456522,-0.211323879,1,0,0,0,64,64,11,1,mode,images/br_mode.png,images/cb_mode.png,0,,,,,,,,,,,,,,,,,,,,,
,,,,,00017,2023-08-18_23h49.10.228,vbt_B2_day3,2022.2.4,MacIntel,60.0024001,,,,,,down,0,5.0197,,,0.124456522,-0.211323879,1,0,0,0,65,65,106,1,zingen,images/br_zingen.png,images/cb_zingen.png,0,,,,,,,,,,,,,,,,,,,,,
,,,,,00017,2023-08-18_23h49.10.228,vbt_B2_day3,2022.2.4,MacIntel,60.0024001,,,,,,down,0,3.2001,,,0.124456522,-0.211323879,1,0,0,0,66,66,105,1,wijlen,images/br_wijlen.png,images/cb_wijlen.png,0,,,,,,,,,,,,,,,,,,,,,
,,,,,00017,2023-08-18_23h49.10.228,vbt_B2_day3,2022.2.4,MacIntel,60.0024001,,,,,,down,0,1.4706,,,0.124456522,-0.211323879,1,0,0,0,67,67,87,1,toeval,images/br_toeval.png,images/cb_toeval.png,0,,,,,,,,,,,,,,,,,,,,,
,,,,,00017,2023-08-18_23h49.10.228,vbt_B2_day3,2022.2.4,MacIntel,60.0024001,,,,,,down,0,2.4881,,,0.124456522,-0.211323879,1,0,0,0,68,68,153,1,vervoer,images/br_vervoer.png,images/cb_vervoer.png,0,,,,,,,,,,,,,,,,,,,,,
,,,,,00017,2023-08-18_23h49.10.228,vbt_B2_day3,2022.2.4,MacIntel,60.0024001,,,,,,down,0,6.3183,,,0.124456522,-0.211323879,1,0,0,0,69,69,191,1,opheffen,images/br_opheffen.png,images/cb_opheffen.png,0,,,,,,,,,,,,,,,,,,,,,
,,,,,00017,2023-08-18_23h49.10.228,vbt_B2_day3,2022.2.4,MacIntel,60.0024001,,,,,,down,0,8.6152,,,0.124456522,-0.211323879,1,0,0,0,70,70,69,1,waken,images/br_waken.png,images/cb_waken.png,0,,,,,,,,,,,,,,,,,,,,,
,,,,,00017,2023-08-18_23h49.10.228,vbt_B2_day3,2022.2.4,MacIntel,60.0024001,,,,,,down,0,1.6728,mist,,0.124456522,-0.211323879,1,0,0,0,71,71,21,1,mist,images/br_mist.png,images/cb_mist.png,1,,,,,,,,,,,,,,,,,,,,,
,,,,,00017,2023-08-18_23h49.10.228,vbt_B2_day3,2022.2.4,MacIntel,60.0024001,,,,,,down,0,6.8185,,,0.124456522,-0.211323879,1,0,0,0,72,72,92,1,geheim,images/br_geheim.png,images/cb_geheim.png,0,,,,,,,,,,,,,,,,,,,,,
,,,,,00017,2023-08-18_23h49.10.228,vbt_B2_day3,2022.2.4,MacIntel,60.0024001,,,,,,down,0,1.5954,,,0.11537449,-0.211323879,1,0,0,0,73,73,29,1,baas,images/br_baas.png,images/cb_baas.png,0,,,,,,,,,,,,,,,,,,,,,
,,,,,00017,2023-08-18_23h49.10.228,vbt_B2_day3,2022.2.4,MacIntel,60.0024001,,,,,,down,0,3.0152,,,0.11537449,-0.211323879,1,0,0,0,74,74,126,1,kasteel,images/br_kasteel.png,images/cb_kasteel.png,0,,,,,,,,,,,,,,,,,,,,,
,,,,,00017,2023-08-18_23h49.10.228,vbt_B2_day3,2022.2.4,MacIntel,60.0024001,,,,,,down,0,2.1364,,,0.114448879,-0.215930707,1,0,0,0,75,75,188,1,strekken,images/br_strekken.png,images/cb_strekken.png,0,,,,,,,,,,,,,,,,,,,,,
,,,,,00017,2023-08-18_23h49.10.228,vbt_B2_day3,2022.2.4,MacIntel,60.0024001,,,,,,down,0,0.0792,,,0.111026664,-0.216822351,1,0,0,0,76,76,79,1,nodig,images/br_nodig.png,images/cb_nodig.png,0,,,,,,,,,,,,,,,,,,,,,
,,,,,00017,2023-08-18_23h49.10.228,vbt_B2_day3,2022.2.4,MacIntel,60.0024001,,,,,,down,0,0.0528,,,0.111026664,-0.216822351,1,0,0,0,77,77,195,1,middelen,images/br_middelen.png,images/cb_middelen.png,0,,,,,,,,,,,,,,,,,,,,,
,,,,,00017,2023-08-18_23h49.10.228,vbt_B2_day3,2022.2.4,MacIntel,60.0024001,,,,,,down,0,1.2009,,,0.110780401,-0.216822351,1,0,0,0,78,78,55,1,praat,images/br_praat.png,images/cb_praat.png,0,,,,,,,,,,,,,,,,,,,,,
,,,,,00017,2023-08-18_23h49.10.228,vbt_B2_day3,2022.2.4,MacIntel,60.0024001,,,,,,down,0,0.469,,,0.11128142,-0.216822351,1,0,0,0,79,79,197,1,spanning,images/br_spanning.png,images/cb_spanning.png,0,,,,,,,,,,,,,,,,,,,,,
,,,,,00017,2023-08-18_23h49.10.228,vbt_B2_day3,2022.2.4,MacIntel,60.0024001,,,,,,down,0,3.4799,,,0.11128142,-0.216822351,1,0,0,0,80,80,111,1,ticket,images/br_ticket.png,images/cb_ticket.png,0,,,,,,,,,,,,,,,,,,,,,
,,,,,00017,2023-08-18_23h49.10.228,vbt_B2_day3,2022.2.4,MacIntel,60.0024001,,,,,,down,0,2.6009,,,0.11128142,-0.216822351,1,0,0,0,81,81,43,1,klauw,images/br_klauw.png,images/cb_klauw.png,0,,,,,,,,,,,,,,,,,,,,,
,,,,,00017,2023-08-18_23h49.10.228,vbt_B2_day3,2022.2.4,MacIntel,60.0024001,,,,,,down,0,5.4057,,,0.11128142,-0.216822351,1,0,0,0,82,82,178,1,huisdier,images/br_huisdier.png,images/cb_huisdier.png,0,,,,,,,,,,,,,,,,,,,,,
,,,,,00017,2023-08-18_23h49.10.228,vbt_B2_day3,2022.2.4,MacIntel,60.0024001,,,,,,down,0,1.7765,,,0.11128142,-0.216822351,1,0,0,0,83,83,154,1,aflopen,images/br_aflopen.png,images/cb_aflopen.png,0,,,,,,,,,,,,,,,,,,,,,
,,,,,00017,2023-08-18_23h49.10.228,vbt_B2_day3,2022.2.4,MacIntel,60.0024001,,,,,,down,0,0.9084,,,0.11128142,-0.216822351,1,0,0,0,84,84,6,1,diep,images/br_diep.png,images/cb_diep.png,0,,,,,,,,,,,,,,,,,,,,,
,,,,,00017,2023-08-18_23h49.10.228,vbt_B2_day3,2022.2.4,MacIntel,60.0024001,,,,,,down,0,5.457,,,0.11128142,-0.216822351,1,0,0,0,85,85,122,1,waarvan,images/br_waarvan.png,images/cb_waarvan.png,0,,,,,,,,,,,,,,,,,,,,,
,,,,,00017,2023-08-18_23h49.10.228,vbt_B2_day3,2022.2.4,MacIntel,60.0024001,,,,,,down,0,4.9398,toegeven,,0.11128142,-0.216822351,1,0,0,0,86,86,181,1,toegeven,images/br_toegeven.png,images/cb_toegeven.png,1,,,,,,,,,,,,,,,,,,,,,
,,,,,00017,2023-08-18_23h49.10.228,vbt_B2_day3,2022.2.4,MacIntel,60.0024001,,,,,,down,0,1.7667,,,0.096985394,-0.221573539,1,0,0,0,87,87,199,1,beseffen,images/br_beseffen.png,images/cb_beseffen.png,0,,,,,,,,,,,,,,,,,,,,,
,,,,,00017,2023-08-18_23h49.10.228,vbt_B2_day3,2022.2.4,MacIntel,60.0024001,,,,,,down,0,1.0986,,,0.096985394,-0.221573539,1,0,0,0,88,88,41,1,maken,images/br_maken.png,images/cb_maken.png,0,,,,,,,,,,,,,,,,,,,,,
,,,,,00017,2023-08-18_23h49.10.228,vbt_B2_day3,2022.2.4,MacIntel,60.0024001,,,,,,down,0,0.9184,,,0.096985394,-0.221573539,1,0,0,0,89,89,58,1,tekst,images/br_tekst.png,images/cb_tekst.png,0,,,,,,,,,,,,,,,,,,,,,
,,,,,00017,2023-08-18_23h49.10.228,vbt_B2_day3,2022.2.4,MacIntel,60.0024001,,,,,,down,0,0.2245,,,0.096985394,-0.221573539,1,0,0,0,90,90,13,1,kaal,images/br_kaal.png,images/cb_kaal.png,0,,,,,,,,,,,,,,,,,,,,,
,,,,,00017,2023-08-18_23h49.10.228,vbt_B2_day3,2022.2.4,MacIntel,60.0024001,,,,,,down,0,2.3848,,,0.096985394,-0.221573539,1,0,0,0,91,91,186,1,voorraad,images/br_voorraad.png,images/cb_voorraad.png,0,,,,,,,,,,,,,,,,,,,,,
,,,,,00017,2023-08-18_23h49.10.228,vbt_B2_day3,2022.2.4,MacIntel,60.0024001,,,,,,down,0,2.9344,,,0.096985394,-0.221573539,1,0,0,0,92,92,59,1,kring,images/br_kring.png,images/cb_kring.png,0,,,,,,,,,,,,,,,,,,,,,
,,,,,00017,2023-08-18_23h49.10.228,vbt_B2_day3,2022.2.4,MacIntel,60.0024001,,,,,,down,0,1.4539,,,0.096985394,-0.221573539,1,0,0,0,93,93,81,1,dubbel,images/br_dubbel.png,images/cb_dubbel.png,0,,,,,,,,,,,,,,,,,,,,,
,,,,,00017,2023-08-18_23h49.10.228,vbt_B2_day3,2022.2.4,MacIntel,60.0024001,,,,,,down,0,2.0067,,,0.096985394,-0.221573539,1,0,0,0,94,94,114,1,vullen,images/br_vullen.png,images/cb_vullen.png,0,,,,,,,,,,,,,,,,,,,,,
,,,,,00017,2023-08-18_23h49.10.228,vbt_B2_day3,2022.2.4,MacIntel,60.0024001,,,,,,down,0,4.1478,,,0.096985394,-0.221573539,1,0,0,0,95,95,185,1,mijnheer,images/br_mijnheer.png,images/cb_mijnheer.png,0,,,,,,,,,,,,,,,,,,,,,
,,,,,00017,2023-08-18_23h49.10.228,vbt_B2_day3,2022.2.4,MacIntel,60.0024001,,,,,,down,0,4.9817,legaal,,0.096985394,-0.221573539,1,0,0,0,96,96,102,1,legaal,images/br_legaal.png,images/cb_legaal.png,1,,,,,,,,,,,,,,,,,,,,,
,,,,,00017,2023-08-18_23h49.10.228,vbt_B2_day3,2022.2.4,MacIntel,60.0024001,,,,,,down,0,71.1002,,,0.096985394,-0.221573539,1,0,0,0,97,97,196,1,nakijken,images/br_nakijken.png,images/cb_nakijken.png,0,,,,,,,,,,,,,,,,,,,,,
,,,,,00017,2023-08-18_23h49.10.228,vbt_B2_day3,2022.2.4,MacIntel,60.0024001,,,,,,down,0,0.2369,,,0.096985394,-0.221573539,1,0,0,0,98,98,25,1,plek,images/br_plek.png,images/cb_plek.png,0,,,,,,,,,,,,,,,,,,,,,
,,,,,00017,2023-08-18_23h49.10.228,vbt_B2_day3,2022.2.4,MacIntel,60.0024001,,,,,,down,0,1.6737,,,0.096985394,-0.221573539,1,0,0,0,99,99,27,1,dans,images/br_dans.png,images/cb_dans.png,0,,,,,,,,,,,,,,,,,,,,,
,,,,,00017,2023-08-18_23h49.10.228,vbt_B2_day3,2022.2.4,MacIntel,60.0024001,,,,,,down,0,2.7787,,,0.096985394,-0.221573539,1,0,0,0,100,100,45,1,piste,images/br_piste.png,images/cb_piste.png,0,,,,,,,,,,,,,,,,,,,,,
,,,,,00017,2023-08-18_23h49.10.228,vbt_B2_day3,2022.2.4,MacIntel,60.0024001,,,,,,down,0,5.2502,,,0.096985394,-0.221573539,1,0,0,0,101,101,108,1,excuus,images/br_excuus.png,images/cb_excuus.png,0,,,,,,,,,,,,,,,,,,,,,
,,,,,00017,2023-08-18_23h49.10.228,vbt_B2_day3,2022.2.4,MacIntel,60.0024001,,,,,,down,0,6.7542,,,0.096985394,-0.221573539,1,0,0,0,102,102,117,1,kennis,images/br_kennis.png,images/cb_kennis.png,0,,,,,,,,,,,,,,,,,,,,,
,,,,,00017,2023-08-18_23h49.10.228,vbt_B2_day3,2022.2.4,MacIntel,60.0024001,,,,,,down,0,5.0843,,,0.096985394,-0.221573539,1,0,0,0,103,103,163,1,schuilen,images/br_schuilen.png,images/cb_schuilen.png,0,,,,,,,,,,,,,,,,,,,,,
,,,,,00017,2023-08-18_23h49.10.228,vbt_B2_day3,2022.2.4,MacIntel,60.0024001,,,,,,down,0,2.3983,,,0.096700917,-0.15287449,1,0,0,0,104,104,113,1,koppen,images/br_koppen.png,images/cb_koppen.png,0,,,,,,,,,,,,,,,,,,,,,
,,,,,00017,2023-08-18_23h49.10.228,vbt_B2_day3,2022.2.4,MacIntel,60.0024001,,,,,,down,0,1.9427,joggen,,0.096700917,-0.15287449,1,0,0,0,105,105,103,1,joggen,images/br_joggen.png,images/cb_joggen.png,1,,,,,,,,,,,,,,,,,,,,,
,,,,,00017,2023-08-18_23h49.10.228,vbt_B2_day3,2022.2.4,MacIntel,60.0024001,,,,,,down,0,1.9114,,,0.096700917,-0.15287449,1,0,0,0,106,106,109,1,totaal,images/br_totaal.png,images/cb_totaal.png,0,,,,,,,,,,,,,,,,,,,,,
,,,,,00017,2023-08-18_23h49.10.228,vbt_B2_day3,2022.2.4,MacIntel,60.0024001,,,,,,down,0,0.3334,,,0.09620839,-0.15287449,1,0,0,0,107,107,32,1,palm,images/br_palm.png,images/cb_palm.png,0,,,,,,,,,,,,,,,,,,,,,
,,,,,00017,2023-08-18_23h49.10.228,vbt_B2_day3,2022.2.4,MacIntel,60.0024001,,,,,,down,0,1.5846,,,0.09620839,-0.15287449,1,0,0,0,108,108,118,1,vinger,images/br_vinger.png,images/cb_vinger.png,0,,,,,,,,,,,,,,,,,,,,,
,,,,,00017,2023-08-18_23h49.10.228,vbt_B2_day3,2022.2.4,MacIntel,60.0024001,,,,,,down,0,0.5502,,,0.095715863,-0.15287449,1,0,0,0,109,109,138,1,akkoord,images/br_akkoord.png,images/cb_akkoord.png,0,,,,,,,,,,,,,,,,,,,,,
,,,,,00017,2023-08-18_23h49.10.228,vbt_B2_day3,2022.2.4,MacIntel,60.0024001,,,,,,down,0,0.47,,,0.095715863,-0.15287449,1,0,0,0,110,110,99,1,koffie,images/br_koffie.png,images/cb_koffie.png,0,,,,,,,,,,,,,,,,,,,,,
,,,,,00017,2023-08-18_23h49.10.228,vbt_B2_day3,2022.2.4,MacIntel,60.0024001,,,,,,down,0,1.5588,,,0.084888757,-0.15872962,1,0,0,0,111,111,120,1,klimmen,images/br_klimmen.png,images/cb_klimmen.png,0,,,,,,,,,,,,,,,,,,,,,
,,,,,00017,2023-08-18_23h49.10.228,vbt_B2_day3,2022.2.4,MacIntel,60.0024001,,,,,,down,0,0.3864,,,0.084888757,-0.15872962,1,0,0,0,112,112,155,1,gerucht,images/br_gerucht.png,images/cb_gerucht.png,0,,,,,,,,,,,,,,,,,,,,,
,,,,,00017,2023-08-18_23h49.10.228,vbt_B2_day3,2022.2.4,MacIntel,60.0024001,,,,,,down,0,1.5148,,,0.084149966,-0.15872962,1,0,0,0,113,113,44,1,flits,images/br_flits.png,images/cb_flits.png,0,,,,,,,,,,,,,,,,,,,,,
,,,,,00017,2023-08-18_23h49.10.228,vbt_B2_day3,2022.2.4,MacIntel,60.0024001,,,,,,down,0,1.2904,,,0.084149966,-0.15872962,1,0,0,0,114,114,88,1,boeien,images/br_boeien.png,images/cb_boeien.png,0,,,,,,,,,,,,,,,,,,,,,
,,,,,00017,2023-08-18_23h49.10.228,vbt_B2_day3,2022.2.4,MacIntel,60.0024001,,,,,,down,0,0.9024,,,0.084149966,-0.15872962,1,0,0,0,115,115,150,1,gegeven,images/br_gegeven.png,images/cb_gegeven.png,0,,,,,,,,,,,,,,,,,,,,,
,,,,,00017,2023-08-18_23h49.10.228,vbt_B2_day3,2022.2.4,MacIntel,60.0024001,,,,,,down,0,1.8417,,,0.083903702,-0.15872962,1,0,0,0,116,116,77,1,woede,images/br_woede.png,images/cb_woede.png,0,,,,,,,,,,,,,,,,,,,,,
,,,,,00017,2023-08-18_23h49.10.228,vbt_B2_day3,2022.2.4,MacIntel,60.0024001,,,,,,down,0,0.9676,,,0.089194124,-0.15872962,1,0,0,0,117,117,110,1,zuster,images/br_zuster.png,images/cb_zuster.png,0,,,,,,,,,,,,,,,,,,,,,
,,,,,00017,2023-08-18_23h49.10.228,vbt_B2_day3,2022.2.4,MacIntel,60.0024001,,,,,,down,0,0.1676,,,0.089194124,-0.15872962,1,0,0,0,118,118,47,1,kabel,images/br_kabel.png,images/cb_kabel.png,0,,,,,,,,,,,,,,,,,,,,,
,,,,,00017,2023-08-18_23h49.10.228,vbt_B2_day3,2022.2.4,MacIntel,60.0024001,,,,,,down,0,6.4038,jasje,,0.089194124,-0.15872962,1,0,0,0,119,119,60,1,jasje,images/br_jasje.png,images/cb_jasje.png,1,,,,,,,,,,,,,,,,,,,,,
,,,,,00017,2023-08-18_23h49.10.228,vbt_B2_day3,2022.2.4,MacIntel,60.0024001,,,,,,down,0,2.3602,,,0.089194124,-0.15872962,1,0,0,0,120,120,133,1,seizoen,images/br_seizoen.png,images/cb_seizoen.png,0,,,,,,,,,,,,,,,,,,,,,
,,,,,00017,2023-08-18_23h49.10.228,vbt_B2_day3,2022.2.4,MacIntel,60.0024001,,,,,,down,0,2.6856,,,0.089194124,-0.15872962,1,0,0,0,121,121,158,1,innemen,images/br_innemen.png,images/cb_innemen.png,0,,,,,,,,,,,,,,,,,,,,,
,,,,,00017,2023-08-18_23h49.10.228,vbt_B2_day3,2022.2.4,MacIntel,60.0024001,,,,,,down,0,1.7322,,,0.089194124,-0.15872962,1,0,0,0,122,122,54,1,gebit,images/br_gebit.png,images/cb_gebit.png,0,,,,,,,,,,,,,,,,,,,,,
,,,,,00017,2023-08-18_23h49.10.228,vbt_B2_day3,2022.2.4,MacIntel,60.0024001,,,,,,down,0,4.2178,,,0.089194124,-0.15872962,1,0,0,0,123,123,198,1,bedoelen,images/br_bedoelen.png,images/cb_bedoelen.png,0,,,,,,,,,,,,,,,,,,,,,
,,,,,00017,2023-08-18_23h49.10.228,vbt_B2_day3,2022.2.4,MacIntel,60.0024001,,,,,,down,0,0.7865,,,0.089194124,-0.15872962,1,0,0,0,124,124,73,1,volop,images/br_volop.png,images/cb_volop.png,0,,,,,,,,,,,,,,,,,,,,,
,,,,,00017,2023-08-18_23h49.10.228,vbt_B2_day3,2022.2.4,MacIntel,60.0024001,,,,,,down,0,0.1895,,,0.084192425,-0.159149966,1,0,0,0,125,125,34,1,vorm,images/br_vorm.png,images/cb_vorm.png,0,,,,,,,,,,,,,,,,,,,,,
,,,,,00017,2023-08-18_23h49.10.228,vbt_B2_day3,2022.2.4,MacIntel,60.0024001,,,,,,down,0,3.0533,,,0.073199728,-0.166338315,1,0,0,0,126,126,176,1,techniek,images/br_techniek.png,images/cb_techniek.png,0,,,,,,,,,,,,,,,,,,,,,
,,,,,00017,2023-08-18_23h49.10.228,vbt_B2_day3,2022.2.4,MacIntel,60.0024001,,,,,,down,0,0.4885,,,0.076719599,-0.163319463,1,0,0,0,127,127,119,1,liefje,images/br_liefje.png,images/cb_liefje.png,0,,,,,,,,,,,,,,,,,,,,,
,,,,,00017,2023-08-18_23h49.10.228,vbt_B2_day3,2022.2.4,MacIntel,60.0024001,,,,,,down,0,4.5859,,,0.076719599,-0.163319463,1,0,0,0,128,128,136,1,waarbij,images/br_waarbij.png,images/cb_waarbij.png,0,,,,,,,,,,,,,,,,,,,,,
,,,,,00017,2023-08-18_23h49.10.228,vbt_B2_day3,2022.2.4,MacIntel,60.0024001,,,,,,down,0,8.153,,,0.076719599,-0.163319463,1,0,0,0,129,129,193,1,weeshuis,images/br_weeshuis.png,images/cb_weeshuis.png,0,,,,,,,,,,,,,,,,,,,,,
,,,,,00017,2023-08-18_23h49.10.228,vbt_B2_day3,2022.2.4,MacIntel,60.0024001,,,,,,down,0,0.9869,,,0.076719599,-0.163319463,1,0,0,0,130,130,116,1,besmet,images/br_besmet.png,images/cb_besmet.png,0,,,,,,,,,,,,,,,,,,,,,
,,,,,00017,2023-08-18_23h49.10.228,vbt_B2_day3,2022.2.4,MacIntel,60.0024001,,,,,,down,0,2.4876,,,0.076719599,-0.163319463,1,0,0,0,131,131,177,1,maaltijd,images/br_maaltijd.png,images/cb_maaltijd.png,0,,,,,,,,,,,,,,,,,,,,,
,,,,,00017,2023-08-18_23h49.10.228,vbt_B2_day3,2022.2.4,MacIntel,60.0024001,,,,,,down,0,0.2262,,,0.076719599,-0.163319463,1,0,0,0,132,132,151,1,aanzoek,images/br_aanzoek.png,images/cb_aanzoek.png,0,,,,,,,,,,,,,,,,,,,,,
,,,,,00017,2023-08-18_23h49.10.228,vbt_B2_day3,2022.2.4,MacIntel,60.0024001,,,,,,down,0,1.8201,,,0.076719599,-0.163319463,1,0,0,0,133,133,76,1,afval,images/br_afval.png,images/cb_afval.png,0,,,,,,,,,,,,,,,,,,,,,
,,,,,00017,2023-08-18_23h49.10.228,vbt_B2_day3,2022.2.4,MacIntel,60.0024001,,,,,,down,0,4.6876,geduld,,0.076719599,-0.163319463,1,0,0,0,134,134,100,1,geduld,images/br_geduld.png,images/cb_geduld.png,1,,,,,,,,,,,,,,,,,,,,,
,,,,,00017,2023-08-18_23h49.10.228,vbt_B2_day3,2022.2.4,MacIntel,60.0024001,,,,,,down,0,2.1371,,,0.076719599,-0.163319463,1,0,0,0,135,135,173,1,apparaat,images/br_apparaat.png,images/cb_apparaat.png,0,,,,,,,,,,,,,,,,,,,,,
,,,,,00017,2023-08-18_23h49.10.228,vbt_B2_day3,2022.2.4,MacIntel,60.0024001,,,,,,down,0,3.0342,,,0.076719599,-0.163319463,1,0,0,0,136,136,40,1,schep,images/br_schep.png,images/cb_schep.png,0,,,,,,,,,,,,,,,,,,,,,
,,,,,00017,2023-08-18_23h49.10.228,vbt_B2_day3,2022.2.4,MacIntel,60.0024001,,,,,,down,0,0.4507,,,0.076719599,-0.163319463,1,0,0,0,137,137,72,1,strak,images/br_strak.png,images/cb_strak.png,0,,,,,,,,,,,,,,,,,,,,,
,,,,,00017,2023-08-18_23h49.10.228,vbt_B2_day3,2022.2.4,MacIntel,60.0024001,,,,,,down,0,0.3537,,,0.076719599,-0.163319463,1,0,0,0,138,138,107,1,maling,images/br_maling.png,images/cb_maling.png,0,,,,,,,,,,,,,,,,,,,,,
,,,,,00017,2023-08-18_23h49.10.228,vbt_B2_day3,2022.2.4,MacIntel,60.0024001,,,,,,down,0,0.1983,,,0.076719599,-0.163319463,1,0,0,0,139,139,57,1,steek,images/br_steek.png,images/cb_steek.png,0,,,,,,,,,,,,,,,,,,,,,
,,,,,00017,2023-08-18_23h49.10.228,vbt_B2_day3,2022.2.4,MacIntel,60.0024001,,,,,,down,0,0.0597,,,0.076719599,-0.163319463,1,0,0,0,140,140,82,1,muziek,images/br_muziek.png,images/cb_muziek.png,0,,,,,,,,,,,,,,,,,,,,,
,,,,,00017,2023-08-18_23h49.10.228,vbt_B2_day3,2022.2.4,MacIntel,60.0024001,,,,,,down,0,0.5978,,,0.076719599,-0.163319463,1,0,0,0,141,141,65,1,parel,images/br_parel.png,images/cb_parel.png,0,,,,,,,,,,,,,,,,,,,,,
,,,,,00017,2023-08-18_23h49.10.228,vbt_B2_day3,2022.2.4,MacIntel,60.0024001,,,,,,down,0,6.5449,getuigen,,0.076719599,-0.163319463,1,0,0,0,142,142,183,1,getuigen,images/br_getuigen.png,images/cb_getuigen.png,1,,,,,,,,,,,,,,,,,,,,,
,,,,,00017,2023-08-18_23h49.10.228,vbt_B2_day3,2022.2.4,MacIntel,60.0024001,,,,,,down,0,3.0035,,,-0.130439029,0.045410156,1,0,0,0,143,143,38,1,baai,images/br_baai.png,images/cb_baai.png,0,,,,,,,,,,,,,,,,,,,,,
,,,,,00017,2023-08-18_23h49.10.228,vbt_B2_day3,2022.2.4,MacIntel,60.0024001,,,,,,down,0,6.3343,,,0.035750679,0.058606488,1,0,0,0,144,144,152,1,afnemen,images/br_afnemen.png,images/cb_afnemen.png,0,,,,,,,,,,,,,,,,,,,,,
,,,,,00017,2023-08-18_23h49.10.228,vbt_B2_day3,2022.2.4,MacIntel,60.0024001,,,,,,down,0,0.9278,,,0.035750679,0.058355978,1,0,0,0,145,145,83,1,mening,images/br_mening.png,images/cb_mening.png,0,,,,,,,,,,,,,,,,,,,,,
,,,,,00017,2023-08-18_23h49.10.228,vbt_B2_day3,2022.2.4,MacIntel,60.0024001,,,,,,down,0,1.0055,,,0.02993801,0.055205503,1,0,0,0,146,146,134,1,geliefd,images/br_geliefd.png,images/cb_geliefd.png,0,,,,,,,,,,,,,,,,,,,,,
,,,,,00017,2023-08-18_23h49.10.228,vbt_B2_day3,2022.2.4,MacIntel,60.0024001,,,,,,down,0,0.7857,,,0.027352242,0.055205503,1,0,0,0,147,147,139,1,stiekem,images/br_stiekem.png,images/cb_stiekem.png,0,,,,,,,,,,,,,,,,,,,,,
,,,,,00017,2023-08-18_23h49.10.228,vbt_B2_day3,2022.2.4,MacIntel,60.0024001,,,,,,down,0,2.9264,,,0.027352242,0.055205503,1,0,0,0,148,148,71,1,bever,images/br_bever.png,images/cb_bever.png,0,,,,,,,,,,,,,,,,,,,,,
,,,,,00017,2023-08-18_23h49.10.228,vbt_B2_day3,2022.2.4,MacIntel,60.0024001,,,,,,down,0,2.466,,,0.025585937,0.054067595,1,0,0,0,149,149,89,1,slapen,images/br_slapen.png,images/cb_slapen.png,0,,,,,,,,,,,,,,,,,,,,,
,,,,,00017,2023-08-18_23h49.10.228,vbt_B2_day3,2022.2.4,MacIntel,60.0024001,,,,,,down,0,2.2698,,,0.025585937,0.054067595,1,0,0,0,150,150,170,1,schatten,images/br_schatten.png,images/cb_schatten.png,0,,,,,,,,,,,,,,,,,,,,,
,,,,,00017,2023-08-18_23h49.10.228,vbt_B2_day3,2022.2.4,MacIntel,60.0024001,,,,,,down,0,0.8664,,,0.023051121,0.054067595,1,0,0,0,151,151,53,1,baron,images/br_baron.png,images/cb_baron.png,0,,,,,,,,,,,,,,,,,,,,,
,,,,,00017,2023-08-18_23h49.10.228,vbt_B2_day3,2022.2.4,MacIntel,60.0024001,,,,,,down,0,3.001,blijven,,0.151176121,0.098144531,1,0,0,0,152,152,140,1,blijven,images/br_blijven.png,images/cb_blijven.png,1,,,,,,,,,,,,,,,,,,,,,
,,,,,00017,2023-08-18_23h49.10.228,vbt_B2_day3,2022.2.4,MacIntel,60.0024001,,,,,,down,0,7.3282,,,-0.0396357,0.053651495,1,0,0,0,153,153,172,1,weigeren,images/br_weigeren.png,images/cb_weigeren.png,0,,,,,,,,,,,,,,,,,,,,,
,,,,,00017,2023-08-18_23h49.10.228,vbt_B2_day3,2022.2.4,MacIntel,60.0024001,,,,,,down,0,0.2975,,,-0.084192425,0.03037534,1,0,0,0,154,154,10,1,leek,images/br_leek.png,images/cb_leek.png,0,,,,,,,,,,,,,,,,,,,,,
,,,,,00017,2023-08-18_23h49.10.228,vbt_B2_day3,2022.2.4,MacIntel,60.0024001,,,,,,down,0,2.8041,,,-0.067225713,0.050543478,1,0,0,0,155,155,1,1,zaal,images/br_zaal.png,images/cb_zaal.png,0,,,,,,,,,,,,,,,,,,,,,
,,,,,00017,2023-08-18_23h49.10.228,vbt_B2_day3,2022.2.4,MacIntel,60.0024001,,,,,,down,0,1.5825,,,-0.043410326,0.055112092,1,0,0,0,156,156,78,1,leren,images/br_leren.png,images/cb_leren.png,0,,,,,,,,,,,,,,,,,,,,,
,,,,,00017,2023-08-18_23h49.10.228,vbt_B2_day3,2022.2.4,MacIntel,60.0024001,,,,,,down,0,3.3717,,,-0.043410326,0.055112092,1,0,0,0,157,157,131,1,opzicht,images/br_opzicht.png,images/cb_opzicht.png,0,,,,,,,,,,,,,,,,,,,,,
,,,,,00017,2023-08-18_23h49.10.228,vbt_B2_day3,2022.2.4,MacIntel,60.0024001,,,,,,down,0,2.7099,,,0.001384171,0.108275306,1,0,0,0,158,158,68,1,schat,images/br_schat.png,images/cb_schat.png,0,,,,,,,,,,,,,,,,,,,,,
,,,,,00017,2023-08-18_23h49.10.228,vbt_B2_day3,2022.2.4,MacIntel,60.0024001,,,,,,down,0,1.907,,,0.027823539,0.135521399,1,0,0,0,159,159,15,1,soda,images/br_soda.png,images/cb_soda.png,0,,,,,,,,,,,,,,,,,,,,,
,,,,,00017,2023-08-18_23h49.10.228,vbt_B2_day3,2022.2.4,MacIntel,60.0024001,,,,,,down,0,1.5013,,,0.01649966,0.132978091,1,0,0,0,160,160,66,1,lever,images/br_lever.png,images/cb_lever.png,0,,,,,,,,,,,,,,,,,,,,,
,,,,,00017,2023-08-18_23h49.10.228,vbt_B2_day3,2022.2.4,MacIntel,60.0024001,,,,,,down,0,1.8985,,,0.01649966,0.134273098,1,0,0,0,161,161,160,1,daarheen,images/br_daarheen.png,images/cb_daarheen.png,0,,,,,,,,,,,,,,,,,,,,,
,,,,,00017,2023-08-18_23h49.10.228,vbt_B2_day3,2022.2.4,MacIntel,60.0024001,,,,,,down,0,0.6048,,,0.01649966,0.134273098,1,0,0,0,162,162,19,1,geit,images/br_geit.png,images/cb_geit.png,0,,,,,,,,,,,,,,,,,,,,,
,,,,,00017,2023-08-18_23h49.10.228,vbt_B2_day3,2022.2.4,MacIntel,60.0024001,,,,,,down,0,1.1663,,,0.01649966,0.134273098,1,0,0,0,163,163,137,1,trekker,images/br_trekker.png,images/cb_trekker.png,0,,,,,,,,,,,,,,,,,,,,,
,,,,,00017,2023-08-18_23h49.10.228,vbt_B2_day3,2022.2.4,MacIntel,60.0024001,,,,,,down,0,3.8998,,,0.01649966,0.134273098,1,0,0,0,164,164,123,1,hiervan,images/br_hiervan.png,images/cb_hiervan.png,0,,,,,,,,,,,,,,,,,,,,,
,,,,,00017,2023-08-18_23h49.10.228,vbt_B2_day3,2022.2.4,MacIntel,60.0024001,,,,,,down,0,2.8702,staren,,0.021361243,0.134273098,1,0,0,0,165,165,101,1,staren,images/br_staren.png,images/cb_staren.png,1,,,,,,,,,,,,,,,,,,,,,
,,,,,00017,2023-08-18_23h49.10.228,vbt_B2_day3,2022.2.4,MacIntel,60.0024001,,,,,,down,0,5.5482,snuiven,,0.01865659,0.134273098,1,0,0,0,166,166,142,1,snuiven,images/br_snuiven.png,images/cb_snuiven.png,1,,,,,,,,,,,,,,,,,,,,,
,,,,,00017,2023-08-18_23h49.10.228,vbt_B2_day3,2022.2.4,MacIntel,60.0024001,,,,,,down,0,6.4496,,,0.068809443,-0.096216882,1,0,0,0,167,167,159,1,sufferd,images/br_sufferd.png,images/cb_sufferd.png,0,,,,,,,,,,,,,,,,,,,,,
,,,,,00017,2023-08-18_23h49.10.228,vbt_B2_day3,2022.2.4,MacIntel,60.0024001,,,,,,down,0,3.0866,,,0.00447945,-0.022091542,1,0,0,0,168,168,85,1,heilig,images/br_heilig.png,images/cb_heilig.png,0,,,,,,,,,,,,,,,,,,,,,
,,,,,00017,2023-08-18_23h49.10.228,vbt_B2_day3,2022.2.4,MacIntel,60.0024001,,,,,,down,0,7.3527,,,-0.019255265,0.045877208,1,0,0,0,169,169,128,1,prikken,images/br_prikken.png,images/cb_prikken.png,0,,,,,,,,,,,,,,,,,,,,,
,,,,,00017,2023-08-18_23h49.10.228,vbt_B2_day3,2022.2.4,MacIntel,60.0024001,,,,,,down,0,1.7703,,,-0.019255265,0.045877208,1,0,0,0,170,170,50,1,stoom,images/br_stoom.png,images/cb_stoom.png,0,,,,,,,,,,,,,,,,,,,,,
,,,,,00017,2023-08-18_23h49.10.228,vbt_B2_day3,2022.2.4,MacIntel,60.0024001,,,,,,down,0,0.1031,,,-0.019255265,0.045877208,1,0,0,0,171,171,90,1,geluid,images/br_geluid.png,images/cb_geluid.png,0,,,,,,,,,,,,,,,,,,,,,
,,,,,00017,2023-08-18_23h49.10.228,vbt_B2_day3,2022.2.4,MacIntel,60.0024001,,,,,,down,0,2.8081,groen,,-0.019255265,0.045877208,1,0,0,0,172,172,61,1,groen,images/br_groen.png,images/cb_groen.png,1,,,,,,,,,,,,,,,,,,,,,
,,,,,00017,2023-08-18_23h49.10.228,vbt_B2_day3,2022.2.4,MacIntel,60.0024001,,,,,,down,0,4.6317,,,0.017573879,-0.085202955,1,0,0,0,173,173,33,1,vlek,images/br_vlek.png,images/cb_vlek.png,0,,,,,,,,,,,,,,,,,,,,,
,,,,,00017,2023-08-18_23h49.10.228,vbt_B2_day3,2022.2.4,MacIntel,60.0024001,,,,,,down,0,0.1536,,,0.021679687,-0.085202955,1,0,0,0,174,174,16,1,ziek,images/br_ziek.png,images/cb_ziek.png,0,,,,,,,,,,,,,,,,,,,,,
,,,,,00017,2023-08-18_23h49.10.228,vbt_B2_day3,2022.2.4,MacIntel,60.0024001,,,,,,down,0,0.1369,,,0.020694633,-0.085202955,1,0,0,0,175,175,35,1,lust,images/br_lust.png,images/cb_lust.png,0,,,,,,,,,,,,,,,,,,,,,
,,,,,00017,2023-08-18_23h49.10.228,vbt_B2_day3,2022.2.4,MacIntel,60.0024001,,,,,,down,0,0.4013,,,0.020694633,-0.085202955,1,0,0,0,176,176,26,1,leuk,images/br_leuk.png,images/cb_leuk.png,0,,,,,,,,,,,,,,,,,,,,,
,,,,,00017,2023-08-18_23h49.10.228,vbt_B2_day3,2022.2.4,MacIntel,60.0024001,,,,,,down,0,2.4542,,,0.020694633,-0.085202955,1,0,0,0,177,177,179,1,woestijn,images/br_woestijn.png,images/cb_woestijn.png,0,,,,,,,,,,,,,,,,,,,,,
,,,,,00017,2023-08-18_23h49.10.228,vbt_B2_day3,2022.2.4,MacIntel,60.0024001,,,,,,down,0,0.4369,,,0.020694633,-0.085202955,1,0,0,0,178,178,28,1,stal,images/br_stal.png,images/cb_stal.png,0,,,,,,,,,,,,,,,,,,,,,
,,,,,00017,2023-08-18_23h49.10.228,vbt_B2_day3,2022.2.4,MacIntel,60.0024001,,,,,,down,0,5.5837,,,0.020694633,-0.085202955,1,0,0,0,179,179,80,1,kanjer,images/br_kanjer.png,images/cb_kanjer.png,0,,,,,,,,,,,,,,,,,,,,,
,,,,,00017,2023-08-18_23h49.10.228,vbt_B2_day3,2022.2.4,MacIntel,60.0024001,,,,,,down,0,6.0215,openbaar,,-0.010449219,0.01806216,1,0,0,0,180,180,180,1,openbaar,images/br_openbaar.png,images/cb_openbaar.png,1,,,,,,,,,,,,,,,,,,,,,
,,,,,00017,2023-08-18_23h49.10.228,vbt_B2_day3,2022.2.4,MacIntel,60.0024001,,,,,,down,0,1.5801,,,0.090140965,0.166911515,1,0,0,0,181,181,46,1,jagen,images/br_jagen.png,images/cb_jagen.png,0,,,,,,,,,,,,,,,,,,,,,
,,,,,00017,2023-08-18_23h49.10.228,vbt_B2_day3,2022.2.4,MacIntel,60.0024001,,,,,,down,0,1.9979,,,0.090140965,0.166911515,1,0,0,0,182,182,184,1,aandelen,images/br_aandelen.png,images/cb_aandelen.png,0,,,,,,,,,,,,,,,,,,,,,
,,,,,00017,2023-08-18_23h49.10.228,vbt_B2_day3,2022.2.4,MacIntel,60.0024001,,,,,,down,0,0.8102,,,0.032400645,0.048662534,1,0,0,0,183,183,93,1,waarop,images/br_waarop.png,images/cb_waarop.png,0,,,,,,,,,,,,,,,,,,,,,
,,,,,00017,2023-08-18_23h49.10.228,vbt_B2_day3,2022.2.4,MacIntel,60.0024001,,,,,,down,0,1.2207,,,0.075844939,0.115064538,1,0,0,0,184,184,125,1,aanzien,images/br_aanzien.png,images/cb_aanzien.png,0,,,,,,,,,,,,,,,,,,,,,
,,,,,00017,2023-08-18_23h49.10.228,vbt_B2_day3,2022.2.4,MacIntel,60.0024001,,,,,,down,0,1.1939,,,0.07555197,0.113098675,1,0,0,0,185,185,166,1,strikken,images/br_strikken.png,images/cb_strikken.png,0,,,,,,,,,,,,,,,,,,,,,
,,,,,00017,2023-08-18_23h49.10.228,vbt_B2_day3,2022.2.4,MacIntel,60.0024001,,,,,,down,0,0.7499,,,0.041924253,0.193813689,1,0,0,0,186,186,115,1,kleren,images/br_kleren.png,images/cb_kleren.png,0,,,,,,,,,,,,,,,,,,,,,
,,,,,00017,2023-08-18_23h49.10.228,vbt_B2_day3,2022.2.4,MacIntel,60.0024001,,,,,,down,0,1.9246,,,-0.092900815,-0.078384001,1,0,0,0,187,187,51,1,samen,images/br_samen.png,images/cb_samen.png,0,,,,,,,,,,,,,,,,,,,,,
,,,,,00017,2023-08-18_23h49.10.228,vbt_B2_day3,2022.2.4,MacIntel,60.0024001,,,,,,down,0,1.7035,,,-0.176146399,-0.221191406,1,0,0,0,188,188,146,1,opkomen,images/br_opkomen.png,images/cb_opkomen.png,0,,,,,,,,,,,,,,,,,,,,,
,,,,,00017,2023-08-18_23h49.10.228,vbt_B2_day3,2022.2.4,MacIntel,60.0024001,,,,,,down,0,6.8498,,,-0.040548573,0.024295177,1,0,0,0,189,189,187,1,opkijken,images/br_opkijken.png,images/cb_opkijken.png,0,,,,,,,,,,,,,,,,,,,,,
,,,,,00017,2023-08-18_23h49.10.228,vbt_B2_day3,2022.2.4,MacIntel,60.0024001,,,,,,down,0,1.3872,,,-0.040548573,0.024295177,1,0,0,0,190,190,4,1,moes,images/br_moes.png,images/cb_moes.png,0,,,,,,,,,,,,,,,,,,,,,
,,,,,00017,2023-08-18_23h49.10.228,vbt_B2_day3,2022.2.4,MacIntel,60.0024001,,,,,,down,0,2.4895,,,-0.140306556,-0.021522588,1,0,0,0,191,191,112,1,lukken,images/br_lukken.png,images/cb_lukken.png,0,,,,,,,,,,,,,,,,,,,,,
,,,,,00017,2023-08-18_23h49.10.228,vbt_B2_day3,2022.2.4,MacIntel,60.0024001,,,,,,down,0,4.3057,,,-0.080413553,0.058810292,1,0,0,0,192,192,149,1,redding,images/br_redding.png,images/cb_redding.png,0,,,,,,,,,,,,,,,,,,,,,
,,,,,00017,2023-08-18_23h49.10.228,vbt_B2_day3,2022.2.4,MacIntel,60.0024001,,,,,,down,0,1.6553,,,-0.05045856,2.12296E-05,1,0,0,0,193,193,94,1,oceaan,images/br_oceaan.png,images/cb_oceaan.png,0,,,,,,,,,,,,,,,,,,,,,
,,,,,00017,2023-08-18_23h49.10.228,vbt_B2_day3,2022.2.4,MacIntel,60.0024001,,,,,,down,0,4.2996,,,-0.076668648,-0.160720958,1,0,0,0,194,194,162,1,uitdelen,images/br_uitdelen.png,images/cb_uitdelen.png,0,,,,,,,,,,,,,,,,,,,,,
,,,,,00017,2023-08-18_23h49.10.228,vbt_B2_day3,2022.2.4,MacIntel,60.0024001,,,,,,down,0,1.5089,,,-0.076668648,-0.160720958,1,0,0,0,195,195,175,1,heengaan,images/br_heengaan.png,images/cb_heengaan.png,0,,,,,,,,,,,,,,,,,,,,,
,,,,,00017,2023-08-18_23h49.10.228,vbt_B2_day3,2022.2.4,MacIntel,60.0024001,,,,,,down,0,3.809,,,-0.076668648,-0.160720958,1,0,0,0,196,196,75,1,snoep,images/br_snoep.png,images/cb_snoep.png,0,,,,,,,,,,,,,,,,,,,,,
,,,,,00017,2023-08-18_23h49.10.228,vbt_B2_day3,2022.2.4,MacIntel,60.0024001,,,,,,down,0,1.3378,knaap,,-0.076668648,-0.160720958,1,0,0,0,197,197,62,1,knaap,images/br_knaap.png,images/cb_knaap.png,1,,,,,,,,,,,,,,,,,,,,,
,,,,,00017,2023-08-18_23h49.10.228,vbt_B2_day3,2022.2.4,MacIntel,60.0024001,,,,,,down,0,3.1693,,,-0.039780061,-0.117085598,1,0,0,0,198,198,127,1,doodmoe,images/br_doodmoe.png,images/cb_doodmoe.png,0,,,,,,,,,,,,,,,,,,,,,
,,,,,00017,2023-08-18_23h49.10.228,vbt_B2_day3,2022.2.4,MacIntel,60.0024001,,,,,,down,0,3.6845,,,-0.036599864,-0.194025985,1,0,0,0,199,199,130,1,keihard,images/br_keihard.png,images/cb_keihard.png,0,,,,,,,,,,,,,,,,,,,,,
,,,,,00017,2023-08-18_23h49.10.228,vbt_B2_day3,2022.2.4,MacIntel,60.0024001,,,,,,,,,,,,,,,,,,,,,,,,,-0.036599864,-0.194025985,1,0,0,,,,,,,,,,,,,,,,
,,,,,00017,2023-08-18_23h49.10.228,vbt_B2_day3,2022.2.4,MacIntel,60.0024001,,,,,,,,,,,,,,,,,,,,,,,,,,,,,,0.122337806,0.012512738,1,0,0,,,,,,,,,,,
,,,,,00017,2023-08-18_23h49.10.228,vbt_B2_day3,2022.2.4,MacIntel,60.0024001,,,,,,,,,stoom,,,,,,,,,,,,stoom,images/br_stoom.png,images/cb_stoom.png,,,,,,,,,,,,-0.053473166,-0.060831352,1,0,0,stoom,0,0,0,6,1
,,,,,00017,2023-08-18_23h49.10.228,vbt_B2_day3,2022.2.4,MacIntel,60.0024001,,,,,,,,,.,,,,,,,,,,,,verhaal,images/br_verhaal.png,images/cb_verhaal.png,,,,,,,,,,,,-0.051384171,-0.17970873,1,0,0,.,0,1,1,13,1
,,,,,00017,2023-08-18_23h49.10.228,vbt_B2_day3,2022.2.4,MacIntel,60.0024001,,,,,,,,,mode,,,,,,,,,,,,mode,images/br_mode.png,images/cb_mode.png,,,,,,,,,,,,0.359914232,0.086722996,1,0,0,mode,0,2,2,3,1
,,,,,00017,2023-08-18_23h49.10.228,vbt_B2_day3,2022.2.4,MacIntel,60.0024001,,,,,,,,,uviek,,,,,,,,,,,,uviek,images/br_uviek.png,images/cb_uviek.png,,,,,,,,,,,,0.016622792,-0.006814708,1,0,0,uviek,0,3,3,25,1
,,,,,00017,2023-08-18_23h49.10.228,vbt_B2_day3,2022.2.4,MacIntel,60.0024001,,,,,,,,,glijden,,,,,,,,,,,,glijden,images/br_glijden.png,images/cb_glijden.png,,,,,,,,,,,,0.083589504,0.273089334,1,0,0,glijden,0,4,4,53,1
,,,,,00017,2023-08-18_23h49.10.228,vbt_B2_day3,2022.2.4,MacIntel,60.0024001,,,,,,,,,eens,,,,,,,,,,,,eens,images/br_eens.png,images/cb_eens.png,,,,,,,,,,,,0.219378397,-0.126787534,1,0,0,eens,0,5,5,40,1
,,,,,00017,2023-08-18_23h49.10.228,vbt_B2_day3,2022.2.4,MacIntel,60.0024001,,,,,,,,,oprotten,,,,,,,,,,,,oprotten,images/br_oprotten.png,images/cb_oprotten.png,,,,,,,,,,,,0.131899626,0.20089589,1,0,0,oprotten,0,6,6,17,1
,,,,,00017,2023-08-18_23h49.10.228,vbt_B2_day3,2022.2.4,MacIntel,60.0024001,,,,,,,,,hust,,,,,,,,,,,,hust,images/br_hust.png,images/cb_hust.png,,,,,,,,,,,,0.162759001,0.082252038,1,0,0,hust,0,7,7,23,1
,,,,,00017,2023-08-18_23h49.10.228,vbt_B2_day3,2022.2.4,MacIntel,60.0024001,,,,,,,,,afbo.en,,,,,,,,,,,,afbopen,images/br_afbopen.png,images/cb_afbopen.png,,,,,,,,,,,,0.184778363,0.158016304,1,0,0,afbo.en,0,8,8,34,1
,,,,,00017,2023-08-18_23h49.10.228,vbt_B2_day3,2022.2.4,MacIntel,60.0024001,,,,,,,,,boeien,,,,,,,,,,,,boeien,images/br_boeien.png,images/cb_boeien.png,,,,,,,,,,,,0.068648098,0.159387738,1,0,0,boeien,0,9,9,8,1
,,,,,00017,2023-08-18_23h49.10.228,vbt_B2_day3,2022.2.4,MacIntel,60.0024001,,,,,,,,,jongelui,,,,,,,,,,,,jongelui,images/br_jongelui.png,images/cb_jongelui.png,,,,,,,,,,,,0.204611073,0.288485054,1,0,0,jongelui,0,10,10,59,1
,,,,,00017,2023-08-18_23h49.10.228,vbt_B2_day3,2022.2.4,MacIntel,60.0024001,,,,,,,,,knie,,,,,,,,,,,,knie,images/br_knie.png,images/cb_knie.png,,,,,,,,,,,,0.227403193,0.306080163,1,0,0,knie,0,11,11,0,1
,,,,,00017,2023-08-18_23h49.10.228,vbt_B2_day3,2022.2.4,MacIntel,60.0024001,,,,,,,,,verraden,,,,,,,,,,,,verraden,images/br_verraden.png,images/cb_verraden.png,,,,,,,,,,,,0.229258662,0.281101393,1,0,0,verraden,0,12,12,58,1
,,,,,00017,2023-08-18_23h49.10.228,vbt_B2_day3,2022.2.4,MacIntel,60.0024001,,,,,,,,,onrecht,,,,,,,,,,,,onrecht,images/br_onrecht.png,images/cb_onrecht.png,,,,,,,,,,,,0.228248132,0.208330503,1,0,0,onrecht,0,13,13,55,1
,,,,,00017,2023-08-18_23h49.10.228,vbt_B2_day3,2022.2.4,MacIntel,60.0024001,,,,,,,,,leugeren,,,,,,,,,,,,leugeren,images/br_leugeren.png,images/cb_leugeren.png,,,,,,,,,,,,0.278303329,0.321756114,1,0,0,leugeren,0,14,14,37,1
,,,,,00017,2023-08-18_23h49.10.228,vbt_B2_day3,2022.2.4,MacIntel,60.0024001,,,,,,,,,hint,,,,,,,,,,,,hint,images/br_hint.png,images/cb_hint.png,,,,,,,,,,,,0.262754755,0.241665251,1,0,0,hint,0,15,15,43,1
,,,,,00017,2023-08-18_23h49.10.228,vbt_B2_day3,2022.2.4,MacIntel,60.0024001,,,,,,,,,sultan,,,,,,,,,,,,sultan,images/br_sultan.png,images/cb_sultan.png,,,,,,,,,,,,0.286120075,0.229530401,1,0,0,sultan,0,16,16,49,1
,,,,,00017,2023-08-18_23h49.10.228,vbt_B2_day3,2022.2.4,MacIntel,60.0024001,,,,,,,,,laken,,,,,,,,,,,,laken,images/br_laken.png,images/cb_laken.png,,,,,,,,,,,,0.161727242,0.071539572,1,0,0,laken,0,17,17,5,1
,,,,,00017,2023-08-18_23h49.10.228,vbt_B2_day3,2022.2.4,MacIntel,60.0024001,,,,,,,,,vlager,,,,,,,,,,,,vlager,images/br_vlager.png,images/cb_vlager.png,,,,,,,,,,,,0.159455673,0.199375849,1,0,0,vlager,0,18,18,28,1
,,,,,00017,2023-08-18_23h49.10.228,vbt_B2_day3,2022.2.4,MacIntel,60.0024001,,,,,,,,,keihard,,,,,,,,,,,,keihard,images/br_keihard.png,images/cb_keihard.png,,,,,,,,,,,,0.116945482,0.046106488,1,0,0,keihard,0,19,19,14,1
,,,,,00017,2023-08-18_23h49.10.228,vbt_B2_day3,2022.2.4,MacIntel,60.0024001,,,,,,,,,bevret,,,,,,,,,,,,bevret,images/br_bevret.png,images/cb_bevret.png,,,,,,,,,,,,0.164690897,0.247537364,1,0,0,bevret,0,20,20,30,1
,,,,,00017,2023-08-18_23h49.10.228,vbt_B2_day3,2022.2.4,MacIntel,60.0024001,,,,,,,,,verwoor,,,,,,,,,,,,verwoor,images/br_verwoor.png,images/cb_verwoor.png,,,,,,,,,,,,0.137393852,0.259026834,1,0,0,verwoor,0,21,21,32,1
,,,,,00017,2023-08-18_23h49.10.228,vbt_B2_day3,2022.2.4,MacIntel,60.0024001,,,,,,,,,beslag,,,,,,,,,,,,beslag,images/br_beslag.png,images/cb_beslag.png,,,,,,,,,,,,0.168677819,0.357523777,1,0,0,beslag,0,22,22,51,1
,,,,,00017,2023-08-18_23h49.10.228,vbt_B2_day3,2022.2.4,MacIntel,60.0024001,,,,,,,,,steel,,,,,,,,,,,,steel,images/br_steel.png,images/cb_steel.png,,,,,,,,,,,,0.174571162,0.189831012,1,0,0,steel,0,23,23,4,1
,,,,,00017,2023-08-18_23h49.10.228,vbt_B2_day3,2022.2.4,MacIntel,60.0024001,,,,,,,,,opzicht,,,,,,,,,,,,opzicht,images/br_opzicht.png,images/cb_opzicht.png,,,,,,,,,,,,0.298055367,0.385984205,1,0,0,opzicht,0,24,24,15,1
,,,,,00017,2023-08-18_23h49.10.228,vbt_B2_day3,2022.2.4,MacIntel,60.0024001,,,,,,,,,stallen,,,,,,,,,,,,stallen,images/br_stallen.png,images/cb_stallen.png,,,,,,,,,,,,0.120478091,0.121505605,1,0,0,stallen,0,25,25,52,1
,,,,,00017,2023-08-18_23h49.10.228,vbt_B2_day3,2022.2.4,MacIntel,60.0024001,,,,,,,,,envallen,,,,,,,,,,,,invallen,images/br_invallen.png,images/cb_invallen.png,,,,,,,,,,,,0.03603091,0.114113451,1,0,0,envallen,0,26,26,57,1
,,,,,00017,2023-08-18_23h49.10.228,vbt_B2_day3,2022.2.4,MacIntel,60.0024001,,,,,,,,,mugeek,,,,,,,,,,,,mugeek,images/br_mugeek.png,images/cb_mugeek.png,,,,,,,,,,,,0.040900985,0.269017493,1,0,0,mugeek,0,27,27,29,1
,,,,,00017,2023-08-18_23h49.10.228,vbt_B2_day3,2022.2.4,MacIntel,60.0024001,,,,,,,,,bisschop,,,,,,,,,,,,bisschop,images/br_bisschop.png,images/cb_bisschop.png,,,,,,,,,,,,-0.078226902,0.173972486,1,0,0,bisschop,0,28,28,16,1
,,,,,00017,2023-08-18_23h49.10.228,vbt_B2_day3,2022.2.4,MacIntel,60.0024001,,,,,,,,,dwang,,,,,,,,,,,,dwang,images/br_dwang.png,images/cb_dwang.png,,,,,,,,,,,,0.163459579,0.323267663,1,0,0,dwang,0,29,29,47,1
,,,,,00017,2023-08-18_23h49.10.228,vbt_B2_day3,2022.2.4,MacIntel,60.0024001,,,,,,,,,stikken,,,,,,,,,,,,stikken,images/br_stikken.png,images/cb_stikken.png,,,,,,,,,,,,0.135309103,0.307659647,1,0,0,stikken,0,30,30,54,1
,,,,,00017,2023-08-18_23h49.10.228,vbt_B2_day3,2022.2.4,MacIntel,60.0024001,,,,,,,,,slapen,,,,,,,,,,,,slapen,images/br_slapen.png,images/cb_slapen.png,,,,,,,,,,,,0.195613961,0.234056556,1,0,0,slapen,0,31,31,9,1
,,,,,00017,2023-08-18_23h49.10.228,vbt_B2_day3,2022.2.4,MacIntel,60.0024001,,,,,,,,,hier,,,,,,,,,,,,hier,images/br_hier.png,images/cb_hier.png,,,,,,,,,,,,0.202237602,0.196764606,1,0,0,hier,0,32,32,1,1
,,,,,00017,2023-08-18_23h49.10.228,vbt_B2_day3,2022.2.4,MacIntel,60.0024001,,,,,,,,,twaaf,,,,,,,,,,,,twaaf,images/br_twaaf.png,images/cb_twaaf.png,,,,,,,,,,,,0.226095448,0.239911685,1,0,0,twaaf,0,33,33,24,1
,,,,,00017,2023-08-18_23h49.10.228,vbt_B2_day3,2022.2.4,MacIntel,60.0024001,,,,,,,,,alsof,,,,,,,,,,,,alsof,images/br_alsof.png,images/cb_alsof.png,,,,,,,,,,,,0.281678838,0.367582371,1,0,0,alsof,0,34,34,44,1
,,,,,00017,2023-08-18_23h49.10.228,vbt_B2_day3,2022.2.4,MacIntel,60.0024001,,,,,,,,,opzetten,,,,,,,,,,,,opzetten,images/br_opzetten.png,images/cb_opzetten.png,,,,,,,,,,,,0.310954484,0.369454823,1,0,0,opzetten,0,35,35,56,1
,,,,,00017,2023-08-18_23h49.10.228,vbt_B2_day3,2022.2.4,MacIntel,60.0024001,,,,,,,,,kaas,,,,,,,,,,,,kaas,images/br_kaas.png,images/cb_kaas.png,,,,,,,,,,,,0.233644701,0.314372452,1,0,0,kaas,0,36,36,42,1
,,,,,00017,2023-08-18_23h49.10.228,vbt_B2_day3,2022.2.4,MacIntel,60.0024001,,,,,,,,,leek,,,,,,,,,,,,leek,images/br_leek.png,images/cb_leek.png,,,,,,,,,,,,0.233644701,0.314372452,1,0,0,leek,0,37,37,2,1
,,,,,00017,2023-08-18_23h49.10.228,vbt_B2_day3,2022.2.4,MacIntel,60.0024001,,,,,,,,,geluid,,,,,,,,,,,,geluid,images/br_geluid.png,images/cb_geluid.png,,,,,,,,,,,,0.233644701,0.314372452,1,0,0,geluid,0,38,38,10,1
,,,,,00017,2023-08-18_23h49.10.228,vbt_B2_day3,2022.2.4,MacIntel,60.0024001,,,,,,,,,croo,,,,,,,,,,,,croo,images/br_croo.png,images/cb_croo.png,,,,,,,,,,,,0.233644701,0.314372452,1,0,0,croo,0,39,39,22,1
,,,,,00017,2023-08-18_23h49.10.228,vbt_B2_day3,2022.2.4,MacIntel,60.0024001,,,,,,,,,samen,,,,,,,,,,,,samen,images/br_samen.png,images/cb_samen.png,,,,,,,,,,,,0.233398438,0.314372452,1,0,0,samen,0,40,40,7,1
,,,,,00017,2023-08-18_23h49.10.228,vbt_B2_day3,2022.2.4,MacIntel,60.0024001,,,,,,,,,kwaas,,,,,,,,,,,,kwaas,images/br_kwaas.png,images/cb_kwaas.png,,,,,,,,,,,,0.230833899,0.27210428,1,0,0,kwaas,0,41,41,26,1
,,,,,00017,2023-08-18_23h49.10.228,vbt_B2_day3,2022.2.4,MacIntel,60.0024001,,,,,,,,,gebod,,,,,,,,,,,,gebod,images/br_gebod.png,images/cb_gebod.png,,,,,,,,,,,,0.230833899,0.27210428,1,0,0,gebod,0,42,42,45,1
,,,,,00017,2023-08-18_23h49.10.228,vbt_B2_day3,2022.2.4,MacIntel,60.0024001,,,,,,,,,schatten,,,,,,,,,,,,schatten,images/br_schatten.png,images/cb_schatten.png,,,,,,,,,,,,0.230833899,0.27210428,1,0,0,schatten,0,43,43,18,1
,,,,,00017,2023-08-18_23h49.10.228,vbt_B2_day3,2022.2.4,MacIntel,60.0024001,,,,,,,,,brappen,,,,,,,,,,,,brappen,images/br_brappen.png,images/cb_brappen.png,,,,,,,,,,,,0.252500849,0.106254246,1,0,0,brappen,0,44,44,35,1
,,,,,00017,2023-08-18_23h49.10.228,vbt_B2_day3,2022.2.4,MacIntel,60.0024001,,,,,,,,,booien,,,,,,,,,,,,booien,images/br_booien.png,images/cb_booien.png,,,,,,,,,,,,0.252500849,0.106254246,1,0,0,booien,0,45,45,31,1
,,,,,00017,2023-08-18_23h49.10.228,vbt_B2_day3,2022.2.4,MacIntel,60.0024001,,,,,,,,,leemaken,,,,,,,,,,,,leemaken,images/br_leemaken.png,images/cb_leemaken.png,,,,,,,,,,,,0.145575747,0.040811821,1,0,0,leemaken,0,46,46,39,1
,,,,,00017,2023-08-18_23h49.10.228,vbt_B2_day3,2022.2.4,MacIntel,60.0024001,,,,,,,,,kest,,,,,,,,,,,,kest,images/br_kest.png,images/cb_kest.png,,,,,,,,,,,,0.208818784,0.115569803,1,0,0,kest,0,47,47,21,1
,,,,,00017,2023-08-18_23h49.10.228,vbt_B2_day3,2022.2.4,MacIntel,60.0024001,,,,,,,,,uniek,,,,,,,,,,,,uniek,images/br_uniek.png,images/cb_uniek.png,,,,,,,,,,,,0.125089164,0.050233526,1,0,0,uniek,0,48,48,46,1
,,,,,00017,2023-08-18_23h49.10.228,vbt_B2_day3,2022.2.4,MacIntel,60.0024001,,,,,,,,,sluier,,,,,,,,,,,,sluier,images/br_sluier.png,images/cb_sluier.png,,,,,,,,,,,,0.092081352,-0.008432405,1,0,0,sluier,0,49,49,50,1
,,,,,00017,2023-08-18_23h49.10.228,vbt_B2_day3,2022.2.4,MacIntel,60.0024001,,,,,,,,,makieren,,,,,,,,,,,,makieren,images/br_makieren.png,images/cb_makieren.png,,,,,,,,,,,,0.05333305,-0.24554178,1,0,0,makieren,0,50,50,36,1
,,,,,00017,2023-08-18_23h49.10.228,vbt_B2_day3,2022.2.4,MacIntel,60.0024001,,,,,,,,,zone,,,,,,,,,,,,zone,images/br_zone.png,images/cb_zone.png,,,,,,,,,,,,0.075169837,-0.15847911,1,0,0,zone,0,51,51,41,1
,,,,,00017,2023-08-18_23h49.10.228,vbt_B2_day3,2022.2.4,MacIntel,60.0024001,,,,,,,,,paken,,,,,,,,,,,,paken,images/br_paken.png,images/cb_paken.png,,,,,,,,,,,,0.196331522,0.161120075,1,0,0,paken,0,52,52,27,1
,,,,,00017,2023-08-18_23h49.10.228,vbt_B2_day3,2022.2.4,MacIntel,60.0024001,,,,,,,,,prikken,,,,,,,,,,,,prikken,images/br_prikken.png,images/cb_prikken.png,,,,,,,,,,,,0.28784392,0.19896824,1,0,0,prikken,0,53,53,12,1
,,,,,00017,2023-08-18_23h49.10.228,vbt_B2_day3,2022.2.4,MacIntel,60.0024001,,,,,,,,,aarzelen,,,,,,,,,,,,aarzelen,images/br_aarzelen.png,images/cb_aarzelen.png,,,,,,,,,,,,0.350590183,0.257910156,1,0,0,aarzelen,0,54,54,19,1
,,,,,00017,2023-08-18_23h49.10.228,vbt_B2_day3,2022.2.4,MacIntel,60.0024001,,,,,,,,,gout,,,,,,,,,,,,gout,images/br_gout.png,images/cb_gout.png,,,,,,,,,,,,0.389988111,0.320100204,1,0,0,gout,0,55,55,20,1
,,,,,00017,2023-08-18_23h49.10.228,vbt_B2_day3,2022.2.4,MacIntel,60.0024001,,,,,,,,,theet...,,,,,,,,,,,,theeting,images/br_theeting.png,images/cb_theeting.png,,,,,,,,,,,,0.307952615,0.027700408,1,0,0,theet...,0,56,56,38,1
,,,,,00017,2023-08-18_23h49.10.228,vbt_B2_day3,2022.2.4,MacIntel,60.0024001,,,,,,,,,scho.el,,,,,,,,,,,,schodel,images/br_schodel.png,images/cb_schodel.png,,,,,,,,,,,,0.246955673,0.041673743,1,0,0,scho.el,0,57,57,33,1
,,,,,00017,2023-08-18_23h49.10.228,vbt_B2_day3,2022.2.4,MacIntel,60.0024001,,,,,,,,,gezond,,,,,,,,,,,,gezond,images/br_gezond.png,images/cb_gezond.png,,,,,,,,,,,,0.088527514,0.12553074,1,0,0,gezond,0,58,58,11,1
,,,,,00017,2023-08-18_23h49.10.228,vbt_B2_day3,2022.2.4,MacIntel,60.0024001,,,,,,,,,begrip,,,,,,,,,,,,begrip,images/br_begrip.png,images/cb_begrip.png,,,,,,,,,,,,0.058096977,0.243125849,1,0,0,begrip,0,59,59,48,1
,,,,,00017,2023-08-18_23h49.10.228,vbt_B2_day3,2022.2.4,MacIntel,60.0024001,,,,,,,,,,,,,,,,,,,,,,,,,,,,,,,,,,,,,,,,,,,,,
