welcome_mouse.x,welcome_mouse.y,welcome_mouse.leftButton,welcome_mouse.midButton,welcome_mouse.rightButton,"ID",date,expName,psychopyVersion,OS,frameRate,participant,trainInstr_mouse.x,trainInstr_mouse.y,trainInstr_mouse.leftButton,trainInstr_mouse.midButton,trainInstr_mouse.rightButton,translation_key.keys,translation_key.corr,translation_key.rt,word_rsp.text,trWrd_mouse.x,trWrd_mouse.y,trWrd_mouse.leftButton,trWrd_mouse.midButton,trWrd_mouse.rightButton,train_loop.thisRepN,train_loop.thisTrialN,train_loop.thisN,train_loop.thisIndex,train_loop.ran,nlWrd,brWrd,cbWrd,test,testResp,mouse.x,mouse.y,mouse.leftButton,mouse.midButton,mouse.rightButton,testInstr_mouse.x,testInstr_mouse.y,testInstr_mouse.leftButton,testInstr_mouse.midButton,testInstr_mouse.rightButton,test_mouse.x,test_mouse.y,test_mouse.leftButton,test_mouse.midButton,test_mouse.rightButton,test_response.text,test_loop.thisRepN,test_loop.thisTrialN,test_loop.thisN,test_loop.thisIndex,test_loop.ran
-0.203996249,-0.250547543,1,0,0,,2023-07-27_24h05.08.528,vbt_B2_day3,2022.2.4,Linux armv81,61.06497313,52204,,,,,,,,,,,,,,,,,,,,,,,,,,,,,,,,,,,,,,,,,,,,,
,,,,,,2023-07-27_24h05.08.528,vbt_B2_day3,2022.2.4,Linux armv81,61.06497313,52204,0.601923527,-0.111873943,1,0,0,,,,,,,,,,,,,,,,,,,,,,,,,,,,,,,,,,,,,,,,
,,,,,,2023-07-27_24h05.08.528,vbt_B2_day3,2022.2.4,Linux armv81,61.06497313,52204,,,,,,down,0,2.9823,,0.518333354,0.042717677,1,0,0,0,0,0,37,1,mijn,images/br_mijn.png,images/cb_mijn.png,0,,,,,,,,,,,,,,,,,,,,,,
,,,,,,2023-07-27_24h05.08.528,vbt_B2_day3,2022.2.4,Linux armv81,61.06497313,52204,,,,,,down,0,0.298,,0.09541959,0.001278401,1,0,0,0,1,1,38,1,baai,images/br_baai.png,images/cb_baai.png,0,,,,,,,,,,,,,,,,,,,,,,
,,,,,,2023-07-27_24h05.08.528,vbt_B2_day3,2022.2.4,Linux armv81,61.06497313,52204,,,,,,down,0,0.0921,,0.09541959,0.001278401,1,0,0,0,2,2,138,1,akkoord,images/br_akkoord.png,images/cb_akkoord.png,0,,,,,,,,,,,,,,,,,,,,,,
,,,,,,2023-07-27_24h05.08.528,vbt_B2_day3,2022.2.4,Linux armv81,61.06497313,52204,,,,,,down,0,0.4316,,0.121530326,0.130868932,1,0,0,0,3,3,24,1,jurk,images/br_jurk.png,images/cb_jurk.png,0,,,,,,,,,,,,,,,,,,,,,,
,,,,,,2023-07-27_24h05.08.528,vbt_B2_day3,2022.2.4,Linux armv81,61.06497313,52204,,,,,,down,0,0.7254,,0.121530326,0.130868932,1,0,0,0,4,4,121,1,twijfel,images/br_twijfel.png,images/cb_twijfel.png,0,,,,,,,,,,,,,,,,,,,,,,
,,,,,,2023-07-27_24h05.08.528,vbt_B2_day3,2022.2.4,Linux armv81,61.06497313,52204,,,,,,down,0,27.5973,,0.499202007,0.26331642,1,0,0,0,5,5,183,1,getuigen,images/br_getuigen.png,images/cb_getuigen.png,1,getuigen,,,,,,,,,,,,,,,,,,,,,
,,,,,,2023-07-27_24h05.08.528,vbt_B2_day3,2022.2.4,Linux armv81,61.06497313,52204,,,,,,down,0,1.7756,,0.198586693,0.296165272,1,0,0,0,6,6,65,1,parel,images/br_parel.png,images/cb_parel.png,0,,,,,,,,,,,,,,,,,,,,,,
,,,,,,2023-07-27_24h05.08.528,vbt_B2_day3,2022.2.4,Linux armv81,61.06497313,52204,,,,,,down,0,0.814,,0.113628477,0.262198592,1,0,0,0,7,7,127,1,doodmoe,images/br_doodmoe.png,images/cb_doodmoe.png,0,,,,,,,,,,,,,,,,,,,,,,
,,,,,,2023-07-27_24h05.08.528,vbt_B2_day3,2022.2.4,Linux armv81,61.06497313,52204,,,,,,down,0,15.2592,,0.044963796,0.288984408,1,0,0,0,8,8,162,1,uitdelen,images/br_uitdelen.png,images/cb_uitdelen.png,0,,,,,,,,,,,,,,,,,,,,,,
,,,,,,2023-07-27_24h05.08.528,vbt_B2_day3,2022.2.4,Linux armv81,61.06497313,52204,,,,,,down,0,35.3018,,-0.011504868,0.241896368,1,0,0,0,9,9,20,1,site,images/br_site.png,images/cb_site.png,1,site,,,,,,,,,,,,,,,,,,,,,
,,,,,,2023-07-27_24h05.08.528,vbt_B2_day3,2022.2.4,Linux armv81,61.06497313,52204,,,,,,down,0,1.3487,,-0.033046779,0.269577399,1,0,0,0,10,10,174,1,stemming,images/br_stemming.png,images/cb_stemming.png,0,,,,,,,,,,,,,,,,,,,,,,
,,,,,,2023-07-27_24h05.08.528,vbt_B2_day3,2022.2.4,Linux armv81,61.06497313,52204,,,,,,down,0,2.0211,,-0.033046779,0.269577399,1,0,0,0,11,11,176,1,techniek,images/br_techniek.png,images/cb_techniek.png,0,,,,,,,,,,,,,,,,,,,,,,
,,,,,,2023-07-27_24h05.08.528,vbt_B2_day3,2022.2.4,Linux armv81,61.06497313,52204,,,,,,down,0,2.3049,,-0.033046779,0.269577399,1,0,0,0,12,12,64,1,wegen,images/br_wegen.png,images/cb_wegen.png,0,,,,,,,,,,,,,,,,,,,,,,
,,,,,,2023-07-27_24h05.08.528,vbt_B2_day3,2022.2.4,Linux armv81,61.06497313,52204,,,,,,down,0,0.936,,-0.033046779,0.269577399,1,0,0,0,13,13,130,1,keihard,images/br_keihard.png,images/cb_keihard.png,0,,,,,,,,,,,,,,,,,,,,,,
,,,,,,2023-07-27_24h05.08.528,vbt_B2_day3,2022.2.4,Linux armv81,61.06497313,52204,,,,,,down,0,1.9898,,-0.033046779,0.269577399,1,0,0,0,14,14,55,1,praat,images/br_praat.png,images/cb_praat.png,0,,,,,,,,,,,,,,,,,,,,,,
,,,,,,2023-07-27_24h05.08.528,vbt_B2_day3,2022.2.4,Linux armv81,61.06497313,52204,,,,,,down,0,1.4337,,-0.033046779,0.269577399,1,0,0,0,15,15,43,1,klauw,images/br_klauw.png,images/cb_klauw.png,0,,,,,,,,,,,,,,,,,,,,,,
,,,,,,2023-07-27_24h05.08.528,vbt_B2_day3,2022.2.4,Linux armv81,61.06497313,52204,,,,,,down,0,0.2875,,-0.033046779,0.269577399,1,0,0,0,16,16,66,1,lever,images/br_lever.png,images/cb_lever.png,0,,,,,,,,,,,,,,,,,,,,,,
,,,,,,2023-07-27_24h05.08.528,vbt_B2_day3,2022.2.4,Linux armv81,61.06497313,52204,,,,,,down,0,0.6847,,-0.033046779,0.269577399,1,0,0,0,17,17,7,1,geld,images/br_geld.png,images/cb_geld.png,0,,,,,,,,,,,,,,,,,,,,,,
,,,,,,2023-07-27_24h05.08.528,vbt_B2_day3,2022.2.4,Linux armv81,61.06497313,52204,,,,,,down,0,1.2375,,-0.033046779,0.269577399,1,0,0,0,18,18,111,1,ticket,images/br_ticket.png,images/cb_ticket.png,0,,,,,,,,,,,,,,,,,,,,,,
,,,,,,2023-07-27_24h05.08.528,vbt_B2_day3,2022.2.4,Linux armv81,61.06497313,52204,,,,,,down,0,1.217,,-0.033046779,0.269577399,1,0,0,0,19,19,165,1,feestdag,images/br_feestdag.png,images/cb_feestdag.png,0,,,,,,,,,,,,,,,,,,,,,,
,,,,,,2023-07-27_24h05.08.528,vbt_B2_day3,2022.2.4,Linux armv81,61.06497313,52204,,,,,,down,0,0.5963,,-0.033046779,0.269577399,1,0,0,0,20,20,80,1,kanjer,images/br_kanjer.png,images/cb_kanjer.png,0,,,,,,,,,,,,,,,,,,,,,,
,,,,,,2023-07-27_24h05.08.528,vbt_B2_day3,2022.2.4,Linux armv81,61.06497313,52204,,,,,,down,0,1.6274,,-0.033046779,0.269577399,1,0,0,0,21,21,131,1,opzicht,images/br_opzicht.png,images/cb_opzicht.png,0,,,,,,,,,,,,,,,,,,,,,,
,,,,,,2023-07-27_24h05.08.528,vbt_B2_day3,2022.2.4,Linux armv81,61.06497313,52204,,,,,,down,0,0.9743,,-0.033046779,0.269577399,1,0,0,0,22,22,161,1,attentie,images/br_attentie.png,images/cb_attentie.png,0,,,,,,,,,,,,,,,,,,,,,,
,,,,,,2023-07-27_24h05.08.528,vbt_B2_day3,2022.2.4,Linux armv81,61.06497313,52204,,,,,,down,0,0.2513,,-0.033046779,0.269577399,1,0,0,0,23,23,169,1,oprotten,images/br_oprotten.png,images/cb_oprotten.png,0,,,,,,,,,,,,,,,,,,,,,,
,,,,,,2023-07-27_24h05.08.528,vbt_B2_day3,2022.2.4,Linux armv81,61.06497313,52204,,,,,,down,0,0.3834,,-0.033046779,0.269577399,1,0,0,0,24,24,77,1,woede,images/br_woede.png,images/cb_woede.png,0,,,,,,,,,,,,,,,,,,,,,,
,,,,,,2023-07-27_24h05.08.528,vbt_B2_day3,2022.2.4,Linux armv81,61.06497313,52204,,,,,,down,0,1.9996,,0.004645216,0.057328437,1,0,0,0,25,25,184,1,aandelen,images/br_aandelen.png,images/cb_aandelen.png,0,,,,,,,,,,,,,,,,,,,,,,
,,,,,,2023-07-27_24h05.08.528,vbt_B2_day3,2022.2.4,Linux armv81,61.06497313,52204,,,,,,down,0,0.3978,,0.004645216,0.057328437,1,0,0,0,26,26,39,1,laag,images/br_laag.png,images/cb_laag.png,0,,,,,,,,,,,,,,,,,,,,,,
,,,,,,2023-07-27_24h05.08.528,vbt_B2_day3,2022.2.4,Linux armv81,61.06497313,52204,,,,,,down,0,0.1803,,-0.030708135,0.113843266,1,0,0,0,27,27,32,1,palm,images/br_palm.png,images/cb_palm.png,0,,,,,,,,,,,,,,,,,,,,,,
,,,,,,2023-07-27_24h05.08.528,vbt_B2_day3,2022.2.4,Linux armv81,61.06497313,52204,,,,,,down,0,1.8612,,-0.030708135,0.113843266,1,0,0,0,28,28,144,1,eetlust,images/br_eetlust.png,images/cb_eetlust.png,0,,,,,,,,,,,,,,,,,,,,,,
,,,,,,2023-07-27_24h05.08.528,vbt_B2_day3,2022.2.4,Linux armv81,61.06497313,52204,,,,,,down,0,10.8119,,-0.05821066,0.202399305,1,0,0,0,29,29,63,1,flirt,images/br_flirt.png,images/cb_flirt.png,1,flirt,,,,,,,,,,,,,,,,,,,,,
,,,,,,2023-07-27_24h05.08.528,vbt_B2_day3,2022.2.4,Linux armv81,61.06497313,52204,,,,,,down,0,1.2753,,-0.061671166,0.184707544,1,0,0,0,30,30,10,1,leek,images/br_leek.png,images/cb_leek.png,0,,,,,,,,,,,,,,,,,,,,,,
,,,,,,2023-07-27_24h05.08.528,vbt_B2_day3,2022.2.4,Linux armv81,61.06497313,52204,,,,,,down,0,3.0654,,-0.061671166,0.184707544,1,0,0,0,31,31,123,1,hiervan,images/br_hiervan.png,images/cb_hiervan.png,0,,,,,,,,,,,,,,,,,,,,,,
,,,,,,2023-07-27_24h05.08.528,vbt_B2_day3,2022.2.4,Linux armv81,61.06497313,52204,,,,,,down,0,0.7259,,-0.061671166,0.184707544,1,0,0,0,32,32,83,1,mening,images/br_mening.png,images/cb_mening.png,0,,,,,,,,,,,,,,,,,,,,,,
,,,,,,2023-07-27_24h05.08.528,vbt_B2_day3,2022.2.4,Linux armv81,61.06497313,52204,,,,,,down,0,13.6276,,-0.061671166,0.184707544,1,0,0,0,33,33,60,1,jasje,images/br_jasje.png,images/cb_jasje.png,1,jasje,,,,,,,,,,,,,,,,,,,,,
,,,,,,2023-07-27_24h05.08.528,vbt_B2_day3,2022.2.4,Linux armv81,61.06497313,52204,,,,,,down,0,5.8747,,-0.061671166,0.184707544,1,0,0,0,34,34,22,1,stof,images/br_stof.png,images/cb_stof.png,1,stof,,,,,,,,,,,,,,,,,,,,,
,,,,,,2023-07-27_24h05.08.528,vbt_B2_day3,2022.2.4,Linux armv81,61.06497313,52204,,,,,,down,0,1.5229,,-0.061671166,0.184707544,1,0,0,0,35,35,30,1,uien,images/br_uien.png,images/cb_uien.png,0,,,,,,,,,,,,,,,,,,,,,,
,,,,,,2023-07-27_24h05.08.528,vbt_B2_day3,2022.2.4,Linux armv81,61.06497313,52204,,,,,,down,0,1.9578,,-0.061671166,0.184707544,1,0,0,0,36,36,155,1,gerucht,images/br_gerucht.png,images/cb_gerucht.png,0,,,,,,,,,,,,,,,,,,,,,,
,,,,,,2023-07-27_24h05.08.528,vbt_B2_day3,2022.2.4,Linux armv81,61.06497313,52204,,,,,,down,0,9.4988,,-0.091212182,0.187711744,1,0,0,0,37,37,172,1,weigeren,images/br_weigeren.png,images/cb_weigeren.png,0,,,,,,,,,,,,,,,,,,,,,,
,,,,,,2023-07-27_24h05.08.528,vbt_B2_day3,2022.2.4,Linux armv81,61.06497313,52204,,,,,,down,0,3.9767,,-0.091212182,0.187711744,1,0,0,0,38,38,191,1,opheffen,images/br_opheffen.png,images/cb_opheffen.png,0,,,,,,,,,,,,,,,,,,,,,,
,,,,,,2023-07-27_24h05.08.528,vbt_B2_day3,2022.2.4,Linux armv81,61.06497313,52204,,,,,,down,0,0.9983,,-0.091212182,0.187711744,1,0,0,0,39,39,33,1,vlek,images/br_vlek.png,images/cb_vlek.png,0,,,,,,,,,,,,,,,,,,,,,,
,,,,,,2023-07-27_24h05.08.528,vbt_B2_day3,2022.2.4,Linux armv81,61.06497313,52204,,,,,,down,0,7.2208,,-0.091212182,0.187711744,1,0,0,0,40,40,103,1,joggen,images/br_joggen.png,images/cb_joggen.png,1,joggen,,,,,,,,,,,,,,,,,,,,,
,,,,,,2023-07-27_24h05.08.528,vbt_B2_day3,2022.2.4,Linux armv81,61.06497313,52204,,,,,,down,0,0.353,,-0.091212182,0.187711744,1,0,0,0,41,41,152,1,afnemen,images/br_afnemen.png,images/cb_afnemen.png,0,,,,,,,,,,,,,,,,,,,,,,
,,,,,,2023-07-27_24h05.08.528,vbt_B2_day3,2022.2.4,Linux armv81,61.06497313,52204,,,,,,down,0,0.1254,,-0.091212182,0.187711744,1,0,0,0,42,42,57,1,steek,images/br_steek.png,images/cb_steek.png,0,,,,,,,,,,,,,,,,,,,,,,
,,,,,,2023-07-27_24h05.08.528,vbt_B2_day3,2022.2.4,Linux armv81,61.06497313,52204,,,,,,down,0,1.1268,,-0.091212182,0.187711744,1,0,0,0,43,43,69,1,waken,images/br_waken.png,images/cb_waken.png,0,,,,,,,,,,,,,,,,,,,,,,
,,,,,,2023-07-27_24h05.08.528,vbt_B2_day3,2022.2.4,Linux armv81,61.06497313,52204,,,,,,down,0,1.3143,,-0.091212182,0.187711744,1,0,0,0,44,44,12,1,kust,images/br_kust.png,images/cb_kust.png,0,,,,,,,,,,,,,,,,,,,,,,
,,,,,,2023-07-27_24h05.08.528,vbt_B2_day3,2022.2.4,Linux armv81,61.06497313,52204,,,,,,down,0,0.7633,,-0.091212182,0.187711744,1,0,0,0,45,45,120,1,klimmen,images/br_klimmen.png,images/cb_klimmen.png,0,,,,,,,,,,,,,,,,,,,,,,
,,,,,,2023-07-27_24h05.08.528,vbt_B2_day3,2022.2.4,Linux armv81,61.06497313,52204,,,,,,down,0,1.8278,,-0.091212182,0.187711744,1,0,0,0,46,46,156,1,rechten,images/br_rechten.png,images/cb_rechten.png,0,,,,,,,,,,,,,,,,,,,,,,
,,,,,,2023-07-27_24h05.08.528,vbt_B2_day3,2022.2.4,Linux armv81,61.06497313,52204,,,,,,down,0,0.2965,,-0.091212182,0.187711744,1,0,0,0,47,47,0,1,slak,images/br_slak.png,images/cb_slak.png,0,,,,,,,,,,,,,,,,,,,,,,
,,,,,,2023-07-27_24h05.08.528,vbt_B2_day3,2022.2.4,Linux armv81,61.06497313,52204,,,,,,down,0,2.457,,-0.091212182,0.187711744,1,0,0,0,48,48,53,1,baron,images/br_baron.png,images/cb_baron.png,0,,,,,,,,,,,,,,,,,,,,,,
,,,,,,2023-07-27_24h05.08.528,vbt_B2_day3,2022.2.4,Linux armv81,61.06497313,52204,,,,,,down,0,2.7068,,-0.091212182,0.187711744,1,0,0,0,49,49,114,1,vullen,images/br_vullen.png,images/cb_vullen.png,0,,,,,,,,,,,,,,,,,,,,,,
,,,,,,2023-07-27_24h05.08.528,vbt_B2_day3,2022.2.4,Linux armv81,61.06497313,52204,,,,,,down,0,1.4661,,-0.091212182,0.187711744,1,0,0,0,50,50,116,1,besmet,images/br_besmet.png,images/cb_besmet.png,0,,,,,,,,,,,,,,,,,,,,,,
,,,,,,2023-07-27_24h05.08.528,vbt_B2_day3,2022.2.4,Linux armv81,61.06497313,52204,,,,,,down,0,0.1358,,-0.091212182,0.187711744,1,0,0,0,51,51,164,1,anarchie,images/br_anarchie.png,images/cb_anarchie.png,0,,,,,,,,,,,,,,,,,,,,,,
,,,,,,2023-07-27_24h05.08.528,vbt_B2_day3,2022.2.4,Linux armv81,61.06497313,52204,,,,,,down,0,0.1384,,-0.091212182,0.187711744,1,0,0,0,52,52,72,1,strak,images/br_strak.png,images/cb_strak.png,0,,,,,,,,,,,,,,,,,,,,,,
,,,,,,2023-07-27_24h05.08.528,vbt_B2_day3,2022.2.4,Linux armv81,61.06497313,52204,,,,,,down,0,3.0315,,-0.091212182,0.187711744,1,0,0,0,53,53,188,1,strekken,images/br_strekken.png,images/cb_strekken.png,0,,,,,,,,,,,,,,,,,,,,,,
,,,,,,2023-07-27_24h05.08.528,vbt_B2_day3,2022.2.4,Linux armv81,61.06497313,52204,,,,,,down,0,17.2371,,0.05675658,0.213019851,1,0,0,0,54,54,182,1,bijkomen,images/br_bijkomen.png,images/cb_bijkomen.png,1,bijkomen,,,,,,,,,,,,,,,,,,,,,
,,,,,,2023-07-27_24h05.08.528,vbt_B2_day3,2022.2.4,Linux armv81,61.06497313,52204,,,,,,down,0,1.2802,,-0.055456012,0.246287158,1,0,0,0,55,55,18,1,blik,images/br_blik.png,images/cb_blik.png,0,,,,,,,,,,,,,,,,,,,,,,
,,,,,,2023-07-27_24h05.08.528,vbt_B2_day3,2022.2.4,Linux armv81,61.06497313,52204,,,,,,down,0,4.5947,,-0.055456012,0.246287158,1,0,0,0,56,56,153,1,vervoer,images/br_vervoer.png,images/cb_vervoer.png,0,,,,,,,,,,,,,,,,,,,,,,
,,,,,,2023-07-27_24h05.08.528,vbt_B2_day3,2022.2.4,Linux armv81,61.06497313,52204,,,,,,down,0,0.8521,,-0.092006481,0.251794787,1,0,0,0,57,57,4,1,moes,images/br_moes.png,images/cb_moes.png,0,,,,,,,,,,,,,,,,,,,,,,
,,,,,,2023-07-27_24h05.08.528,vbt_B2_day3,2022.2.4,Linux armv81,61.06497313,52204,,,,,,down,0,0.1812,,-0.092006481,0.251794787,1,0,0,0,58,58,146,1,opkomen,images/br_opkomen.png,images/cb_opkomen.png,0,,,,,,,,,,,,,,,,,,,,,,
,,,,,,2023-07-27_24h05.08.528,vbt_B2_day3,2022.2.4,Linux armv81,61.06497313,52204,,,,,,down,0,0.543,,-0.092006481,0.251794787,1,0,0,0,59,59,126,1,kasteel,images/br_kasteel.png,images/cb_kasteel.png,0,,,,,,,,,,,,,,,,,,,,,,
,,,,,,2023-07-27_24h05.08.528,vbt_B2_day3,2022.2.4,Linux armv81,61.06497313,52204,,,,,,down,0,38.259,,-0.173589168,0.28119938,1,0,0,0,60,60,104,1,zweven,images/br_zweven.png,images/cb_zweven.png,0,,,,,,,,,,,,,,,,,,,,,,
,,,,,,2023-07-27_24h05.08.528,vbt_B2_day3,2022.2.4,Linux armv81,61.06497313,52204,,,,,,down,0,1.2504,,-0.173589168,0.28119938,1,0,0,0,61,61,136,1,waarbij,images/br_waarbij.png,images/cb_waarbij.png,0,,,,,,,,,,,,,,,,,,,,,,
,,,,,,2023-07-27_24h05.08.528,vbt_B2_day3,2022.2.4,Linux armv81,61.06497313,52204,,,,,,down,0,0.148,,-0.173589168,0.28119938,1,0,0,0,62,62,51,1,samen,images/br_samen.png,images/cb_samen.png,0,,,,,,,,,,,,,,,,,,,,,,
,,,,,,2023-07-27_24h05.08.528,vbt_B2_day3,2022.2.4,Linux armv81,61.06497313,52204,,,,,,down,0,4.1692,,-0.173589168,0.28119938,1,0,0,0,63,63,52,1,wagon,images/br_wagon.png,images/cb_wagon.png,0,,,,,,,,,,,,,,,,,,,,,,
,,,,,,2023-07-27_24h05.08.528,vbt_B2_day3,2022.2.4,Linux armv81,61.06497313,52204,,,,,,down,0,0.1544,,-0.173589168,0.28119938,1,0,0,0,64,64,168,1,bisschop,images/br_bisschop.png,images/cb_bisschop.png,0,,,,,,,,,,,,,,,,,,,,,,
,,,,,,2023-07-27_24h05.08.528,vbt_B2_day3,2022.2.4,Linux armv81,61.06497313,52204,,,,,,down,0,1.4153,,-0.173589168,0.28119938,1,0,0,0,65,65,45,1,piste,images/br_piste.png,images/cb_piste.png,0,,,,,,,,,,,,,,,,,,,,,,
,,,,,,2023-07-27_24h05.08.528,vbt_B2_day3,2022.2.4,Linux armv81,61.06497313,52204,,,,,,down,0,2.821,,-0.176593303,0.283702858,1,0,0,0,66,66,36,1,vuur,images/br_vuur.png,images/cb_vuur.png,0,,,,,,,,,,,,,,,,,,,,,,
,,,,,,2023-07-27_24h05.08.528,vbt_B2_day3,2022.2.4,Linux armv81,61.06497313,52204,,,,,,down,0,0.4683,,-0.176593303,0.283702858,1,0,0,0,67,67,198,1,bedoelen,images/br_bedoelen.png,images/cb_bedoelen.png,0,,,,,,,,,,,,,,,,,,,,,,
,,,,,,2023-07-27_24h05.08.528,vbt_B2_day3,2022.2.4,Linux armv81,61.06497313,52204,,,,,,down,0,0.1176,,-0.176593303,0.283702858,1,0,0,0,68,68,5,1,blad,images/br_blad.png,images/cb_blad.png,0,,,,,,,,,,,,,,,,,,,,,,
,,,,,,2023-07-27_24h05.08.528,vbt_B2_day3,2022.2.4,Linux armv81,61.06497313,52204,,,,,,down,0,1.4999,,-0.176593303,0.283702858,1,0,0,0,69,69,13,1,kaal,images/br_kaal.png,images/cb_kaal.png,0,,,,,,,,,,,,,,,,,,,,,,
,,,,,,2023-07-27_24h05.08.528,vbt_B2_day3,2022.2.4,Linux armv81,61.06497313,52204,,,,,,down,0,0.4548,,-0.176593303,0.283702858,1,0,0,0,70,70,75,1,snoep,images/br_snoep.png,images/cb_snoep.png,0,,,,,,,,,,,,,,,,,,,,,,
,,,,,,2023-07-27_24h05.08.528,vbt_B2_day3,2022.2.4,Linux armv81,61.06497313,52204,,,,,,down,0,17.3391,,-0.177169314,0.306888281,1,0,0,0,71,71,141,1,knielen,images/br_knielen.png,images/cb_knielen.png,1,knielen,,,,,,,,,,,,,,,,,,,,,
,,,,,,2023-07-27_24h05.08.528,vbt_B2_day3,2022.2.4,Linux armv81,61.06497313,52204,,,,,,down,0,1.2917,,-0.177169314,0.306888281,1,0,0,0,72,72,160,1,daarheen,images/br_daarheen.png,images/cb_daarheen.png,0,,,,,,,,,,,,,,,,,,,,,,
,,,,,,2023-07-27_24h05.08.528,vbt_B2_day3,2022.2.4,Linux armv81,61.06497313,52204,,,,,,down,0,1.0514,,-0.177169314,0.306888281,1,0,0,0,73,73,196,1,nakijken,images/br_nakijken.png,images/cb_nakijken.png,0,,,,,,,,,,,,,,,,,,,,,,
,,,,,,2023-07-27_24h05.08.528,vbt_B2_day3,2022.2.4,Linux armv81,61.06497313,52204,,,,,,down,0,0.8368,,-0.177169314,0.306888281,1,0,0,0,74,74,195,1,middelen,images/br_middelen.png,images/cb_middelen.png,0,,,,,,,,,,,,,,,,,,,,,,
,,,,,,2023-07-27_24h05.08.528,vbt_B2_day3,2022.2.4,Linux armv81,61.06497313,52204,,,,,,down,0,0.7283,,-0.177169314,0.306888281,1,0,0,0,75,75,173,1,apparaat,images/br_apparaat.png,images/cb_apparaat.png,0,,,,,,,,,,,,,,,,,,,,,,
,,,,,,2023-07-27_24h05.08.528,vbt_B2_day3,2022.2.4,Linux armv81,61.06497313,52204,,,,,,down,0,0.6804,,-0.170660258,0.304885508,1,0,0,0,76,76,133,1,seizoen,images/br_seizoen.png,images/cb_seizoen.png,0,,,,,,,,,,,,,,,,,,,,,,
,,,,,,2023-07-27_24h05.08.528,vbt_B2_day3,2022.2.4,Linux armv81,61.06497313,52204,,,,,,down,0,0.3493,,-0.170660258,0.304885508,1,0,0,0,77,77,107,1,maling,images/br_maling.png,images/cb_maling.png,0,,,,,,,,,,,,,,,,,,,,,,
,,,,,,2023-07-27_24h05.08.528,vbt_B2_day3,2022.2.4,Linux armv81,61.06497313,52204,,,,,,down,0,0.3814,,-0.170660258,0.304885508,1,0,0,0,78,78,48,1,steel,images/br_steel.png,images/cb_steel.png,0,,,,,,,,,,,,,,,,,,,,,,
,,,,,,2023-07-27_24h05.08.528,vbt_B2_day3,2022.2.4,Linux armv81,61.06497313,52204,,,,,,down,0,0.5835,,-0.170660258,0.304885508,1,0,0,0,79,79,68,1,schat,images/br_schat.png,images/cb_schat.png,0,,,,,,,,,,,,,,,,,,,,,,
,,,,,,2023-07-27_24h05.08.528,vbt_B2_day3,2022.2.4,Linux armv81,61.06497313,52204,,,,,,down,0,2.9366,,-0.170660258,0.304885508,1,0,0,0,80,80,14,1,rijp,images/br_rijp.png,images/cb_rijp.png,0,,,,,,,,,,,,,,,,,,,,,,
,,,,,,2023-07-27_24h05.08.528,vbt_B2_day3,2022.2.4,Linux armv81,61.06497313,52204,,,,,,down,0,1.2813,,-0.170660258,0.304885508,1,0,0,0,81,81,150,1,gegeven,images/br_gegeven.png,images/cb_gegeven.png,0,,,,,,,,,,,,,,,,,,,,,,
,,,,,,2023-07-27_24h05.08.528,vbt_B2_day3,2022.2.4,Linux armv81,61.06497313,52204,,,,,,down,0,0.2699,,-0.170660258,0.304885508,1,0,0,0,82,82,93,1,waarop,images/br_waarop.png,images/cb_waarop.png,0,,,,,,,,,,,,,,,,,,,,,,
,,,,,,2023-07-27_24h05.08.528,vbt_B2_day3,2022.2.4,Linux armv81,61.06497313,52204,,,,,,down,0,0.1233,,-0.170660258,0.304885508,1,0,0,0,83,83,89,1,slapen,images/br_slapen.png,images/cb_slapen.png,0,,,,,,,,,,,,,,,,,,,,,,
,,,,,,2023-07-27_24h05.08.528,vbt_B2_day3,2022.2.4,Linux armv81,61.06497313,52204,,,,,,down,0,0.0195,,-0.170660258,0.304885508,1,0,0,0,84,84,179,1,woestijn,images/br_woestijn.png,images/cb_woestijn.png,0,,,,,,,,,,,,,,,,,,,,,,
,,,,,,2023-07-27_24h05.08.528,vbt_B2_day3,2022.2.4,Linux armv81,61.06497313,52204,,,,,,down,0,1.4344,,-0.170660258,0.304885508,1,0,0,0,85,85,178,1,huisdier,images/br_huisdier.png,images/cb_huisdier.png,0,,,,,,,,,,,,,,,,,,,,,,
,,,,,,2023-07-27_24h05.08.528,vbt_B2_day3,2022.2.4,Linux armv81,61.06497313,52204,,,,,,down,0,2.8072,,-0.170660258,0.304885508,1,0,0,0,86,86,79,1,nodig,images/br_nodig.png,images/cb_nodig.png,0,,,,,,,,,,,,,,,,,,,,,,
,,,,,,2023-07-27_24h05.08.528,vbt_B2_day3,2022.2.4,Linux armv81,61.06497313,52204,,,,,,down,0,1.7426,,-0.170660258,0.304885508,1,0,0,0,87,87,115,1,kleren,images/br_kleren.png,images/cb_kleren.png,0,,,,,,,,,,,,,,,,,,,,,,
,,,,,,2023-07-27_24h05.08.528,vbt_B2_day3,2022.2.4,Linux armv81,61.06497313,52204,,,,,,down,0,2.0266,,-0.170660258,0.304885508,1,0,0,0,88,88,85,1,heilig,images/br_heilig.png,images/cb_heilig.png,0,,,,,,,,,,,,,,,,,,,,,,
,,,,,,2023-07-27_24h05.08.528,vbt_B2_day3,2022.2.4,Linux armv81,61.06497313,52204,,,,,,down,0,1.688,,-0.170660258,0.304885508,1,0,0,0,89,89,118,1,vinger,images/br_vinger.png,images/cb_vinger.png,0,,,,,,,,,,,,,,,,,,,,,,
,,,,,,2023-07-27_24h05.08.528,vbt_B2_day3,2022.2.4,Linux armv81,61.06497313,52204,,,,,,down,0,1.1612,,-0.170660258,0.304885508,1,0,0,0,90,90,84,1,lokken,images/br_lokken.png,images/cb_lokken.png,0,,,,,,,,,,,,,,,,,,,,,,
,,,,,,2023-07-27_24h05.08.528,vbt_B2_day3,2022.2.4,Linux armv81,61.06497313,52204,,,,,,down,0,12.2482,,-0.161084131,0.315833816,1,0,0,0,91,91,61,1,groen,images/br_groen.png,images/cb_groen.png,1,groen,,,,,,,,,,,,,,,,,,,,,
,,,,,,2023-07-27_24h05.08.528,vbt_B2_day3,2022.2.4,Linux armv81,61.06497313,52204,,,,,,down,0,0.4574,,-0.204056272,0.263824528,1,0,0,0,92,92,46,1,jagen,images/br_jagen.png,images/cb_jagen.png,0,,,,,,,,,,,,,,,,,,,,,,
,,,,,,2023-07-27_24h05.08.528,vbt_B2_day3,2022.2.4,Linux armv81,61.06497313,52204,,,,,,down,0,0.8227,,-0.204056272,0.263824528,1,0,0,0,93,93,149,1,redding,images/br_redding.png,images/cb_redding.png,0,,,,,,,,,,,,,,,,,,,,,,
,,,,,,2023-07-27_24h05.08.528,vbt_B2_day3,2022.2.4,Linux armv81,61.06497313,52204,,,,,,down,0,0.7552,,-0.204056272,0.263824528,1,0,0,0,94,94,88,1,boeien,images/br_boeien.png,images/cb_boeien.png,0,,,,,,,,,,,,,,,,,,,,,,
,,,,,,2023-07-27_24h05.08.528,vbt_B2_day3,2022.2.4,Linux armv81,61.06497313,52204,,,,,,down,0,0.0291,,-0.204056272,0.263824528,1,0,0,0,95,95,109,1,totaal,images/br_totaal.png,images/cb_totaal.png,0,,,,,,,,,,,,,,,,,,,,,,
,,,,,,2023-07-27_24h05.08.528,vbt_B2_day3,2022.2.4,Linux armv81,61.06497313,52204,,,,,,down,0,0.2276,,-0.204056272,0.263824528,1,0,0,0,96,96,26,1,leuk,images/br_leuk.png,images/cb_leuk.png,0,,,,,,,,,,,,,,,,,,,,,,
,,,,,,2023-07-27_24h05.08.528,vbt_B2_day3,2022.2.4,Linux armv81,61.06497313,52204,,,,,,down,0,2.4068,,-0.204056272,0.263824528,1,0,0,0,97,97,124,1,bloeien,images/br_bloeien.png,images/cb_bloeien.png,0,,,,,,,,,,,,,,,,,,,,,,
,,,,,,2023-07-27_24h05.08.528,vbt_B2_day3,2022.2.4,Linux armv81,61.06497313,52204,,,,,,down,0,1.0375,,-0.204056272,0.263824528,1,0,0,0,98,98,98,1,kreeft,images/br_kreeft.png,images/cb_kreeft.png,0,,,,,,,,,,,,,,,,,,,,,,
,,,,,,2023-07-27_24h05.08.528,vbt_B2_day3,2022.2.4,Linux armv81,61.06497313,52204,,,,,,down,0,0.416,,-0.204056272,0.263824528,1,0,0,0,99,99,171,1,aarzelen,images/br_aarzelen.png,images/cb_aarzelen.png,0,,,,,,,,,,,,,,,,,,,,,,
,,,,,,2023-07-27_24h05.08.528,vbt_B2_day3,2022.2.4,Linux armv81,61.06497313,52204,,,,,,down,0,0.4341,,-0.204056272,0.263824528,1,0,0,0,100,100,67,1,zwart,images/br_zwart.png,images/cb_zwart.png,0,,,,,,,,,,,,,,,,,,,,,,
,,,,,,2023-07-27_24h05.08.528,vbt_B2_day3,2022.2.4,Linux armv81,61.06497313,52204,,,,,,down,0,0.4544,,-0.204056272,0.263824528,1,0,0,0,101,101,44,1,flits,images/br_flits.png,images/cb_flits.png,0,,,,,,,,,,,,,,,,,,,,,,
,,,,,,2023-07-27_24h05.08.528,vbt_B2_day3,2022.2.4,Linux armv81,61.06497313,52204,,,,,,down,0,0.3428,,-0.204056272,0.263824528,1,0,0,0,102,102,90,1,geluid,images/br_geluid.png,images/cb_geluid.png,0,,,,,,,,,,,,,,,,,,,,,,
,,,,,,2023-07-27_24h05.08.528,vbt_B2_day3,2022.2.4,Linux armv81,61.06497313,52204,,,,,,down,0,10.0207,,-0.259344342,0.334003364,1,0,0,0,103,103,102,1,legaal,images/br_legaal.png,images/cb_legaal.png,1,legaal,,,,,,,,,,,,,,,,,,,,,
,,,,,,2023-07-27_24h05.08.528,vbt_B2_day3,2022.2.4,Linux armv81,61.06497313,52204,,,,,,down,0,0.3244,,-0.27476184,0.324135199,1,0,0,0,104,104,31,1,poes,images/br_poes.png,images/cb_poes.png,0,,,,,,,,,,,,,,,,,,,,,,
,,,,,,2023-07-27_24h05.08.528,vbt_B2_day3,2022.2.4,Linux armv81,61.06497313,52204,,,,,,down,0,0.745,,-0.27476184,0.324135199,1,0,0,0,105,105,35,1,lust,images/br_lust.png,images/cb_lust.png,0,,,,,,,,,,,,,,,,,,,,,,
,,,,,,2023-07-27_24h05.08.528,vbt_B2_day3,2022.2.4,Linux armv81,61.06497313,52204,,,,,,down,0,2.2492,,-0.27476184,0.324135199,1,0,0,0,106,106,3,1,mand,images/br_mand.png,images/cb_mand.png,0,,,,,,,,,,,,,,,,,,,,,,
,,,,,,2023-07-27_24h05.08.528,vbt_B2_day3,2022.2.4,Linux armv81,61.06497313,52204,,,,,,down,0,0.6591,,-0.27476184,0.324135199,1,0,0,0,107,107,122,1,waarvan,images/br_waarvan.png,images/cb_waarvan.png,0,,,,,,,,,,,,,,,,,,,,,,
,,,,,,2023-07-27_24h05.08.528,vbt_B2_day3,2022.2.4,Linux armv81,61.06497313,52204,,,,,,down,0,0.9333,,-0.27476184,0.324135199,1,0,0,0,108,108,58,1,tekst,images/br_tekst.png,images/cb_tekst.png,0,,,,,,,,,,,,,,,,,,,,,,
,,,,,,2023-07-27_24h05.08.528,vbt_B2_day3,2022.2.4,Linux armv81,61.06497313,52204,,,,,,down,0,0.3534,,-0.27476184,0.324135199,1,0,0,0,109,109,105,1,wijlen,images/br_wijlen.png,images/cb_wijlen.png,0,,,,,,,,,,,,,,,,,,,,,,
,,,,,,2023-07-27_24h05.08.528,vbt_B2_day3,2022.2.4,Linux armv81,61.06497313,52204,,,,,,down,0,29.9877,,-0.27476184,0.324135199,1,0,0,0,110,110,180,1,openbaar,images/br_openbaar.png,images/cb_openbaar.png,1,openbaar,,,,,,,,,,,,,,,,,,,,,
,,,,,,2023-07-27_24h05.08.528,vbt_B2_day3,2022.2.4,Linux armv81,61.06497313,52204,,,,,,down,0,0.4464,,-0.27476184,0.324135199,1,0,0,0,111,111,166,1,strikken,images/br_strikken.png,images/cb_strikken.png,0,,,,,,,,,,,,,,,,,,,,,,
,,,,,,2023-07-27_24h05.08.528,vbt_B2_day3,2022.2.4,Linux armv81,61.06497313,52204,,,,,,down,0,0.654,,-0.27476184,0.324135199,1,0,0,0,112,112,99,1,koffie,images/br_koffie.png,images/cb_koffie.png,0,,,,,,,,,,,,,,,,,,,,,,
,,,,,,2023-07-27_24h05.08.528,vbt_B2_day3,2022.2.4,Linux armv81,61.06497313,52204,,,,,,down,0,0.1435,,-0.27476184,0.324135199,1,0,0,0,113,113,185,1,mijnheer,images/br_mijnheer.png,images/cb_mijnheer.png,0,,,,,,,,,,,,,,,,,,,,,,
,,,,,,2023-07-27_24h05.08.528,vbt_B2_day3,2022.2.4,Linux armv81,61.06497313,52204,,,,,,down,0,0.692,,-0.27476184,0.324135199,1,0,0,0,114,114,106,1,zingen,images/br_zingen.png,images/cb_zingen.png,0,,,,,,,,,,,,,,,,,,,,,,
,,,,,,2023-07-27_24h05.08.528,vbt_B2_day3,2022.2.4,Linux armv81,61.06497313,52204,,,,,,down,0,0.9856,,-0.27476184,0.324135199,1,0,0,0,115,115,145,1,invloed,images/br_invloed.png,images/cb_invloed.png,0,,,,,,,,,,,,,,,,,,,,,,
,,,,,,2023-07-27_24h05.08.528,vbt_B2_day3,2022.2.4,Linux armv81,61.06497313,52204,,,,,,down,0,0.445,,-0.27476184,0.324135199,1,0,0,0,116,116,137,1,trekker,images/br_trekker.png,images/cb_trekker.png,0,,,,,,,,,,,,,,,,,,,,,,
,,,,,,2023-07-27_24h05.08.528,vbt_B2_day3,2022.2.4,Linux armv81,61.06497313,52204,,,,,,down,0,0.3744,,-0.27476184,0.324135199,1,0,0,0,117,117,28,1,stal,images/br_stal.png,images/cb_stal.png,0,,,,,,,,,,,,,,,,,,,,,,
,,,,,,2023-07-27_24h05.08.528,vbt_B2_day3,2022.2.4,Linux armv81,61.06497313,52204,,,,,,down,0,1.7403,,-0.27476184,0.324135199,1,0,0,0,118,118,175,1,heengaan,images/br_heengaan.png,images/cb_heengaan.png,0,,,,,,,,,,,,,,,,,,,,,,
,,,,,,2023-07-27_24h05.08.528,vbt_B2_day3,2022.2.4,Linux armv81,61.06497313,52204,,,,,,down,0,0.4907,,-0.27476184,0.324135199,1,0,0,0,119,119,41,1,maken,images/br_maken.png,images/cb_maken.png,0,,,,,,,,,,,,,,,,,,,,,,
,,,,,,2023-07-27_24h05.08.528,vbt_B2_day3,2022.2.4,Linux armv81,61.06497313,52204,,,,,,down,0,0.9703,,-0.27476184,0.324135199,1,0,0,0,120,120,73,1,volop,images/br_volop.png,images/cb_volop.png,0,,,,,,,,,,,,,,,,,,,,,,
,,,,,,2023-07-27_24h05.08.528,vbt_B2_day3,2022.2.4,Linux armv81,61.06497313,52204,,,,,,down,0,1.2825,,-0.27476184,0.324135199,1,0,0,0,121,121,135,1,gedicht,images/br_gedicht.png,images/cb_gedicht.png,0,,,,,,,,,,,,,,,,,,,,,,
,,,,,,2023-07-27_24h05.08.528,vbt_B2_day3,2022.2.4,Linux armv81,61.06497313,52204,,,,,,down,0,2.0352,,-0.27476184,0.324135199,1,0,0,0,122,122,11,1,mode,images/br_mode.png,images/cb_mode.png,0,,,,,,,,,,,,,,,,,,,,,,
,,,,,,2023-07-27_24h05.08.528,vbt_B2_day3,2022.2.4,Linux armv81,61.06497313,52204,,,,,,down,0,1.1638,,-0.27476184,0.324135199,1,0,0,0,123,123,192,1,schaamte,images/br_schaamte.png,images/cb_schaamte.png,0,,,,,,,,,,,,,,,,,,,,,,
,,,,,,2023-07-27_24h05.08.528,vbt_B2_day3,2022.2.4,Linux armv81,61.06497313,52204,,,,,,down,0,0.8304,,-0.27476184,0.324135199,1,0,0,0,124,124,54,1,gebit,images/br_gebit.png,images/cb_gebit.png,0,,,,,,,,,,,,,,,,,,,,,,
,,,,,,2023-07-27_24h05.08.528,vbt_B2_day3,2022.2.4,Linux armv81,61.06497313,52204,,,,,,down,0,2.3017,,-0.31650263,0.312465141,1,0,0,0,125,125,91,1,gezond,images/br_gezond.png,images/cb_gezond.png,0,,,,,,,,,,,,,,,,,,,,,,
,,,,,,2023-07-27_24h05.08.528,vbt_B2_day3,2022.2.4,Linux armv81,61.06497313,52204,,,,,,down,0,21.3107,,-0.390683962,0.232036259,1,0,0,0,126,126,143,1,hechten,images/br_hechten.png,images/cb_hechten.png,1,hechten,,,,,,,,,,,,,,,,,,,,,
,,,,,,2023-07-27_24h05.08.528,vbt_B2_day3,2022.2.4,Linux armv81,61.06497313,52204,,,,,,down,0,0.746,,-0.390683962,0.232036259,1,0,0,0,127,127,113,1,koppen,images/br_koppen.png,images/cb_koppen.png,0,,,,,,,,,,,,,,,,,,,,,,
,,,,,,2023-07-27_24h05.08.528,vbt_B2_day3,2022.2.4,Linux armv81,61.06497313,52204,,,,,,down,0,0.7147,,-0.390683962,0.232036259,1,0,0,0,128,128,96,1,slagen,images/br_slagen.png,images/cb_slagen.png,0,,,,,,,,,,,,,,,,,,,,,,
,,,,,,2023-07-27_24h05.08.528,vbt_B2_day3,2022.2.4,Linux armv81,61.06497313,52204,,,,,,down,0,1.0264,,-0.390683962,0.232036259,1,0,0,0,129,129,59,1,kring,images/br_kring.png,images/cb_kring.png,0,,,,,,,,,,,,,,,,,,,,,,
,,,,,,2023-07-27_24h05.08.528,vbt_B2_day3,2022.2.4,Linux armv81,61.06497313,52204,,,,,,down,0,0.0028,,-0.390683962,0.232036259,1,0,0,0,130,130,25,1,plek,images/br_plek.png,images/cb_plek.png,0,,,,,,,,,,,,,,,,,,,,,,
,,,,,,2023-07-27_24h05.08.528,vbt_B2_day3,2022.2.4,Linux armv81,61.06497313,52204,,,,,,down,0,0.0533,,-0.390683962,0.232036259,1,0,0,0,131,131,194,1,driemaal,images/br_driemaal.png,images/cb_driemaal.png,0,,,,,,,,,,,,,,,,,,,,,,
,,,,,,2023-07-27_24h05.08.528,vbt_B2_day3,2022.2.4,Linux armv81,61.06497313,52204,,,,,,down,0,0.287,,-0.390683962,0.232036259,1,0,0,0,132,132,15,1,soda,images/br_soda.png,images/cb_soda.png,0,,,,,,,,,,,,,,,,,,,,,,
,,,,,,2023-07-27_24h05.08.528,vbt_B2_day3,2022.2.4,Linux armv81,61.06497313,52204,,,,,,down,0,1.3932,,-0.390683962,0.232036259,1,0,0,0,133,133,47,1,kabel,images/br_kabel.png,images/cb_kabel.png,0,,,,,,,,,,,,,,,,,,,,,,
,,,,,,2023-07-27_24h05.08.528,vbt_B2_day3,2022.2.4,Linux armv81,61.06497313,52204,,,,,,down,0,0.4633,,-0.390683962,0.232036259,1,0,0,0,134,134,19,1,geit,images/br_geit.png,images/cb_geit.png,0,,,,,,,,,,,,,,,,,,,,,,
,,,,,,2023-07-27_24h05.08.528,vbt_B2_day3,2022.2.4,Linux armv81,61.06497313,52204,,,,,,down,0,0.0563,,-0.390683962,0.232036259,1,0,0,0,135,135,159,1,sufferd,images/br_sufferd.png,images/cb_sufferd.png,0,,,,,,,,,,,,,,,,,,,,,,
,,,,,,2023-07-27_24h05.08.528,vbt_B2_day3,2022.2.4,Linux armv81,61.06497313,52204,,,,,,down,0,0.1875,,-0.390683962,0.232036259,1,0,0,0,136,136,2,1,jaar,images/br_jaar.png,images/cb_jaar.png,0,,,,,,,,,,,,,,,,,,,,,,
,,,,,,2023-07-27_24h05.08.528,vbt_B2_day3,2022.2.4,Linux armv81,61.06497313,52204,,,,,,down,0,1.408,,-0.390683962,0.232036259,1,0,0,0,137,137,108,1,excuus,images/br_excuus.png,images/cb_excuus.png,0,,,,,,,,,,,,,,,,,,,,,,
,,,,,,2023-07-27_24h05.08.528,vbt_B2_day3,2022.2.4,Linux armv81,61.06497313,52204,,,,,,down,0,0.78,,-0.390683962,0.232036259,1,0,0,0,138,138,190,1,goedkoop,images/br_goedkoop.png,images/cb_goedkoop.png,0,,,,,,,,,,,,,,,,,,,,,,
,,,,,,2023-07-27_24h05.08.528,vbt_B2_day3,2022.2.4,Linux armv81,61.06497313,52204,,,,,,down,0,11.0571,,-0.390683962,0.232036259,1,0,0,0,139,139,86,1,woning,images/br_woning.png,images/cb_woning.png,0,,,,,,,,,,,,,,,,,,,,,,
,,,,,,2023-07-27_24h05.08.528,vbt_B2_day3,2022.2.4,Linux armv81,61.06497313,52204,,,,,,down,0,0.1488,,-0.390683962,0.232036259,1,0,0,0,140,140,117,1,kennis,images/br_kennis.png,images/cb_kennis.png,0,,,,,,,,,,,,,,,,,,,,,,
,,,,,,2023-07-27_24h05.08.528,vbt_B2_day3,2022.2.4,Linux armv81,61.06497313,52204,,,,,,down,0,2.0047,,-0.390683962,0.232036259,1,0,0,0,141,141,9,1,hier,images/br_hier.png,images/cb_hier.png,0,,,,,,,,,,,,,,,,,,,,,,
,,,,,,2023-07-27_24h05.08.528,vbt_B2_day3,2022.2.4,Linux armv81,61.06497313,52204,,,,,,down,0,0.2943,,-0.390683962,0.232036259,1,0,0,0,142,142,112,1,lukken,images/br_lukken.png,images/cb_lukken.png,0,,,,,,,,,,,,,,,,,,,,,,
,,,,,,2023-07-27_24h05.08.528,vbt_B2_day3,2022.2.4,Linux armv81,61.06497313,52204,,,,,,down,0,2.8337,,-0.390683962,0.232036259,1,0,0,0,143,143,186,1,voorraad,images/br_voorraad.png,images/cb_voorraad.png,0,,,,,,,,,,,,,,,,,,,,,,
,,,,,,2023-07-27_24h05.08.528,vbt_B2_day3,2022.2.4,Linux armv81,61.06497313,52204,,,,,,down,0,0.8445,,-0.390683962,0.232036259,1,0,0,0,144,144,76,1,afval,images/br_afval.png,images/cb_afval.png,0,,,,,,,,,,,,,,,,,,,,,,
,,,,,,2023-07-27_24h05.08.528,vbt_B2_day3,2022.2.4,Linux armv81,61.06497313,52204,,,,,,down,0,2.336,,-0.390683962,0.232036259,1,0,0,0,145,145,82,1,muziek,images/br_muziek.png,images/cb_muziek.png,0,,,,,,,,,,,,,,,,,,,,,,
,,,,,,2023-07-27_24h05.08.528,vbt_B2_day3,2022.2.4,Linux armv81,61.06497313,52204,,,,,,down,0,1.9979,,-0.390683962,0.232036259,1,0,0,0,146,146,163,1,schuilen,images/br_schuilen.png,images/cb_schuilen.png,0,,,,,,,,,,,,,,,,,,,,,,
,,,,,,2023-07-27_24h05.08.528,vbt_B2_day3,2022.2.4,Linux armv81,61.06497313,52204,,,,,,down,0,1.061,,-0.390683962,0.232036259,1,0,0,0,147,147,56,1,traag,images/br_traag.png,images/cb_traag.png,0,,,,,,,,,,,,,,,,,,,,,,
,,,,,,2023-07-27_24h05.08.528,vbt_B2_day3,2022.2.4,Linux armv81,61.06497313,52204,,,,,,down,0,0.5403,,-0.390683962,0.232036259,1,0,0,0,148,148,197,1,spanning,images/br_spanning.png,images/cb_spanning.png,0,,,,,,,,,,,,,,,,,,,,,,
,,,,,,2023-07-27_24h05.08.528,vbt_B2_day3,2022.2.4,Linux armv81,61.06497313,52204,,,,,,down,0,0.3472,,-0.390683962,0.232036259,1,0,0,0,149,149,154,1,aflopen,images/br_aflopen.png,images/cb_aflopen.png,0,,,,,,,,,,,,,,,,,,,,,,
,,,,,,2023-07-27_24h05.08.528,vbt_B2_day3,2022.2.4,Linux armv81,61.06497313,52204,,,,,,down,0,0.6244,,-0.390683962,0.232036259,1,0,0,0,150,150,92,1,geheim,images/br_geheim.png,images/cb_geheim.png,0,,,,,,,,,,,,,,,,,,,,,,
,,,,,,2023-07-27_24h05.08.528,vbt_B2_day3,2022.2.4,Linux armv81,61.06497313,52204,,,,,,down,0,0.3274,,-0.390683962,0.232036259,1,0,0,0,151,151,193,1,weeshuis,images/br_weeshuis.png,images/cb_weeshuis.png,0,,,,,,,,,,,,,,,,,,,,,,
,,,,,,2023-07-27_24h05.08.528,vbt_B2_day3,2022.2.4,Linux armv81,61.06497313,52204,,,,,,down,0,0.2489,,-0.390683962,0.232036259,1,0,0,0,152,152,129,1,verhaal,images/br_verhaal.png,images/cb_verhaal.png,0,,,,,,,,,,,,,,,,,,,,,,
,,,,,,2023-07-27_24h05.08.528,vbt_B2_day3,2022.2.4,Linux armv81,61.06497313,52204,,,,,,down,0,2.4764,,-0.390683962,0.232036259,1,0,0,0,153,153,187,1,opkijken,images/br_opkijken.png,images/cb_opkijken.png,0,,,,,,,,,,,,,,,,,,,,,,
,,,,,,2023-07-27_24h05.08.528,vbt_B2_day3,2022.2.4,Linux armv81,61.06497313,52204,,,,,,down,0,5.3816,,-0.481566605,0.287084851,1,0,0,0,154,154,23,1,zout,images/br_zout.png,images/cb_zout.png,1,zout,,,,,,,,,,,,,,,,,,,,,
,,,,,,2023-07-27_24h05.08.528,vbt_B2_day3,2022.2.4,Linux armv81,61.06497313,52204,,,,,,down,0,1.8402,,0.080296478,0.136965288,1,0,0,0,155,155,29,1,baas,images/br_baas.png,images/cb_baas.png,0,,,,,,,,,,,,,,,,,,,,,,
,,,,,,2023-07-27_24h05.08.528,vbt_B2_day3,2022.2.4,Linux armv81,61.06497313,52204,,,,,,down,0,0.0406,,0.080296478,0.136965288,1,0,0,0,156,156,8,1,knie,images/br_knie.png,images/cb_knie.png,0,,,,,,,,,,,,,,,,,,,,,,
,,,,,,2023-07-27_24h05.08.528,vbt_B2_day3,2022.2.4,Linux armv81,61.06497313,52204,,,,,,down,0,0.5961,,0.080296478,0.136965288,1,0,0,0,157,157,139,1,stiekem,images/br_stiekem.png,images/cb_stiekem.png,0,,,,,,,,,,,,,,,,,,,,,,
,,,,,,2023-07-27_24h05.08.528,vbt_B2_day3,2022.2.4,Linux armv81,61.06497313,52204,,,,,,down,0,8.7821,,0.039069174,0.198138518,1,0,0,0,158,158,101,1,staren,images/br_staren.png,images/cb_staren.png,1,staren,,,,,,,,,,,,,,,,,,,,,
,,,,,,2023-07-27_24h05.08.528,vbt_B2_day3,2022.2.4,Linux armv81,61.06497313,52204,,,,,,down,0,1.5724,,-0.001165046,0.18860589,1,0,0,0,159,159,42,1,bleek,images/br_bleek.png,images/cb_bleek.png,0,,,,,,,,,,,,,,,,,,,,,,
,,,,,,2023-07-27_24h05.08.528,vbt_B2_day3,2022.2.4,Linux armv81,61.06497313,52204,,,,,,down,0,0.3086,,-0.001165046,0.18860589,1,0,0,0,160,160,74,1,graaf,images/br_graaf.png,images/cb_graaf.png,0,,,,,,,,,,,,,,,,,,,,,,
,,,,,,2023-07-27_24h05.08.528,vbt_B2_day3,2022.2.4,Linux armv81,61.06497313,52204,,,,,,down,0,6.0376,,-0.001165046,0.18860589,1,0,0,0,161,161,21,1,mist,images/br_mist.png,images/cb_mist.png,1,mist,,,,,,,,,,,,,,,,,,,,,
,,,,,,2023-07-27_24h05.08.528,vbt_B2_day3,2022.2.4,Linux armv81,61.06497313,52204,,,,,,down,0,0.6019,,-0.001165046,0.18860589,1,0,0,0,162,162,170,1,schatten,images/br_schatten.png,images/cb_schatten.png,0,,,,,,,,,,,,,,,,,,,,,,
,,,,,,2023-07-27_24h05.08.528,vbt_B2_day3,2022.2.4,Linux armv81,61.06497313,52204,,,,,,down,0,0.314,,-0.001165046,0.18860589,1,0,0,0,163,163,134,1,geliefd,images/br_geliefd.png,images/cb_geliefd.png,0,,,,,,,,,,,,,,,,,,,,,,
,,,,,,2023-07-27_24h05.08.528,vbt_B2_day3,2022.2.4,Linux armv81,61.06497313,52204,,,,,,down,0,0.0266,,-0.001165046,0.18860589,1,0,0,0,164,164,50,1,stoom,images/br_stoom.png,images/cb_stoom.png,0,,,,,,,,,,,,,,,,,,,,,,
,,,,,,2023-07-27_24h05.08.528,vbt_B2_day3,2022.2.4,Linux armv81,61.06497313,52204,,,,,,down,0,1.1435,,-0.001165046,0.18860589,1,0,0,0,165,165,94,1,oceaan,images/br_oceaan.png,images/cb_oceaan.png,0,,,,,,,,,,,,,,,,,,,,,,
,,,,,,2023-07-27_24h05.08.528,vbt_B2_day3,2022.2.4,Linux armv81,61.06497313,52204,,,,,,down,0,0.3927,,-0.001165046,0.18860589,1,0,0,0,166,166,151,1,aanzoek,images/br_aanzoek.png,images/cb_aanzoek.png,0,,,,,,,,,,,,,,,,,,,,,,
,,,,,,2023-07-27_24h05.08.528,vbt_B2_day3,2022.2.4,Linux armv81,61.06497313,52204,,,,,,down,0,0.3009,,-0.001165046,0.18860589,1,0,0,0,167,167,16,1,ziek,images/br_ziek.png,images/cb_ziek.png,0,,,,,,,,,,,,,,,,,,,,,,
,,,,,,2023-07-27_24h05.08.528,vbt_B2_day3,2022.2.4,Linux armv81,61.06497313,52204,,,,,,down,0,0.6849,,-0.001165046,0.18860589,1,0,0,0,168,168,1,1,zaal,images/br_zaal.png,images/cb_zaal.png,0,,,,,,,,,,,,,,,,,,,,,,
,,,,,,2023-07-27_24h05.08.528,vbt_B2_day3,2022.2.4,Linux armv81,61.06497313,52204,,,,,,down,0,0.1797,,-0.001165046,0.18860589,1,0,0,0,169,169,177,1,maaltijd,images/br_maaltijd.png,images/cb_maaltijd.png,0,,,,,,,,,,,,,,,,,,,,,,
,,,,,,2023-07-27_24h05.08.528,vbt_B2_day3,2022.2.4,Linux armv81,61.06497313,52204,,,,,,down,0,26.2715,,-0.049420982,0.232704908,1,0,0,0,170,170,181,1,toegeven,images/br_toegeven.png,images/cb_toegeven.png,1,toegeven,,,,,,,,,,,,,,,,,,,,,
,,,,,,2023-07-27_24h05.08.528,vbt_B2_day3,2022.2.4,Linux armv81,61.06497313,52204,,,,,,down,0,0.4316,,-0.049420982,0.232704908,1,0,0,0,171,171,125,1,aanzien,images/br_aanzien.png,images/cb_aanzien.png,0,,,,,,,,,,,,,,,,,,,,,,
,,,,,,2023-07-27_24h05.08.528,vbt_B2_day3,2022.2.4,Linux armv81,61.06497313,52204,,,,,,down,0,4.6926,,-0.01035939,0.340597181,1,0,0,0,172,172,140,1,blijven,images/br_blijven.png,images/cb_blijven.png,1,,,,,,,,,,,,,,,,,,,,,,
,,,,,,2023-07-27_24h05.08.528,vbt_B2_day3,2022.2.4,Linux armv81,61.06497313,52204,,,,,,down,0,0.4929,,-0.01035939,0.340597181,1,0,0,0,173,173,87,1,toeval,images/br_toeval.png,images/cb_toeval.png,0,,,,,,,,,,,,,,,,,,,,,,
,,,,,,2023-07-27_24h05.08.528,vbt_B2_day3,2022.2.4,Linux armv81,61.06497313,52204,,,,,,down,0,0.2452,,-0.01035939,0.340597181,1,0,0,0,174,174,17,1,taal,images/br_taal.png,images/cb_taal.png,0,,,,,,,,,,,,,,,,,,,,,,
,,,,,,2023-07-27_24h05.08.528,vbt_B2_day3,2022.2.4,Linux armv81,61.06497313,52204,,,,,,down,0,0.4116,,-0.01035939,0.340597181,1,0,0,0,175,175,189,1,aanraden,images/br_aanraden.png,images/cb_aanraden.png,0,,,,,,,,,,,,,,,,,,,,,,
,,,,,,2023-07-27_24h05.08.528,vbt_B2_day3,2022.2.4,Linux armv81,61.06497313,52204,,,,,,down,0,0.5553,,-0.01035939,0.340597181,1,0,0,0,176,176,97,1,loyaal,images/br_loyaal.png,images/cb_loyaal.png,0,,,,,,,,,,,,,,,,,,,,,,
,,,,,,2023-07-27_24h05.08.528,vbt_B2_day3,2022.2.4,Linux armv81,61.06497313,52204,,,,,,down,0,2.1016,,-0.01035939,0.340597181,1,0,0,0,177,177,157,1,uitlaat,images/br_uitlaat.png,images/cb_uitlaat.png,0,,,,,,,,,,,,,,,,,,,,,,
,,,,,,2023-07-27_24h05.08.528,vbt_B2_day3,2022.2.4,Linux armv81,61.06497313,52204,,,,,,down,0,0.2286,,-0.01035939,0.340597181,1,0,0,0,178,178,40,1,schep,images/br_schep.png,images/cb_schep.png,0,,,,,,,,,,,,,,,,,,,,,,
,,,,,,2023-07-27_24h05.08.528,vbt_B2_day3,2022.2.4,Linux armv81,61.06497313,52204,,,,,,down,0,8.1003,,-0.01035939,0.340597181,1,0,0,0,179,179,110,1,zuster,images/br_zuster.png,images/cb_zuster.png,0,,,,,,,,,,,,,,,,,,,,,,
,,,,,,2023-07-27_24h05.08.528,vbt_B2_day3,2022.2.4,Linux armv81,61.06497313,52204,,,,,,down,0,0.3485,,-0.01035939,0.340597181,1,0,0,0,180,180,71,1,bever,images/br_bever.png,images/cb_bever.png,0,,,,,,,,,,,,,,,,,,,,,,
,,,,,,2023-07-27_24h05.08.528,vbt_B2_day3,2022.2.4,Linux armv81,61.06497313,52204,,,,,,down,0,0.642,,-0.01035939,0.340597181,1,0,0,0,181,181,49,1,laken,images/br_laken.png,images/cb_laken.png,0,,,,,,,,,,,,,,,,,,,,,,
,,,,,,2023-07-27_24h05.08.528,vbt_B2_day3,2022.2.4,Linux armv81,61.06497313,52204,,,,,,down,0,14.4105,,-0.063146373,0.379387911,1,0,0,0,182,182,62,1,knaap,images/br_knaap.png,images/cb_knaap.png,1,knaap,,,,,,,,,,,,,,,,,,,,,
,,,,,,2023-07-27_24h05.08.528,vbt_B2_day3,2022.2.4,Linux armv81,61.06497313,52204,,,,,,down,0,0.1526,,-0.066900298,0.372217766,1,0,0,0,183,183,199,1,beseffen,images/br_beseffen.png,images/cb_beseffen.png,0,,,,,,,,,,,,,,,,,,,,,,
,,,,,,2023-07-27_24h05.08.528,vbt_B2_day3,2022.2.4,Linux armv81,61.06497313,52204,,,,,,down,0,0.8164,,-0.066900298,0.372217766,1,0,0,0,184,184,119,1,liefje,images/br_liefje.png,images/cb_liefje.png,0,,,,,,,,,,,,,,,,,,,,,,
,,,,,,2023-07-27_24h05.08.528,vbt_B2_day3,2022.2.4,Linux armv81,61.06497313,52204,,,,,,down,0,0.6632,,-0.066900298,0.372217766,1,0,0,0,185,185,81,1,dubbel,images/br_dubbel.png,images/cb_dubbel.png,0,,,,,,,,,,,,,,,,,,,,,,
,,,,,,2023-07-27_24h05.08.528,vbt_B2_day3,2022.2.4,Linux armv81,61.06497313,52204,,,,,,down,0,0.4027,,-0.066900298,0.372217766,1,0,0,0,186,186,128,1,prikken,images/br_prikken.png,images/cb_prikken.png,0,,,,,,,,,,,,,,,,,,,,,,
,,,,,,2023-07-27_24h05.08.528,vbt_B2_day3,2022.2.4,Linux armv81,61.06497313,52204,,,,,,down,0,1.0146,,-0.066900298,0.372217766,1,0,0,0,187,187,158,1,innemen,images/br_innemen.png,images/cb_innemen.png,0,,,,,,,,,,,,,,,,,,,,,,
,,,,,,2023-07-27_24h05.08.528,vbt_B2_day3,2022.2.4,Linux armv81,61.06497313,52204,,,,,,down,0,0.1358,,-0.066900298,0.372217766,1,0,0,0,188,188,34,1,vorm,images/br_vorm.png,images/cb_vorm.png,0,,,,,,,,,,,,,,,,,,,,,,
,,,,,,2023-07-27_24h05.08.528,vbt_B2_day3,2022.2.4,Linux armv81,61.06497313,52204,,,,,,down,0,0.4039,,-0.066900298,0.372217766,1,0,0,0,189,189,95,1,vreten,images/br_vreten.png,images/cb_vreten.png,0,,,,,,,,,,,,,,,,,,,,,,
,,,,,,2023-07-27_24h05.08.528,vbt_B2_day3,2022.2.4,Linux armv81,61.06497313,52204,,,,,,down,0,0.3848,,-0.066900298,0.372217766,1,0,0,0,190,190,78,1,leren,images/br_leren.png,images/cb_leren.png,0,,,,,,,,,,,,,,,,,,,,,,
,,,,,,2023-07-27_24h05.08.528,vbt_B2_day3,2022.2.4,Linux armv81,61.06497313,52204,,,,,,down,0,1.0016,,-0.066900298,0.372217766,1,0,0,0,191,191,70,1,ijdel,images/br_ijdel.png,images/cb_ijdel.png,0,,,,,,,,,,,,,,,,,,,,,,
,,,,,,2023-07-27_24h05.08.528,vbt_B2_day3,2022.2.4,Linux armv81,61.06497313,52204,,,,,,down,0,0.0541,,-0.066900298,0.372217766,1,0,0,0,192,192,132,1,grappen,images/br_grappen.png,images/cb_grappen.png,0,,,,,,,,,,,,,,,,,,,,,,
,,,,,,2023-07-27_24h05.08.528,vbt_B2_day3,2022.2.4,Linux armv81,61.06497313,52204,,,,,,down,0,0.9466,,-0.066900298,0.372217766,1,0,0,0,193,193,147,1,komisch,images/br_komisch.png,images/cb_komisch.png,0,,,,,,,,,,,,,,,,,,,,,,
,,,,,,2023-07-27_24h05.08.528,vbt_B2_day3,2022.2.4,Linux armv81,61.06497313,52204,,,,,,down,0,15.845,,-0.063146373,0.379387911,1,0,0,0,194,194,142,1,snuiven,images/br_snuiven.png,images/cb_snuiven.png,1,snuiven,,,,,,,,,,,,,,,,,,,,,
,,,,,,2023-07-27_24h05.08.528,vbt_B2_day3,2022.2.4,Linux armv81,61.06497313,52204,,,,,,down,0,18.1991,,-0.066900298,0.372217766,1,0,0,0,195,195,100,1,geduld,images/br_geduld.png,images/cb_geduld.png,1,geduld,,,,,,,,,,,,,,,,,,,,,
,,,,,,2023-07-27_24h05.08.528,vbt_B2_day3,2022.2.4,Linux armv81,61.06497313,52204,,,,,,down,0,1.3171,,-0.066900298,0.372217766,1,0,0,0,196,196,167,1,eenhoorn,images/br_eenhoorn.png,images/cb_eenhoorn.png,0,,,,,,,,,,,,,,,,,,,,,,
,,,,,,2023-07-27_24h05.08.528,vbt_B2_day3,2022.2.4,Linux armv81,61.06497313,52204,,,,,,down,0,0.2606,,-0.066900298,0.372217766,1,0,0,0,197,197,27,1,dans,images/br_dans.png,images/cb_dans.png,0,,,,,,,,,,,,,,,,,,,,,,
,,,,,,2023-07-27_24h05.08.528,vbt_B2_day3,2022.2.4,Linux armv81,61.06497313,52204,,,,,,down,0,1.192,,-0.066900298,0.372217766,1,0,0,0,198,198,148,1,smullen,images/br_smullen.png,images/cb_smullen.png,0,,,,,,,,,,,,,,,,,,,,,,
,,,,,,2023-07-27_24h05.08.528,vbt_B2_day3,2022.2.4,Linux armv81,61.06497313,52204,,,,,,down,0,0.328,,-0.057887764,0.369714304,1,0,0,0,199,199,6,1,diep,images/br_diep.png,images/cb_diep.png,0,,,,,,,,,,,,,,,,,,,,,,
,,,,,,2023-07-27_24h05.08.528,vbt_B2_day3,2022.2.4,Linux armv81,61.06497313,52204,,,,,,,,,,,,,,,,,,,,,,,,,-0.057887764,0.369714304,1,0,0,,,,,,,,,,,,,,,,
,,,,,,2023-07-27_24h05.08.528,vbt_B2_day3,2022.2.4,Linux armv81,61.06497313,52204,,,,,,,,,,,,,,,,,,,,,,,,,,,,,,0.134922684,0.28121093,1,0,0,,,,,,,,,,,
,,,,,,2023-07-27_24h05.08.528,vbt_B2_day3,2022.2.4,Linux armv81,61.06497313,52204,,,,,,,,,,,,,,,,,,,,slapen,images/br_slapen.png,images/cb_slapen.png,,slapen,,,,,,,,,,,0.356173052,0.135422563,1,0,0,slapen,0,0,0,9,1
,,,,,,2023-07-27_24h05.08.528,vbt_B2_day3,2022.2.4,Linux armv81,61.06497313,52204,,,,,,,,,,,,,,,,,,,,jongelui,images/br_jongelui.png,images/cb_jongelui.png,,jongelui,,,,,,,,,,,0.433458203,0.42008619,1,0,0,jongelui,0,1,1,59,1
,,,,,,2023-07-27_24h05.08.528,vbt_B2_day3,2022.2.4,Linux armv81,61.06497313,52204,,,,,,,,,,,,,,,,,,,,paken,images/br_paken.png,images/cb_paken.png,,paken,,,,,,,,,,,0.424166216,0.259421314,1,0,0,paken,0,2,2,27,1
,,,,,,2023-07-27_24h05.08.528,vbt_B2_day3,2022.2.4,Linux armv81,61.06497313,52204,,,,,,,,,,,,,,,,,,,,steel,images/br_steel.png,images/cb_steel.png,,steel,,,,,,,,,,,0.554450746,0.091127788,1,0,0,steel,0,3,3,4,1
,,,,,,2023-07-27_24h05.08.528,vbt_B2_day3,2022.2.4,Linux armv81,61.06497313,52204,,,,,,,,,,,,,,,,,,,,glijden,images/br_glijden.png,images/cb_glijden.png,,glijden,,,,,,,,,,,0.284921893,0.012694179,1,0,0,glijden,0,4,4,53,1
,,,,,,2023-07-27_24h05.08.528,vbt_B2_day3,2022.2.4,Linux armv81,61.06497313,52204,,,,,,,,,,,,,,,,,,,,onrecht,images/br_onrecht.png,images/cb_onrecht.png,,onrecht,,,,,,,,,,,0.188796446,0.050823657,1,0,0,onrecht,0,5,5,55,1
,,,,,,2023-07-27_24h05.08.528,vbt_B2_day3,2022.2.4,Linux armv81,61.06497313,52204,,,,,,,,,,,,,,,,,,,,booien,images/br_booien.png,images/cb_booien.png,,booien,,,,,,,,,,,0.109181981,0.106520732,1,0,0,booien,0,6,6,31,1
,,,,,,2023-07-27_24h05.08.528,vbt_B2_day3,2022.2.4,Linux armv81,61.06497313,52204,,,,,,,,,,,,,,,,,,,,beslag,images/br_beslag.png,images/cb_beslag.png,,beslag,,,,,,,,,,,0.116879085,0.076913951,1,0,0,beslag,0,7,7,51,1
,,,,,,2023-07-27_24h05.08.528,vbt_B2_day3,2022.2.4,Linux armv81,61.06497313,52204,,,,,,,,,,,,,,,,,,,,boeien,images/br_boeien.png,images/cb_boeien.png,,boeien,,,,,,,,,,,0.116879085,0.076913951,1,0,0,boeien,0,8,8,8,1
,,,,,,2023-07-27_24h05.08.528,vbt_B2_day3,2022.2.4,Linux armv81,61.06497313,52204,,,,,,,,,,,,,,,,,,,,schodel,images/br_schodel.png,images/cb_schodel.png,,schodel,,,,,,,,,,,0.679532385,-0.031823517,1,0,0,schodel,0,9,9,33,1
,,,,,,2023-07-27_24h05.08.528,vbt_B2_day3,2022.2.4,Linux armv81,61.06497313,52204,,,,,,,,,,,,,,,,,,,,verhaal,images/br_verhaal.png,images/cb_verhaal.png,,verhaal,,,,,,,,,,,0.496517497,-0.020786585,1,0,0,verhaal,0,10,10,13,1
,,,,,,2023-07-27_24h05.08.528,vbt_B2_day3,2022.2.4,Linux armv81,61.06497313,52204,,,,,,,,,,,,,,,,,,,,leek,images/br_leek.png,images/cb_leek.png,,leek,,,,,,,,,,,0.358412259,0.149296212,1,0,0,leek,0,11,11,2,1
,,,,,,2023-07-27_24h05.08.528,vbt_B2_day3,2022.2.4,Linux armv81,61.06497313,52204,,,,,,,,,,,,,,,,,,,,knie,images/br_knie.png,images/cb_knie.png,,knie,,,,,,,,,,,0.311096062,0.229057636,1,0,0,knie,0,12,12,0,1
,,,,,,2023-07-27_24h05.08.528,vbt_B2_day3,2022.2.4,Linux armv81,61.06497313,52204,,,,,,,,,,,,,,,,,,,,prikken,images/br_prikken.png,images/cb_prikken.png,,prikken,,,,,,,,,,,0.251735226,0.191093169,1,0,0,prikken,0,13,13,12,1
,,,,,,2023-07-27_24h05.08.528,vbt_B2_day3,2022.2.4,Linux armv81,61.06497313,52204,,,,,,,,,,,,,,,,,,,,sultan,images/br_sultan.png,images/cb_sultan.png,,sultan,,,,,,,,,,,0.21517724,0.02522469,1,0,0,sultan,0,14,14,49,1
,,,,,,2023-07-27_24h05.08.528,vbt_B2_day3,2022.2.4,Linux armv81,61.06497313,52204,,,,,,,,,,,,,,,,,,,,keihard,images/br_keihard.png,images/cb_keihard.png,,keihard,,,,,,,,,,,0.150051368,0.165858566,1,0,0,keihard,0,15,15,14,1
,,,,,,2023-07-27_24h05.08.528,vbt_B2_day3,2022.2.4,Linux armv81,61.06497313,52204,,,,,,,,,,,,,,,,,,,,hier,images/br_hier.png,images/cb_hier.png,,hier,,,,,,,,,,,0.548523986,-0.151664394,1,0,0,hier,0,16,16,1,1
,,,,,,2023-07-27_24h05.08.528,vbt_B2_day3,2022.2.4,Linux armv81,61.06497313,52204,,,,,,,,,,,,,,,,,,,,eens,images/br_eens.png,images/cb_eens.png,,eens,,,,,,,,,,,0.45505143,-0.115613026,1,0,0,eens,0,17,17,40,1
,,,,,,2023-07-27_24h05.08.528,vbt_B2_day3,2022.2.4,Linux armv81,61.06497313,52204,,,,,,,,,,,,,,,,,,,,brappen,images/br_brappen.png,images/cb_brappen.png,,brappen,,,,,,,,,,,0.175389511,0.108321107,1,0,0,brappen,0,18,18,35,1
,,,,,,2023-07-27_24h05.08.528,vbt_B2_day3,2022.2.4,Linux armv81,61.06497313,52204,,,,,,,,,,,,,,,,,,,,uniek,images/br_uniek.png,images/cb_uniek.png,,uniek,,,,,,,,,,,0.100916123,0.245337031,1,0,0,uniek,0,19,19,46,1
,,,,,,2023-07-27_24h05.08.528,vbt_B2_day3,2022.2.4,Linux armv81,61.06497313,52204,,,,,,,,,,,,,,,,,,,,croo,images/br_croo.png,images/cb_croo.png,,croo,,,,,,,,,,,0.225655072,0.071499608,1,0,0,croo,0,20,20,22,1
,,,,,,2023-07-27_24h05.08.528,vbt_B2_day3,2022.2.4,Linux armv81,61.06497313,52204,,,,,,,,,,,,,,,,,,,,kwaas,images/br_kwaas.png,images/cb_kwaas.png,,kwaas,,,,,,,,,,,0.408742593,-0.060350552,1,0,0,kwaas,0,21,21,26,1
,,,,,,2023-07-27_24h05.08.528,vbt_B2_day3,2022.2.4,Linux armv81,61.06497313,52204,,,,,,,,,,,,,,,,,,,,begrip,images/br_begrip.png,images/cb_begrip.png,,begrip,,,,,,,,,,,0.248266589,0.053026398,1,0,0,begrip,0,22,22,48,1
,,,,,,2023-07-27_24h05.08.528,vbt_B2_day3,2022.2.4,Linux armv81,61.06497313,52204,,,,,,,,,,,,,,,,,,,,stikken,images/br_stikken.png,images/cb_stikken.png,,stikken,,,,,,,,,,,0.209499092,-0.155401922,1,0,0,stikken,0,23,23,54,1
,,,,,,2023-07-27_24h05.08.528,vbt_B2_day3,2022.2.4,Linux armv81,61.06497313,52204,,,,,,,,,,,,,,,,,,,,mode,images/br_mode.png,images/cb_mode.png,,mode,,,,,,,,,,,0.093730951,-0.042904443,1,0,0,mode,0,24,24,3,1
,,,,,,2023-07-27_24h05.08.528,vbt_B2_day3,2022.2.4,Linux armv81,61.06497313,52204,,,,,,,,,,,,,,,,,,,,gout,images/br_gout.png,images/cb_gout.png,,gout,,,,,,,,,,,0.222529061,-0.076171292,1,0,0,gout,0,25,25,20,1
,,,,,,2023-07-27_24h05.08.528,vbt_B2_day3,2022.2.4,Linux armv81,61.06497313,52204,,,,,,,,,,,,,,,,,,,,invallen,images/br_invallen.png,images/cb_invallen.png,,invallen,,,,,,,,,,,0.087645707,0.13320965,1,0,0,invallen,0,26,26,57,1
,,,,,,2023-07-27_24h05.08.528,vbt_B2_day3,2022.2.4,Linux armv81,61.06497313,52204,,,,,,,,,,,,,,,,,,,,gezond,images/br_gezond.png,images/cb_gezond.png,,gezond,,,,,,,,,,,-0.001769372,0.27074272,1,0,0,gezond,0,27,27,11,1
,,,,,,2023-07-27_24h05.08.528,vbt_B2_day3,2022.2.4,Linux armv81,61.06497313,52204,,,,,,,,,,,,,,,,,,,,stoom,images/br_stoom.png,images/cb_stoom.png,,stoom,,,,,,,,,,,0.237855948,0.023585876,1,0,0,stoom,0,28,28,6,1
,,,,,,2023-07-27_24h05.08.528,vbt_B2_day3,2022.2.4,Linux armv81,61.06497313,52204,,,,,,,,,,,,,,,,,,,,stallen,images/br_stallen.png,images/cb_stallen.png,,stallen,,,,,,,,,,,0.090644723,0.17335507,1,0,0,stallen,0,29,29,52,1
,,,,,,2023-07-27_24h05.08.528,vbt_B2_day3,2022.2.4,Linux armv81,61.06497313,52204,,,,,,,,,,,,,,,,,,,,verwoor,images/br_verwoor.png,images/cb_verwoor.png,,verwoor,,,,,,,,,,,0.019329938,0.275678436,1,0,0,verwoor,0,30,30,32,1
,,,,,,2023-07-27_24h05.08.528,vbt_B2_day3,2022.2.4,Linux armv81,61.06497313,52204,,,,,,,,,,,,,,,,,,,,bevret,images/br_bevret.png,images/cb_bevret.png,,bevrit,,,,,,,,,,,-0.067169449,0.320564821,1,0,0,bevrit,0,31,31,30,1
,,,,,,2023-07-27_24h05.08.528,vbt_B2_day3,2022.2.4,Linux armv81,61.06497313,52204,,,,,,,,,,,,,,,,,,,,dwang,images/br_dwang.png,images/cb_dwang.png,,dwang,,,,,,,,,,,-0.100988368,0.305762872,1,0,0,dwang,0,32,32,47,1
,,,,,,2023-07-27_24h05.08.528,vbt_B2_day3,2022.2.4,Linux armv81,61.06497313,52204,,,,,,,,,,,,,,,,,,,,oprotten,images/br_oprotten.png,images/cb_oprotten.png,,oprotten,,,,,,,,,,,-0.100988368,0.305762872,1,0,0,oprotten,0,33,33,17,1
,,,,,,2023-07-27_24h05.08.528,vbt_B2_day3,2022.2.4,Linux armv81,61.06497313,52204,,,,,,,,,,,,,,,,,,,,schatten,images/br_schatten.png,images/cb_schatten.png,,schatten,,,,,,,,,,,-0.157469472,0.301368746,1,0,0,schatten,0,34,34,18,1
,,,,,,2023-07-27_24h05.08.528,vbt_B2_day3,2022.2.4,Linux armv81,61.06497313,52204,,,,,,,,,,,,,,,,,,,,gebod,images/br_gebod.png,images/cb_gebod.png,,gebod,,,,,,,,,,,-0.217369193,0.228919238,1,0,0,gebod,0,35,35,45,1
,,,,,,2023-07-27_24h05.08.528,vbt_B2_day3,2022.2.4,Linux armv81,61.06497313,52204,,,,,,,,,,,,,,,,,,,,geluid,images/br_geluid.png,images/cb_geluid.png,,geluid,,,,,,,,,,,-0.278189398,0.152486295,1,0,0,geluid,0,36,36,10,1
,,,,,,2023-07-27_24h05.08.528,vbt_B2_day3,2022.2.4,Linux armv81,61.06497313,52204,,,,,,,,,,,,,,,,,,,,uviek,images/br_uviek.png,images/cb_uviek.png,,uviek,,,,,,,,,,,-0.31517437,0.061278066,1,0,0,uviek,0,37,37,25,1
,,,,,,2023-07-27_24h05.08.528,vbt_B2_day3,2022.2.4,Linux armv81,61.06497313,52204,,,,,,,,,,,,,,,,,,,,leugeren,images/br_leugeren.png,images/cb_leugeren.png,,leuger..,,,,,,,,,,,-0.324634819,0.17510536,1,0,0,leuger..,0,38,38,37,1
,,,,,,2023-07-27_24h05.08.528,vbt_B2_day3,2022.2.4,Linux armv81,61.06497313,52204,,,,,,,,,,,,,,,,,,,,sluier,images/br_sluier.png,images/cb_sluier.png,,sluier,,,,,,,,,,,-0.324634819,0.17510536,1,0,0,sluier,0,39,39,50,1
,,,,,,2023-07-27_24h05.08.528,vbt_B2_day3,2022.2.4,Linux armv81,61.06497313,52204,,,,,,,,,,,,,,,,,,,,leemaken,images/br_leemaken.png,images/cb_leemaken.png,,leemaken,,,,,,,,,,,-0.334204834,0.211026753,1,0,0,leemaken,0,40,40,39,1
,,,,,,2023-07-27_24h05.08.528,vbt_B2_day3,2022.2.4,Linux armv81,61.06497313,52204,,,,,,,,,,,,,,,,,,,,hint,images/br_hint.png,images/cb_hint.png,,hint,,,,,,,,,,,-0.402824548,0.308244612,1,0,0,hint,0,41,41,43,1
,,,,,,2023-07-27_24h05.08.528,vbt_B2_day3,2022.2.4,Linux armv81,61.06497313,52204,,,,,,,,,,,,,,,,,,,,makieren,images/br_makieren.png,images/cb_makieren.png,,makieren,,,,,,,,,,,-0.21829742,-0.027455777,1,0,0,makieren,0,42,42,36,1
,,,,,,2023-07-27_24h05.08.528,vbt_B2_day3,2022.2.4,Linux armv81,61.06497313,52204,,,,,,,,,,,,,,,,,,,,zone,images/br_zone.png,images/cb_zone.png,,zone,,,,,,,,,,,-0.21829742,-0.027455777,1,0,0,zone,0,43,43,41,1
,,,,,,2023-07-27_24h05.08.528,vbt_B2_day3,2022.2.4,Linux armv81,61.06497313,52204,,,,,,,,,,,,,,,,,,,,bisschop,images/br_bisschop.png,images/cb_bisschop.png,,bisschop,,,,,,,,,,,-0.329750498,-0.015521914,1,0,0,bisschop,0,44,44,16,1
,,,,,,2023-07-27_24h05.08.528,vbt_B2_day3,2022.2.4,Linux armv81,61.06497313,52204,,,,,,,,,,,,,,,,,,,,hust,images/br_hust.png,images/cb_hust.png,,hust,,,,,,,,,,,-0.367768144,-0.005652685,1,0,0,hust,0,45,45,23,1
,,,,,,2023-07-27_24h05.08.528,vbt_B2_day3,2022.2.4,Linux armv81,61.06497313,52204,,,,,,,,,,,,,,,,,,,,opzicht,images/br_opzicht.png,images/cb_opzicht.png,,opzicht,,,,,,,,,,,-0.367768144,-0.005652685,1,0,0,opzicht,0,46,46,15,1
,,,,,,2023-07-27_24h05.08.528,vbt_B2_day3,2022.2.4,Linux armv81,61.06497313,52204,,,,,,,,,,,,,,,,,,,,samen,images/br_samen.png,images/cb_samen.png,,samen,,,,,,,,,,,-0.537479911,-0.009348325,1,0,0,samen,0,47,47,7,1
,,,,,,2023-07-27_24h05.08.528,vbt_B2_day3,2022.2.4,Linux armv81,61.06497313,52204,,,,,,,,,,,,,,,,,,,,laken,images/br_laken.png,images/cb_laken.png,,laken,,,,,,,,,,,-0.562276383,0.156519637,1,0,0,laken,0,48,48,5,1
,,,,,,2023-07-27_24h05.08.528,vbt_B2_day3,2022.2.4,Linux armv81,61.06497313,52204,,,,,,,,,,,,,,,,,,,,verraden,images/br_verraden.png,images/cb_verraden.png,,verraden,,,,,,,,,,,-0.589766743,0.177129401,1,0,0,verraden,0,49,49,58,1
,,,,,,2023-07-27_24h05.08.528,vbt_B2_day3,2022.2.4,Linux armv81,61.06497313,52204,,,,,,,,,,,,,,,,,,,,mugeek,images/br_mugeek.png,images/cb_mugeek.png,,mugeek,,,,,,,,,,,-0.660304497,0.263883052,1,0,0,mugeek,0,50,50,29,1
,,,,,,2023-07-27_24h05.08.528,vbt_B2_day3,2022.2.4,Linux armv81,61.06497313,52204,,,,,,,,,,,,,,,,,,,,alsof,images/br_alsof.png,images/cb_alsof.png,,alsof,,,,,,,,,,,-0.720417995,0.302244765,1,0,0,alsof,0,51,51,44,1
,,,,,,2023-07-27_24h05.08.528,vbt_B2_day3,2022.2.4,Linux armv81,61.06497313,52204,,,,,,,,,,,,,,,,,,,,vlager,images/br_vlager.png,images/cb_vlager.png,,vlager,,,,,,,,,,,-0.720417995,0.302244765,1,0,0,vlager,0,52,52,28,1
,,,,,,2023-07-27_24h05.08.528,vbt_B2_day3,2022.2.4,Linux armv81,61.06497313,52204,,,,,,,,,,,,,,,,,,,,theeting,images/br_theeting.png,images/cb_theeting.png,,theeting,,,,,,,,,,,-0.782749753,0.344555768,1,0,0,theeting,0,53,53,38,1
,,,,,,2023-07-27_24h05.08.528,vbt_B2_day3,2022.2.4,Linux armv81,61.06497313,52204,,,,,,,,,,,,,,,,,,,,aarzelen,images/br_aarzelen.png,images/cb_aarzelen.png,,aarzelen,,,,,,,,,,,-0.799363057,0.477310573,1,0,0,aarzelen,0,54,54,19,1
,,,,,,2023-07-27_24h05.08.528,vbt_B2_day3,2022.2.4,Linux armv81,61.06497313,52204,,,,,,,,,,,,,,,,,,,,kaas,images/br_kaas.png,images/cb_kaas.png,,kaas,,,,,,,,,,,-0.79485682,0.497496535,1,0,0,kaas,0,55,55,42,1
,,,,,,2023-07-27_24h05.08.528,vbt_B2_day3,2022.2.4,Linux armv81,61.06497313,52204,,,,,,,,,,,,,,,,,,,,opzetten,images/br_opzetten.png,images/cb_opzetten.png,,opzetten,,,,,,,,,,,-0.799363057,0.465033529,1,0,0,opzetten,0,56,56,56,1
,,,,,,2023-07-27_24h05.08.528,vbt_B2_day3,2022.2.4,Linux armv81,61.06497313,52204,,,,,,,,,,,,,,,,,,,,kest,images/br_kest.png,images/cb_kest.png,,kest,,,,,,,,,,,-0.36397499,0.3452077,1,0,0,kest,0,57,57,21,1
,,,,,,2023-07-27_24h05.08.528,vbt_B2_day3,2022.2.4,Linux armv81,61.06497313,52204,,,,,,,,,,,,,,,,,,,,twaaf,images/br_twaaf.png,images/cb_twaaf.png,,twaaf,,,,,,,,,,,-0.316074153,0.302374951,1,0,0,twaaf,0,58,58,24,1
,,,,,,2023-07-27_24h05.08.528,vbt_B2_day3,2022.2.4,Linux armv81,61.06497313,52204,,,,,,,,,,,,,,,,,,,,afbopen,images/br_afbopen.png,images/cb_afbopen.png,,afbopen,,,,,,,,,,,-0.233033328,0.09647993,1,0,0,afbopen,0,59,59,34,1
,,,,,,2023-07-27_24h05.08.528,vbt_B2_day3,2022.2.4,Linux armv81,61.06497313,52204,,,,,,,,,,,,,,,,,,,,,,,,,,,,,,,,,,,,,,,,,,,,,
