welcome_mouse.x,welcome_mouse.y,welcome_mouse.leftButton,welcome_mouse.midButton,welcome_mouse.rightButton,"ID",date,expName,psychopyVersion,OS,frameRate,trainInstr_mouse.x,trainInstr_mouse.y,trainInstr_mouse.leftButton,trainInstr_mouse.midButton,trainInstr_mouse.rightButton,translation_key.keys,translation_key.corr,translation_key.rt,word_rsp.text,trWrd_mouse.x,trWrd_mouse.y,trWrd_mouse.leftButton,trWrd_mouse.midButton,trWrd_mouse.rightButton,train_loop.thisRepN,train_loop.thisTrialN,train_loop.thisN,train_loop.thisIndex,train_loop.ran,nlWrd,brWrd,cbWrd,test,testResp,mouse.x,mouse.y,mouse.leftButton,mouse.midButton,mouse.rightButton,testInstr_mouse.x,testInstr_mouse.y,testInstr_mouse.leftButton,testInstr_mouse.midButton,testInstr_mouse.rightButton,test_mouse.x,test_mouse.y,test_mouse.leftButton,test_mouse.midButton,test_mouse.rightButton,test_response.text,test_loop.thisRepN,test_loop.thisTrialN,test_loop.thisN,test_loop.thisIndex,test_loop.ran
-0.234968002,-0.237380525,1,0,0,00015,2023-08-06_10h35.32.060,vbt_B2_day3,2022.2.4,Win32,58.356676,,,,,,,,,,,,,,,,,,,,,,,,,,,,,,,,,,,,,,,,,,,,,
,,,,,00015,2023-08-06_10h35.32.060,vbt_B2_day3,2022.2.4,Win32,58.356676,-0.009863185,-0.279066623,1,0,0,,,,,,,,,,,,,,,,,,,,,,,,,,,,,,,,,,,,,,,,
,,,,,00015,2023-08-06_10h35.32.060,vbt_B2_day3,2022.2.4,Win32,58.356676,,,,,,down,0,2.7346,,-0.431355778,-0.106764137,1,0,0,0,0,0,109,1,totaal,images/br_totaal.png,images/cb_totaal.png,0,,,,,,,,,,,,,,,,,,,,,,
,,,,,00015,2023-08-06_10h35.32.060,vbt_B2_day3,2022.2.4,Win32,58.356676,,,,,,down,0,0.7174,,0.012369471,-0.015981119,1,0,0,0,1,1,50,1,stoom,images/br_stoom.png,images/cb_stoom.png,0,,,,,,,,,,,,,,,,,,,,,,
,,,,,00015,2023-08-06_10h35.32.060,vbt_B2_day3,2022.2.4,Win32,58.356676,,,,,,down,0,0.4187,,-0.29240218,-0.050256348,1,0,0,0,2,2,29,1,baas,images/br_baas.png,images/cb_baas.png,0,,,,,,,,,,,,,,,,,,,,,,
,,,,,00015,2023-08-06_10h35.32.060,vbt_B2_day3,2022.2.4,Win32,58.356676,,,,,,down,0,2.8696,,-0.250716082,-0.078973437,1,0,0,0,3,3,65,1,parel,images/br_parel.png,images/cb_parel.png,0,,,,,,,,,,,,,,,,,,,,,,
,,,,,00015,2023-08-06_10h35.32.060,vbt_B2_day3,2022.2.4,Win32,58.356676,,,,,,down,0,1.7179,,-0.00337856,-0.042845478,1,0,0,0,4,4,64,1,wegen,images/br_wegen.png,images/cb_wegen.png,0,,,,,,,,,,,,,,,,,,,,,,
,,,,,00015,2023-08-06_10h35.32.060,vbt_B2_day3,2022.2.4,Win32,58.356676,,,,,,down,0,5.6191,,-0.279433171,-0.105837796,1,0,0,0,5,5,99,1,koffie,images/br_koffie.png,images/cb_koffie.png,0,,,,,,,,,,,,,,,,,,,,,,
,,,,,00015,2023-08-06_10h35.32.060,vbt_B2_day3,2022.2.4,Win32,58.356676,,,,,,down,0,6.551,,-0.094161675,-0.067857109,1,0,0,0,6,6,198,1,bedoelen,images/br_bedoelen.png,images/cb_bedoelen.png,0,,,,,,,,,,,,,,,,,,,,,,
,,,,,00015,2023-08-06_10h35.32.060,vbt_B2_day3,2022.2.4,Win32,58.356676,,,,,,down,0,2.8281,,-0.151595853,-0.042845478,1,0,0,0,7,7,4,1,moes,images/br_moes.png,images/cb_moes.png,0,,,,,,,,,,,,,,,,,,,,,,
,,,,,00015,2023-08-06_10h35.32.060,vbt_B2_day3,2022.2.4,Win32,58.356676,,,,,,down,0,0.7172,,-0.156227556,-0.071562567,1,0,0,0,8,8,156,1,rechten,images/br_rechten.png,images/cb_rechten.png,0,,,,,,,,,,,,,,,,,,,,,,
,,,,,00015,2023-08-06_10h35.32.060,vbt_B2_day3,2022.2.4,Win32,58.356676,,,,,,down,0,1.4847,,0.110563311,-0.108616866,1,0,0,0,9,9,12,1,kust,images/br_kust.png,images/cb_kust.png,0,,,,,,,,,,,,,,,,,,,,,,
,,,,,00015,2023-08-06_10h35.32.060,vbt_B2_day3,2022.2.4,Win32,58.356676,,,,,,down,0,9.2966,,-0.27572776,-0.093795128,1,0,0,0,10,10,23,1,zout,images/br_zout.png,images/cb_zout.png,1,zout,,,,,,,,,,,,,,,,,,,,,
,,,,,00015,2023-08-06_10h35.32.060,vbt_B2_day3,2022.2.4,Win32,58.356676,,,,,,down,0,6.4509,,-0.27850683,-0.064151698,1,0,0,0,11,11,173,1,apparaat,images/br_apparaat.png,images/cb_apparaat.png,0,,,,,,,,,,,,,,,,,,,,,,
,,,,,00015,2023-08-06_10h35.32.060,vbt_B2_day3,2022.2.4,Win32,58.356676,,,,,,down,0,0.1347,,-0.267390502,-0.155861105,1,0,0,0,12,12,110,1,zuster,images/br_zuster.png,images/cb_zuster.png,0,,,,,,,,,,,,,,,,,,,,,,
,,,,,00015,2023-08-06_10h35.32.060,vbt_B2_day3,2022.2.4,Win32,58.356676,,,,,,down,0,0.4842,,-0.2812859,-0.171609137,1,0,0,0,13,13,195,1,middelen,images/br_middelen.png,images/cb_middelen.png,0,,,,,,,,,,,,,,,,,,,,,,
,,,,,00015,2023-08-06_10h35.32.060,vbt_B2_day3,2022.2.4,Win32,58.356676,,,,,,down,0,1.8018,,-0.290549451,-0.177167325,1,0,0,0,14,14,147,1,komisch,images/br_komisch.png,images/cb_komisch.png,0,,,,,,,,,,,,,,,,,,,,,,
,,,,,00015,2023-08-06_10h35.32.060,vbt_B2_day3,2022.2.4,Win32,58.356676,,,,,,down,0,7.3315,,-0.186797423,-0.142892096,1,0,0,0,15,15,172,1,weigeren,images/br_weigeren.png,images/cb_weigeren.png,0,,,,,,,,,,,,,,,,,,,,,,
,,,,,00015,2023-08-06_10h35.32.060,vbt_B2_day3,2022.2.4,Win32,58.356676,,,,,,down,0,1.1347,,0.396807813,-0.387450403,1,0,0,0,16,16,114,1,vullen,images/br_vullen.png,images/cb_vullen.png,0,,,,,,,,,,,,,,,,,,,,,,
,,,,,00015,2023-08-06_10h35.32.060,vbt_B2_day3,2022.2.4,Win32,58.356676,,,,,,down,0,1.0681,,0.602459092,-0.455074569,1,0,0,0,17,17,160,1,daarheen,images/br_daarheen.png,images/cb_daarheen.png,0,,,,,,,,,,,,,,,,,,,,,,
,,,,,00015,2023-08-06_10h35.32.060,vbt_B2_day3,2022.2.4,Win32,58.356676,,,,,,down,0,1.3508,,-0.199766432,-0.128996697,1,0,0,0,18,18,34,1,vorm,images/br_vorm.png,images/cb_vorm.png,0,,,,,,,,,,,,,,,,,,,,,,
,,,,,00015,2023-08-06_10h35.32.060,vbt_B2_day3,2022.2.4,Win32,58.356676,,,,,,down,0,0.1542,,-0.204398232,-0.120659487,1,0,0,0,19,19,191,1,opheffen,images/br_opheffen.png,images/cb_opheffen.png,0,,,,,,,,,,,,,,,,,,,,,,
,,,,,00015,2023-08-06_10h35.32.060,vbt_B2_day3,2022.2.4,Win32,58.356676,,,,,,down,0,0.3832,,-0.150669416,-0.171609137,1,0,0,0,20,20,98,1,kreeft,images/br_kreeft.png,images/cb_kreeft.png,0,,,,,,,,,,,,,,,,,,,,,,
,,,,,00015,2023-08-06_10h35.32.060,vbt_B2_day3,2022.2.4,Win32,58.356676,,,,,,down,0,0.2027,,-0.208103643,-0.227190682,1,0,0,0,21,21,37,1,mijn,images/br_mijn.png,images/cb_mijn.png,0,,,,,,,,,,,,,,,,,,,,,,
,,,,,00015,2023-08-06_10h35.32.060,vbt_B2_day3,2022.2.4,Win32,58.356676,,,,,,down,0,2.7523,,-0.170122955,-0.074341637,1,0,0,0,22,22,18,1,blik,images/br_blik.png,images/cb_blik.png,0,,,,,,,,,,,,,,,,,,,,,,
,,,,,00015,2023-08-06_10h35.32.060,vbt_B2_day3,2022.2.4,Win32,58.356676,,,,,,down,0,1.0179,,-0.134921385,-0.110469548,1,0,0,0,23,23,41,1,maken,images/br_maken.png,images/cb_maken.png,0,,,,,,,,,,,,,,,,,,,,,,
,,,,,00015,2023-08-06_10h35.32.060,vbt_B2_day3,2022.2.4,Win32,58.356676,,,,,,down,0,3.174,,-0.139553136,-0.038213679,1,0,0,0,24,24,11,1,mode,images/br_mode.png,images/cb_mode.png,0,,,,,,,,,,,,,,,,,,,,,,
,,,,,00015,2023-08-06_10h35.32.060,vbt_B2_day3,2022.2.4,Win32,58.356676,,,,,,down,0,3.1375,,-0.334088279,-0.082678847,1,0,0,0,25,25,22,1,stof,images/br_stof.png,images/cb_stof.png,1,stof,,,,,,,,,,,,,,,,,,,,,
,,,,,00015,2023-08-06_10h35.32.060,vbt_B2_day3,2022.2.4,Win32,58.356676,,,,,,down,0,2.0864,,-0.104351614,-0.217000694,1,0,0,0,26,26,197,1,spanning,images/br_spanning.png,images/cb_spanning.png,0,,,,,,,,,,,,,,,,,,,,,,
,,,,,00015,2023-08-06_10h35.32.060,vbt_B2_day3,2022.2.4,Win32,58.356676,,,,,,down,0,3.9443,,-0.35446811,-0.154934716,1,0,0,0,27,27,63,1,flirt,images/br_flirt.png,images/cb_flirt.png,1,flirt,,,,,,,,,,,,,,,,,,,,,
,,,,,00015,2023-08-06_10h35.32.060,vbt_B2_day3,2022.2.4,Win32,58.356676,,,,,,down,0,1.1018,,-0.072855407,-0.216074353,1,0,0,0,28,28,159,1,sufferd,images/br_sufferd.png,images/cb_sufferd.png,0,,,,,,,,,,,,,,,,,,,,,,
,,,,,00015,2023-08-06_10h35.32.060,vbt_B2_day3,2022.2.4,Win32,58.356676,,,,,,down,0,1.2946,,-0.110836095,-0.113248618,1,0,0,0,29,29,128,1,prikken,images/br_prikken.png,images/cb_prikken.png,0,,,,,,,,,,,,,,,,,,,,,,
,,,,,00015,2023-08-06_10h35.32.060,vbt_B2_day3,2022.2.4,Win32,58.356676,,,,,,down,0,0.2012,,0.042012853,-0.060446287,1,0,0,0,30,30,164,1,anarchie,images/br_anarchie.png,images/cb_anarchie.png,0,,,,,,,,,,,,,,,,,,,,,,
,,,,,00015,2023-08-06_10h35.32.060,vbt_B2_day3,2022.2.4,Win32,58.356676,,,,,,down,0,1.3241,,-0.200692773,-0.018760189,1,0,0,0,31,31,33,1,vlek,images/br_vlek.png,images/cb_vlek.png,0,,,,,,,,,,,,,,,,,,,,,,
,,,,,00015,2023-08-06_10h35.32.060,vbt_B2_day3,2022.2.4,Win32,58.356676,,,,,,down,0,0.5184,,-0.227557133,-0.0178338,1,0,0,0,32,32,92,1,geheim,images/br_geheim.png,images/cb_geheim.png,0,,,,,,,,,,,,,,,,,,,,,,
,,,,,00015,2023-08-06_10h35.32.060,vbt_B2_day3,2022.2.4,Win32,58.356676,,,,,,down,0,1.302,,-0.157153993,-0.145671166,1,0,0,0,33,33,175,1,heengaan,images/br_heengaan.png,images/cb_heengaan.png,0,,,,,,,,,,,,,,,,,,,,,,
,,,,,00015,2023-08-06_10h35.32.060,vbt_B2_day3,2022.2.4,Win32,58.356676,,,,,,down,0,0.0736,,-0.396154208,-0.040066408,1,0,0,0,34,34,190,1,goedkoop,images/br_goedkoop.png,images/cb_goedkoop.png,0,,,,,,,,,,,,,,,,,,,,,,
,,,,,00015,2023-08-06_10h35.32.060,vbt_B2_day3,2022.2.4,Win32,58.356676,,,,,,down,0,0.6377,,-0.345204559,-0.110469548,1,0,0,0,35,35,108,1,excuus,images/br_excuus.png,images/cb_excuus.png,0,,,,,,,,,,,,,,,,,,,,,,
,,,,,00015,2023-08-06_10h35.32.060,vbt_B2_day3,2022.2.4,Win32,58.356676,,,,,,down,0,1.774,,-0.432282119,-0.028023739,1,0,0,0,36,36,85,1,heilig,images/br_heilig.png,images/cb_heilig.png,0,,,,,,,,,,,,,,,,,,,,,,
,,,,,00015,2023-08-06_10h35.32.060,vbt_B2_day3,2022.2.4,Win32,58.356676,,,,,,down,0,2.0703,,-0.439692988,-0.030802809,1,0,0,0,37,37,133,1,seizoen,images/br_seizoen.png,images/cb_seizoen.png,0,,,,,,,,,,,,,,,,,,,,,,
,,,,,00015,2023-08-06_10h35.32.060,vbt_B2_day3,2022.2.4,Win32,58.356676,,,,,,down,0,1.5517,,-0.434134848,-0.117880417,1,0,0,0,38,38,179,1,woestijn,images/br_woestijn.png,images/cb_woestijn.png,0,,,,,,,,,,,,,,,,,,,,,,
,,,,,00015,2023-08-06_10h35.32.060,vbt_B2_day3,2022.2.4,Win32,58.356676,,,,,,down,0,1.4345,,-0.433208508,-0.116954077,1,0,0,0,39,39,95,1,vreten,images/br_vreten.png,images/cb_vreten.png,0,,,,,,,,,,,,,,,,,,,,,,
,,,,,00015,2023-08-06_10h35.32.060,vbt_B2_day3,2022.2.4,Win32,58.356676,,,,,,down,0,0.5501,,-0.402638689,-0.150302917,1,0,0,0,40,40,77,1,woede,images/br_woede.png,images/cb_woede.png,0,,,,,,,,,,,,,,,,,,,,,,
,,,,,00015,2023-08-06_10h35.32.060,vbt_B2_day3,2022.2.4,Win32,58.356676,,,,,,down,0,0.4006,,-0.284991311,-0.132702156,1,0,0,0,41,41,70,1,ijdel,images/br_ijdel.png,images/cb_ijdel.png,0,,,,,,,,,,,,,,,,,,,,,,
,,,,,00015,2023-08-06_10h35.32.060,vbt_B2_day3,2022.2.4,Win32,58.356676,,,,,,down,0,0.3394,,-0.226630792,-0.227190682,1,0,0,0,42,42,93,1,waarop,images/br_waarop.png,images/cb_waarop.png,0,,,,,,,,,,,,,,,,,,,,,,
,,,,,00015,2023-08-06_10h35.32.060,vbt_B2_day3,2022.2.4,Win32,58.356676,,,,,,down,0,1.5836,,-0.33223555,-0.253128604,1,0,0,0,43,43,44,1,flits,images/br_flits.png,images/cb_flits.png,0,,,,,,,,,,,,,,,,,,,,,,
,,,,,00015,2023-08-06_10h35.32.060,vbt_B2_day3,2022.2.4,Win32,58.356676,,,,,,down,0,7.24,,-0.449882928,-0.127144016,1,0,0,0,44,44,83,1,mening,images/br_mening.png,images/cb_mening.png,0,,,,,,,,,,,,,,,,,,,,,,
,,,,,00015,2023-08-06_10h35.32.060,vbt_B2_day3,2022.2.4,Win32,58.356676,,,,,,down,0,0.218,,-0.254421541,-0.217000694,1,0,0,0,45,45,24,1,jurk,images/br_jurk.png,images/cb_jurk.png,0,,,,,,,,,,,,,,,,,,,,,,
,,,,,00015,2023-08-06_10h35.32.060,vbt_B2_day3,2022.2.4,Win32,58.356676,,,,,,down,0,5.9021,,-0.387816998,-0.100279656,1,0,0,0,46,46,61,1,groen,images/br_groen.png,images/cb_groen.png,1,groen,,,,,,,,,,,,,,,,,,,,,
,,,,,00015,2023-08-06_10h35.32.060,vbt_B2_day3,2022.2.4,Win32,58.356676,,,,,,down,0,0.5355,,-0.32945648,-0.161419245,1,0,0,0,47,47,144,1,eetlust,images/br_eetlust.png,images/cb_eetlust.png,0,,,,,,,,,,,,,,,,,,,,,,
,,,,,00015,2023-08-06_10h35.32.060,vbt_B2_day3,2022.2.4,Win32,58.356676,,,,,,down,0,0.6016,,-0.5703094,-0.157713786,1,0,0,0,48,48,96,1,slagen,images/br_slagen.png,images/cb_slagen.png,0,,,,,,,,,,,,,,,,,,,,,,
,,,,,00015,2023-08-06_10h35.32.060,vbt_B2_day3,2022.2.4,Win32,58.356676,,,,,,down,0,3.9167,,-0.339646419,-0.126217627,1,0,0,0,49,49,8,1,knie,images/br_knie.png,images/cb_knie.png,0,,,,,,,,,,,,,,,,,,,,,,
,,,,,00015,2023-08-06_10h35.32.060,vbt_B2_day3,2022.2.4,Win32,58.356676,,,,,,down,0,1.2184,,-0.3137084,-0.135481226,1,0,0,0,50,50,2,1,jaar,images/br_jaar.png,images/cb_jaar.png,0,,,,,,,,,,,,,,,,,,,,,,
,,,,,00015,2023-08-06_10h35.32.060,vbt_B2_day3,2022.2.4,Win32,58.356676,,,,,,down,0,0.5548,,-0.30815026,-0.110469548,1,0,0,0,51,51,127,1,doodmoe,images/br_doodmoe.png,images/cb_doodmoe.png,0,,,,,,,,,,,,,,,,,,,,,,
,,,,,00015,2023-08-06_10h35.32.060,vbt_B2_day3,2022.2.4,Win32,58.356676,,,,,,down,0,0.3512,,-0.124731493,-0.135481226,1,0,0,0,52,52,152,1,afnemen,images/br_afnemen.png,images/cb_afnemen.png,0,,,,,,,,,,,,,,,,,,,,,,
,,,,,00015,2023-08-06_10h35.32.060,vbt_B2_day3,2022.2.4,Win32,58.356676,,,,,,down,0,1.2094,,-0.215514512,-0.107690478,1,0,0,0,53,53,150,1,gegeven,images/br_gegeven.png,images/cb_gegeven.png,0,,,,,,,,,,,,,,,,,,,,,,
,,,,,00015,2023-08-06_10h35.32.060,vbt_B2_day3,2022.2.4,Win32,58.356676,,,,,,down,0,0.6009,,-0.339646419,0.00069335,1,0,0,0,54,54,105,1,wijlen,images/br_wijlen.png,images/cb_wijlen.png,0,,,,,,,,,,,,,,,,,,,,,,
,,,,,00015,2023-08-06_10h35.32.060,vbt_B2_day3,2022.2.4,Win32,58.356676,,,,,,down,0,0.7883,,-0.326677409,-0.066004427,1,0,0,0,55,55,126,1,kasteel,images/br_kasteel.png,images/cb_kasteel.png,0,,,,,,,,,,,,,,,,,,,,,,
,,,,,00015,2023-08-06_10h35.32.060,vbt_B2_day3,2022.2.4,Win32,58.356676,,,,,,down,0,1.2676,,-0.463778326,-0.074341637,1,0,0,0,56,56,169,1,oprotten,images/br_oprotten.png,images/cb_oprotten.png,0,,,,,,,,,,,,,,,,,,,,,,
,,,,,00015,2023-08-06_10h35.32.060,vbt_B2_day3,2022.2.4,Win32,58.356676,,,,,,down,0,0.5519,,-0.234041662,-0.132702156,1,0,0,0,57,57,146,1,opkomen,images/br_opkomen.png,images/cb_opkomen.png,0,,,,,,,,,,,,,,,,,,,,,,
,,,,,00015,2023-08-06_10h35.32.060,vbt_B2_day3,2022.2.4,Win32,58.356676,,,,,,down,0,2.0549,,-0.29425491,-0.039140019,1,0,0,0,58,58,1,1,zaal,images/br_zaal.png,images/cb_zaal.png,0,,,,,,,,,,,,,,,,,,,,,,
,,,,,00015,2023-08-06_10h35.32.060,vbt_B2_day3,2022.2.4,Win32,58.356676,,,,,,down,0,0.7046,,-0.29425491,-0.112322277,1,0,0,0,59,59,193,1,weeshuis,images/br_weeshuis.png,images/cb_weeshuis.png,0,,,,,,,,,,,,,,,,,,,,,,
,,,,,00015,2023-08-06_10h35.32.060,vbt_B2_day3,2022.2.4,Win32,58.356676,,,,,,down,0,12.6883,,-0.437840259,-0.141965707,1,0,0,0,60,60,180,1,openbaar,images/br_openbaar.png,images/cb_openbaar.png,1,openbaar,,,,,,,,,,,,,,,,,,,,,
,,,,,00015,2023-08-06_10h35.32.060,vbt_B2_day3,2022.2.4,Win32,58.356676,,,,,,down,0,0.2008,,-0.33779369,-0.116027688,1,0,0,0,61,61,111,1,ticket,images/br_ticket.png,images/cb_ticket.png,0,,,,,,,,,,,,,,,,,,,,,,
,,,,,00015,2023-08-06_10h35.32.060,vbt_B2_day3,2022.2.4,Win32,58.356676,,,,,,down,0,5.6339,,-0.562898555,-0.064151698,1,0,0,0,62,62,103,1,joggen,images/br_joggen.png,images/cb_joggen.png,1,joggen,,,,,,,,,,,,,,,,,,,,,
,,,,,00015,2023-08-06_10h35.32.060,vbt_B2_day3,2022.2.4,Win32,58.356676,,,,,,down,0,0.0013,,-0.449882928,-0.092868787,1,0,0,0,63,63,119,1,liefje,images/br_liefje.png,images/cb_liefje.png,0,,,,,,,,,,,,,,,,,,,,,,
,,,,,00015,2023-08-06_10h35.32.060,vbt_B2_day3,2022.2.4,Win32,58.356676,,,,,,down,0,13.2676,,-0.356320839,-0.179020006,1,0,0,0,64,64,182,1,bijkomen,images/br_bijkomen.png,images/cb_bijkomen.png,1,bijkomen,,,,,,,,,,,,,,,,,,,,,
,,,,,00015,2023-08-06_10h35.32.060,vbt_B2_day3,2022.2.4,Win32,58.356676,,,,,,down,0,1.9031,,-0.422092227,-0.067857109,1,0,0,0,65,65,115,1,kleren,images/br_kleren.png,images/cb_kleren.png,0,,,,,,,,,,,,,,,,,,,,,,
,,,,,00015,2023-08-06_10h35.32.060,vbt_B2_day3,2022.2.4,Win32,58.356676,,,,,,down,0,0.2746,,-0.301665731,-0.087310647,1,0,0,0,66,66,57,1,steek,images/br_steek.png,images/cb_steek.png,0,,,,,,,,,,,,,,,,,,,,,,
,,,,,00015,2023-08-06_10h35.32.060,vbt_B2_day3,2022.2.4,Win32,58.356676,,,,,,down,0,3.8005,,-0.32482468,-0.156787446,1,0,0,0,67,67,101,1,staren,images/br_staren.png,images/cb_staren.png,1,staren,,,,,,,,,,,,,,,,,,,,,
,,,,,00015,2023-08-06_10h35.32.060,vbt_B2_day3,2022.2.4,Win32,58.356676,,,,,,down,0,0.0953,,-0.494348096,-0.125291287,1,0,0,0,68,68,189,1,aanraden,images/br_aanraden.png,images/cb_aanraden.png,0,,,,,,,,,,,,,,,,,,,,,,
,,,,,00015,2023-08-06_10h35.32.060,vbt_B2_day3,2022.2.4,Win32,58.356676,,,,,,down,0,0.2174,,-0.29147584,-0.163271927,1,0,0,0,69,69,118,1,vinger,images/br_vinger.png,images/cb_vinger.png,0,,,,,,,,,,,,,,,,,,,,,,
,,,,,00015,2023-08-06_10h35.32.060,vbt_B2_day3,2022.2.4,Win32,58.356676,,,,,,down,0,0.8678,,-0.314634741,-0.250349534,1,0,0,0,70,70,151,1,aanzoek,images/br_aanzoek.png,images/cb_aanzoek.png,0,,,,,,,,,,,,,,,,,,,,,,
,,,,,00015,2023-08-06_10h35.32.060,vbt_B2_day3,2022.2.4,Win32,58.356676,,,,,,down,0,3.0172,,-0.425797638,-0.134554837,1,0,0,0,71,71,21,1,mist,images/br_mist.png,images/cb_mist.png,1,mist,,,,,,,,,,,,,,,,,,,,,
,,,,,00015,2023-08-06_10h35.32.060,vbt_B2_day3,2022.2.4,Win32,58.356676,,,,,,down,0,1.2514,,-0.356320839,-0.135481226,1,0,0,0,72,72,38,1,baai,images/br_baai.png,images/cb_baai.png,0,,,,,,,,,,,,,,,,,,,,,,
,,,,,00015,2023-08-06_10h35.32.060,vbt_B2_day3,2022.2.4,Win32,58.356676,,,,,,down,0,0.2375,,-0.33038282,-0.183651805,1,0,0,0,73,73,26,1,leuk,images/br_leuk.png,images/cb_leuk.png,0,,,,,,,,,,,,,,,,,,,,,,
,,,,,00015,2023-08-06_10h35.32.060,vbt_B2_day3,2022.2.4,Win32,58.356676,,,,,,down,0,0.3679,,-0.449882928,-0.144744777,1,0,0,0,74,74,74,1,graaf,images/br_graaf.png,images/cb_graaf.png,0,,,,,,,,,,,,,,,,,,,,,,
,,,,,00015,2023-08-06_10h35.32.060,vbt_B2_day3,2022.2.4,Win32,58.356676,,,,,,down,0,7.4836,,-0.425797638,-0.168830067,1,0,0,0,75,75,140,1,blijven,images/br_blijven.png,images/cb_blijven.png,1,blijven,,,,,,,,,,,,,,,,,,,,,
,,,,,00015,2023-08-06_10h35.32.060,vbt_B2_day3,2022.2.4,Win32,58.356676,,,,,,down,0,0.4087,,-0.32760375,-0.137333956,1,0,0,0,76,76,137,1,trekker,images/br_trekker.png,images/cb_trekker.png,0,,,,,,,,,,,,,,,,,,,,,,
,,,,,00015,2023-08-06_10h35.32.060,vbt_B2_day3,2022.2.4,Win32,58.356676,,,,,,down,0,0.39,,-0.370216189,-0.074341637,1,0,0,0,77,77,46,1,jagen,images/br_jagen.png,images/cb_jagen.png,0,,,,,,,,,,,,,,,,,,,,,,
,,,,,00015,2023-08-06_10h35.32.060,vbt_B2_day3,2022.2.4,Win32,58.356676,,,,,,down,0,0.868,,-0.251642422,-0.127144016,1,0,0,0,78,78,75,1,snoep,images/br_snoep.png,images/cb_snoep.png,0,,,,,,,,,,,,,,,,,,,,,,
,,,,,00015,2023-08-06_10h35.32.060,vbt_B2_day3,2022.2.4,Win32,58.356676,,,,,,down,0,2.592,,-0.301665731,-0.103985067,1,0,0,0,79,79,30,1,uien,images/br_uien.png,images/cb_uien.png,0,,,,,,,,,,,,,,,,,,,,,,
,,,,,00015,2023-08-06_10h35.32.060,vbt_B2_day3,2022.2.4,Win32,58.356676,,,,,,down,0,2.158,,-0.405417807,-0.138260296,1,0,0,0,80,80,192,1,schaamte,images/br_schaamte.png,images/cb_schaamte.png,0,,,,,,,,,,,,,,,,,,,,,,
,,,,,00015,2023-08-06_10h35.32.060,vbt_B2_day3,2022.2.4,Win32,58.356676,,,,,,down,0,1.6891,,-0.325751021,-0.066930768,1,0,0,0,81,81,0,1,slak,images/br_slak.png,images/cb_slak.png,0,,,,,,,,,,,,,,,,,,,,,,
,,,,,00015,2023-08-06_10h35.32.060,vbt_B2_day3,2022.2.4,Win32,58.356676,,,,,,down,0,0.4008,,-0.342425489,-0.146597506,1,0,0,0,82,82,45,1,piste,images/br_piste.png,images/cb_piste.png,0,,,,,,,,,,,,,,,,,,,,,,
,,,,,00015,2023-08-06_10h35.32.060,vbt_B2_day3,2022.2.4,Win32,58.356676,,,,,,down,0,3.028,,-0.395227868,-0.093795128,1,0,0,0,83,83,48,1,steel,images/br_steel.png,images/cb_steel.png,0,,,,,,,,,,,,,,,,,,,,,,
,,,,,00015,2023-08-06_10h35.32.060,vbt_B2_day3,2022.2.4,Win32,58.356676,,,,,,down,0,3.138,,-0.235894391,-0.114175007,1,0,0,0,84,84,10,1,leek,images/br_leek.png,images/cb_leek.png,0,,,,,,,,,,,,,,,,,,,,,,
,,,,,00015,2023-08-06_10h35.32.060,vbt_B2_day3,2022.2.4,Win32,58.356676,,,,,,down,0,18.35,,-0.460072867,0.02570498,1,0,0,0,85,85,80,1,kanjer,images/br_kanjer.png,images/cb_kanjer.png,0,,,,,,,,,,,,,,,,,,,,,,
,,,,,00015,2023-08-06_10h35.32.060,vbt_B2_day3,2022.2.4,Win32,58.356676,,,,,,down,0,12.9668,,-0.280359511,-0.069709838,1,0,0,0,86,86,125,1,aanzien,images/br_aanzien.png,images/cb_aanzien.png,0,,,,,,,,,,,,,,,,,,,,,,
,,,,,00015,2023-08-06_10h35.32.060,vbt_B2_day3,2022.2.4,Win32,58.356676,,,,,,down,0,0.001,,-0.355394499,-0.114175007,1,0,0,0,87,87,138,1,akkoord,images/br_akkoord.png,images/cb_akkoord.png,0,,,,,,,,,,,,,,,,,,,,,,
,,,,,00015,2023-08-06_10h35.32.060,vbt_B2_day3,2022.2.4,Win32,58.356676,,,,,,down,0,1.1349,,-0.379479788,-0.172535525,1,0,0,0,88,88,168,1,bisschop,images/br_bisschop.png,images/cb_bisschop.png,0,,,,,,,,,,,,,,,,,,,,,,
,,,,,00015,2023-08-06_10h35.32.060,vbt_B2_day3,2022.2.4,Win32,58.356676,,,,,,down,0,0.3339,,-0.353541769,-0.036360949,1,0,0,0,89,89,3,1,mand,images/br_mand.png,images/cb_mand.png,0,,,,,,,,,,,,,,,,,,,,,,
,,,,,00015,2023-08-06_10h35.32.060,vbt_B2_day3,2022.2.4,Win32,58.356676,,,,,,down,0,6.4771,,-0.206250913,-0.043771819,1,0,0,0,90,90,86,1,woning,images/br_woning.png,images/cb_woning.png,0,,,,,,,,,,,,,,,,,,,,,,
,,,,,00015,2023-08-06_10h35.32.060,vbt_B2_day3,2022.2.4,Win32,58.356676,,,,,,down,0,0.218,,-0.33872003,-0.133628497,1,0,0,0,91,91,170,1,schatten,images/br_schatten.png,images/cb_schatten.png,0,,,,,,,,,,,,,,,,,,,,,,
,,,,,00015,2023-08-06_10h35.32.060,vbt_B2_day3,2022.2.4,Win32,58.356676,,,,,,down,0,1.2549,,-0.390596068,-0.080826118,1,0,0,0,92,92,32,1,palm,images/br_palm.png,images/cb_palm.png,0,,,,,,,,,,,,,,,,,,,,,,
,,,,,00015,2023-08-06_10h35.32.060,vbt_B2_day3,2022.2.4,Win32,58.356676,,,,,,down,0,4.4673,,-0.073781796,-0.145671166,1,0,0,0,93,93,121,1,twijfel,images/br_twijfel.png,images/cb_twijfel.png,0,,,,,,,,,,,,,,,,,,,,,,
,,,,,00015,2023-08-06_10h35.32.060,vbt_B2_day3,2022.2.4,Win32,58.356676,,,,,,down,0,2.4081,,-0.325751021,-0.053961758,1,0,0,0,94,94,35,1,lust,images/br_lust.png,images/cb_lust.png,0,,,,,,,,,,,,,,,,,,,,,,
,,,,,00015,2023-08-06_10h35.32.060,vbt_B2_day3,2022.2.4,Win32,58.356676,,,,,,down,0,0.3511,,-0.318340199,-0.093795128,1,0,0,0,95,95,31,1,poes,images/br_poes.png,images/cb_poes.png,0,,,,,,,,,,,,,,,,,,,,,,
,,,,,00015,2023-08-06_10h35.32.060,vbt_B2_day3,2022.2.4,Win32,58.356676,,,,,,down,0,0.2345,,-0.390596068,-0.016907459,1,0,0,0,96,96,136,1,waarbij,images/br_waarbij.png,images/cb_waarbij.png,0,,,,,,,,,,,,,,,,,,,,,,
,,,,,00015,2023-08-06_10h35.32.060,vbt_B2_day3,2022.2.4,Win32,58.356676,,,,,,down,0,0.3017,,-0.311855671,-0.013202048,1,0,0,0,97,97,82,1,muziek,images/br_muziek.png,images/cb_muziek.png,0,,,,,,,,,,,,,,,,,,,,,,
,,,,,00015,2023-08-06_10h35.32.060,vbt_B2_day3,2022.2.4,Win32,58.356676,,,,,,down,0,0.5506,,-0.27294869,-0.113248618,1,0,0,0,98,98,112,1,lukken,images/br_lukken.png,images/cb_lukken.png,0,,,,,,,,,,,,,,,,,,,,,,
,,,,,00015,2023-08-06_10h35.32.060,vbt_B2_day3,2022.2.4,Win32,58.356676,,,,,,down,0,4.8176,,-0.387816998,0.015515041,1,0,0,0,99,99,43,1,klauw,images/br_klauw.png,images/cb_klauw.png,0,,,,,,,,,,,,,,,,,,,,,,
,,,,,00015,2023-08-06_10h35.32.060,vbt_B2_day3,2022.2.4,Win32,58.356676,,,,,,down,0,0.4678,,-0.38411154,-0.066004427,1,0,0,0,100,100,194,1,driemaal,images/br_driemaal.png,images/cb_driemaal.png,0,,,,,,,,,,,,,,,,,,,,,,
,,,,,00015,2023-08-06_10h35.32.060,vbt_B2_day3,2022.2.4,Win32,58.356676,,,,,,down,0,1.0184,,-0.442472058,-0.107690478,1,0,0,0,101,101,68,1,schat,images/br_schat.png,images/cb_schat.png,0,,,,,,,,,,,,,,,,,,,,,,
,,,,,00015,2023-08-06_10h35.32.060,vbt_B2_day3,2022.2.4,Win32,58.356676,,,,,,down,0,9.6184,,-0.306297531,-0.144744777,1,0,0,0,102,102,142,1,snuiven,images/br_snuiven.png,images/cb_snuiven.png,1,snuiven,,,,,,,,,,,,,,,,,,,,,
,,,,,00015,2023-08-06_10h35.32.060,vbt_B2_day3,2022.2.4,Win32,58.356676,,,,,,down,0,3.7528,,-0.320192881,-0.149376576,1,0,0,0,103,103,36,1,vuur,images/br_vuur.png,images/cb_vuur.png,0,,,,,,,,,,,,,,,,,,,,,,
,,,,,00015,2023-08-06_10h35.32.060,vbt_B2_day3,2022.2.4,Win32,58.356676,,,,,,down,0,0.1511,,-0.349836358,-0.141039366,1,0,0,0,104,104,106,1,zingen,images/br_zingen.png,images/cb_zingen.png,0,,,,,,,,,,,,,,,,,,,,,,
,,,,,00015,2023-08-06_10h35.32.060,vbt_B2_day3,2022.2.4,Win32,58.356676,,,,,,down,0,0.7517,,-0.33501462,-0.078047048,1,0,0,0,105,105,27,1,dans,images/br_dans.png,images/cb_dans.png,0,,,,,,,,,,,,,,,,,,,,,,
,,,,,00015,2023-08-06_10h35.32.060,vbt_B2_day3,2022.2.4,Win32,58.356676,,,,,,down,0,0.6382,,-0.184944693,-0.176240936,1,0,0,0,106,106,88,1,boeien,images/br_boeien.png,images/cb_boeien.png,0,,,,,,,,,,,,,,,,,,,,,,
,,,,,00015,2023-08-06_10h35.32.060,vbt_B2_day3,2022.2.4,Win32,58.356676,,,,,,down,0,1.3184,,-0.373921648,-0.120659487,1,0,0,0,107,107,122,1,waarvan,images/br_waarvan.png,images/cb_waarvan.png,0,,,,,,,,,,,,,,,,,,,,,,
,,,,,00015,2023-08-06_10h35.32.060,vbt_B2_day3,2022.2.4,Win32,58.356676,,,,,,down,0,1.1445,,-0.392448798,-0.083605188,1,0,0,0,108,108,72,1,strak,images/br_strak.png,images/cb_strak.png,0,,,,,,,,,,,,,,,,,,,,,,
,,,,,00015,2023-08-06_10h35.32.060,vbt_B2_day3,2022.2.4,Win32,58.356676,,,,,,down,0,1.6026,,-0.370216189,-0.085457917,1,0,0,0,109,109,166,1,strikken,images/br_strikken.png,images/cb_strikken.png,0,,,,,,,,,,,,,,,,,,,,,,
,,,,,00015,2023-08-06_10h35.32.060,vbt_B2_day3,2022.2.4,Win32,58.356676,,,,,,down,0,1.0176,,-0.29703398,-0.071562567,1,0,0,0,110,110,134,1,geliefd,images/br_geliefd.png,images/cb_geliefd.png,0,,,,,,,,,,,,,,,,,,,,,,
,,,,,00015,2023-08-06_10h35.32.060,vbt_B2_day3,2022.2.4,Win32,58.356676,,,,,,down,0,0.5182,,-0.282212241,-0.139186637,1,0,0,0,111,111,90,1,geluid,images/br_geluid.png,images/cb_geluid.png,0,,,,,,,,,,,,,,,,,,,,,,
,,,,,00015,2023-08-06_10h35.32.060,vbt_B2_day3,2022.2.4,Win32,58.356676,,,,,,down,0,9.2833,,-0.369289849,-0.098426927,1,0,0,0,112,112,143,1,hechten,images/br_hechten.png,images/cb_hechten.png,1,hechten,,,,,,,,,,,,,,,,,,,,,
,,,,,00015,2023-08-06_10h35.32.060,vbt_B2_day3,2022.2.4,Win32,58.356676,,,,,,down,0,0.7154,,-0.282212241,-0.158640175,1,0,0,0,113,113,6,1,diep,images/br_diep.png,images/cb_diep.png,0,,,,,,,,,,,,,,,,,,,,,,
,,,,,00015,2023-08-06_10h35.32.060,vbt_B2_day3,2022.2.4,Win32,58.356676,,,,,,down,0,3.2011,,-0.391522409,-0.108616866,1,0,0,0,114,114,157,1,uitlaat,images/br_uitlaat.png,images/cb_uitlaat.png,0,,,,,,,,,,,,,,,,,,,,,,
,,,,,00015,2023-08-06_10h35.32.060,vbt_B2_day3,2022.2.4,Win32,58.356676,,,,,,down,0,1.2527,,-0.584204774,-0.048403618,1,0,0,0,115,115,176,1,techniek,images/br_techniek.png,images/cb_techniek.png,0,,,,,,,,,,,,,,,,,,,,,,
,,,,,00015,2023-08-06_10h35.32.060,vbt_B2_day3,2022.2.4,Win32,58.356676,,,,,,down,0,3.4219,,-0.234041662,-0.235527892,1,0,0,0,116,116,53,1,baron,images/br_baron.png,images/cb_baron.png,0,,,,,,,,,,,,,,,,,,,,,,
,,,,,00015,2023-08-06_10h35.32.060,vbt_B2_day3,2022.2.4,Win32,58.356676,,,,,,down,0,3.252,,-0.383185199,0.027557709,1,0,0,0,117,117,187,1,opkijken,images/br_opkijken.png,images/cb_opkijken.png,0,,,,,,,,,,,,,,,,,,,,,,
,,,,,00015,2023-08-06_10h35.32.060,vbt_B2_day3,2022.2.4,Win32,58.356676,,,,,,down,0,2.1022,,-0.209956372,-0.128996697,1,0,0,0,118,118,139,1,stiekem,images/br_stiekem.png,images/cb_stiekem.png,0,,,,,,,,,,,,,,,,,,,,,,
,,,,,00015,2023-08-06_10h35.32.060,vbt_B2_day3,2022.2.4,Win32,58.356676,,,,,,down,0,0.6504,,-0.273875031,-0.185504535,1,0,0,0,119,119,17,1,taal,images/br_taal.png,images/cb_taal.png,0,,,,,,,,,,,,,,,,,,,,,,
,,,,,00015,2023-08-06_10h35.32.060,vbt_B2_day3,2022.2.4,Win32,58.356676,,,,,,down,0,1.393,,-0.363731709,-0.179020006,1,0,0,0,120,120,87,1,toeval,images/br_toeval.png,images/cb_toeval.png,0,,,,,,,,,,,,,,,,,,,,,,
,,,,,00015,2023-08-06_10h35.32.060,vbt_B2_day3,2022.2.4,Win32,58.356676,,,,,,down,0,0.3181,,-0.484158157,-0.091942398,1,0,0,0,121,121,5,1,blad,images/br_blad.png,images/cb_blad.png,0,,,,,,,,,,,,,,,,,,,,,,
,,,,,00015,2023-08-06_10h35.32.060,vbt_B2_day3,2022.2.4,Win32,58.356676,,,,,,down,0,0.8341,,-0.485084498,-0.141039366,1,0,0,0,122,122,188,1,strekken,images/br_strekken.png,images/cb_strekken.png,0,,,,,,,,,,,,,,,,,,,,,,
,,,,,00015,2023-08-06_10h35.32.060,vbt_B2_day3,2022.2.4,Win32,58.356676,,,,,,down,0,0.2564,,-0.429503049,-0.187357216,1,0,0,0,123,123,161,1,attentie,images/br_attentie.png,images/cb_attentie.png,0,,,,,,,,,,,,,,,,,,,,,,
,,,,,00015,2023-08-06_10h35.32.060,vbt_B2_day3,2022.2.4,Win32,58.356676,,,,,,down,0,0.0854,,-0.3785534,-0.248496805,1,0,0,0,124,124,16,1,ziek,images/br_ziek.png,images/cb_ziek.png,0,,,,,,,,,,,,,,,,,,,,,,
,,,,,00015,2023-08-06_10h35.32.060,vbt_B2_day3,2022.2.4,Win32,58.356676,,,,,,down,0,0.5842,,-0.463778326,-0.199399885,1,0,0,0,125,125,107,1,maling,images/br_maling.png,images/cb_maling.png,0,,,,,,,,,,,,,,,,,,,,,,
,,,,,00015,2023-08-06_10h35.32.060,vbt_B2_day3,2022.2.4,Win32,58.356676,,,,,,down,0,0.3851,,-0.511948881,-0.104911408,1,0,0,0,126,126,39,1,laag,images/br_laag.png,images/cb_laag.png,0,,,,,,,,,,,,,,,,,,,,,,
,,,,,00015,2023-08-06_10h35.32.060,vbt_B2_day3,2022.2.4,Win32,58.356676,,,,,,down,0,1.3848,,-0.398006938,-0.088236987,1,0,0,0,127,127,174,1,stemming,images/br_stemming.png,images/cb_stemming.png,0,,,,,,,,,,,,,,,,,,,,,,
,,,,,00015,2023-08-06_10h35.32.060,vbt_B2_day3,2022.2.4,Win32,58.356676,,,,,,down,0,0.4843,,-0.410975947,-0.220706105,1,0,0,0,128,128,73,1,volop,images/br_volop.png,images/cb_volop.png,0,,,,,,,,,,,,,,,,,,,,,,
,,,,,00015,2023-08-06_10h35.32.060,vbt_B2_day3,2022.2.4,Win32,58.356676,,,,,,down,0,1.1904,,-0.306297531,-0.078973437,1,0,0,0,129,129,9,1,hier,images/br_hier.png,images/cb_hier.png,0,,,,,,,,,,,,,,,,,,,,,,
,,,,,00015,2023-08-06_10h35.32.060,vbt_B2_day3,2022.2.4,Win32,58.356676,,,,,,down,0,1.1183,,-0.33316189,-0.122512217,1,0,0,0,130,130,155,1,gerucht,images/br_gerucht.png,images/cb_gerucht.png,0,,,,,,,,,,,,,,,,,,,,,,
,,,,,00015,2023-08-06_10h35.32.060,vbt_B2_day3,2022.2.4,Win32,58.356676,,,,,,down,0,4.0999,,-0.328530091,-0.259613133,1,0,0,0,131,131,113,1,koppen,images/br_koppen.png,images/cb_koppen.png,0,,,,,,,,,,,,,,,,,,,,,,
,,,,,00015,2023-08-06_10h35.32.060,vbt_B2_day3,2022.2.4,Win32,58.356676,,,,,,down,0,0.2676,,-0.382258858,-0.149376576,1,0,0,0,132,132,56,1,traag,images/br_traag.png,images/cb_traag.png,0,,,,,,,,,,,,,,,,,,,,,,
,,,,,00015,2023-08-06_10h35.32.060,vbt_B2_day3,2022.2.4,Win32,58.356676,,,,,,down,0,0.1677,,-0.247937012,-0.205884366,1,0,0,0,133,133,7,1,geld,images/br_geld.png,images/cb_geld.png,0,,,,,,,,,,,,,,,,,,,,,,
,,,,,00015,2023-08-06_10h35.32.060,vbt_B2_day3,2022.2.4,Win32,58.356676,,,,,,down,0,5.3173,,-0.345204559,-0.110469548,1,0,0,0,134,134,97,1,loyaal,images/br_loyaal.png,images/cb_loyaal.png,0,,,,,,,,,,,,,,,,,,,,,,
,,,,,00015,2023-08-06_10h35.32.060,vbt_B2_day3,2022.2.4,Win32,58.356676,,,,,,down,0,1.601,,-0.483231816,-0.186430876,1,0,0,0,135,135,58,1,tekst,images/br_tekst.png,images/cb_tekst.png,0,,,,,,,,,,,,,,,,,,,,,,
,,,,,00015,2023-08-06_10h35.32.060,vbt_B2_day3,2022.2.4,Win32,58.356676,,,,,,down,0,5.3836,,-0.38133247,-0.151229306,1,0,0,0,136,136,141,1,knielen,images/br_knielen.png,images/cb_knielen.png,1,knielen,,,,,,,,,,,,,,,,,,,,,
,,,,,00015,2023-08-06_10h35.32.060,vbt_B2_day3,2022.2.4,Win32,58.356676,,,,,,down,0,2.5679,,-0.462851937,-0.203105296,1,0,0,0,137,137,91,1,gezond,images/br_gezond.png,images/cb_gezond.png,0,,,,,,,,,,,,,,,,,,,,,,
,,,,,00015,2023-08-06_10h35.32.060,vbt_B2_day3,2022.2.4,Win32,58.356676,,,,,,down,0,0.4514,,-0.342425489,-0.170682796,1,0,0,0,138,138,19,1,geit,images/br_geit.png,images/cb_geit.png,0,,,,,,,,,,,,,,,,,,,,,,
,,,,,00015,2023-08-06_10h35.32.060,vbt_B2_day3,2022.2.4,Win32,58.356676,,,,,,down,0,1.3023,,-0.373921648,-0.109543207,1,0,0,0,139,139,42,1,bleek,images/br_bleek.png,images/cb_bleek.png,0,,,,,,,,,,,,,,,,,,,,,,
,,,,,00015,2023-08-06_10h35.32.060,vbt_B2_day3,2022.2.4,Win32,58.356676,,,,,,down,0,0.2854,,-0.448030247,-0.046550889,1,0,0,0,140,140,131,1,opzicht,images/br_opzicht.png,images/cb_opzicht.png,0,,,,,,,,,,,,,,,,,,,,,,
,,,,,00015,2023-08-06_10h35.32.060,vbt_B2_day3,2022.2.4,Win32,58.356676,,,,,,down,0,0.5843,,-0.304444801,-0.172535525,1,0,0,0,141,141,81,1,dubbel,images/br_dubbel.png,images/cb_dubbel.png,0,,,,,,,,,,,,,,,,,,,,,,
,,,,,00015,2023-08-06_10h35.32.060,vbt_B2_day3,2022.2.4,Win32,58.356676,,,,,,down,0,4.119,,-0.339646419,-0.134554837,1,0,0,0,142,142,117,1,kennis,images/br_kennis.png,images/cb_kennis.png,0,,,,,,,,,,,,,,,,,,,,,,
,,,,,00015,2023-08-06_10h35.32.060,vbt_B2_day3,2022.2.4,Win32,58.356676,,,,,,down,0,0.6017,,-0.322971951,-0.070636179,1,0,0,0,143,143,66,1,lever,images/br_lever.png,images/cb_lever.png,0,,,,,,,,,,,,,,,,,,,,,,
,,,,,00015,2023-08-06_10h35.32.060,vbt_B2_day3,2022.2.4,Win32,58.356676,,,,,,down,0,2.2267,,-0.240526142,-0.107690478,1,0,0,0,144,144,15,1,soda,images/br_soda.png,images/cb_soda.png,0,,,,,,,,,,,,,,,,,,,,,,
,,,,,00015,2023-08-06_10h35.32.060,vbt_B2_day3,2022.2.4,Win32,58.356676,,,,,,down,0,0.3516,,-0.347983629,-0.167903726,1,0,0,0,145,145,79,1,nodig,images/br_nodig.png,images/cb_nodig.png,0,,,,,,,,,,,,,,,,,,,,,,
,,,,,00015,2023-08-06_10h35.32.060,vbt_B2_day3,2022.2.4,Win32,58.356676,,,,,,down,0,1.5079,,-0.413755017,-0.105837796,1,0,0,0,146,146,162,1,uitdelen,images/br_uitdelen.png,images/cb_uitdelen.png,0,,,,,,,,,,,,,,,,,,,,,,
,,,,,00015,2023-08-06_10h35.32.060,vbt_B2_day3,2022.2.4,Win32,58.356676,,,,,,down,0,1.4604,,-0.405417807,-0.166050997,1,0,0,0,147,147,69,1,waken,images/br_waken.png,images/cb_waken.png,0,,,,,,,,,,,,,,,,,,,,,,
,,,,,00015,2023-08-06_10h35.32.060,vbt_B2_day3,2022.2.4,Win32,58.356676,,,,,,down,0,3.5049,,-0.448030247,-0.127144016,1,0,0,0,148,148,102,1,legaal,images/br_legaal.png,images/cb_legaal.png,1,legaal,,,,,,,,,,,,,,,,,,,,,
,,,,,00015,2023-08-06_10h35.32.060,vbt_B2_day3,2022.2.4,Win32,58.356676,,,,,,down,0,2.1345,,-0.33038282,-0.165124656,1,0,0,0,149,149,51,1,samen,images/br_samen.png,images/cb_samen.png,0,,,,,,,,,,,,,,,,,,,,,,
,,,,,00015,2023-08-06_10h35.32.060,vbt_B2_day3,2022.2.4,Win32,58.356676,,,,,,down,0,4.9175,,-0.405417807,-0.182725465,1,0,0,0,150,150,181,1,toegeven,images/br_toegeven.png,images/cb_toegeven.png,1,toegeven,,,,,,,,,,,,,,,,,,,,,
,,,,,00015,2023-08-06_10h35.32.060,vbt_B2_day3,2022.2.4,Win32,58.356676,,,,,,down,0,1.8843,,-0.34705724,-0.091016058,1,0,0,0,151,151,163,1,schuilen,images/br_schuilen.png,images/cb_schuilen.png,0,,,,,,,,,,,,,,,,,,,,,,
,,,,,00015,2023-08-06_10h35.32.060,vbt_B2_day3,2022.2.4,Win32,58.356676,,,,,,down,0,0.3844,,-0.29518125,-0.070636179,1,0,0,0,152,152,49,1,laken,images/br_laken.png,images/cb_laken.png,0,,,,,,,,,,,,,,,,,,,,,,
,,,,,00015,2023-08-06_10h35.32.060,vbt_B2_day3,2022.2.4,Win32,58.356676,,,,,,down,0,0.2525,,-0.395227868,-0.089163328,1,0,0,0,153,153,171,1,aarzelen,images/br_aarzelen.png,images/cb_aarzelen.png,0,,,,,,,,,,,,,,,,,,,,,,
,,,,,00015,2023-08-06_10h35.32.060,vbt_B2_day3,2022.2.4,Win32,58.356676,,,,,,down,0,0.3016,,-0.487863568,-0.233675114,1,0,0,0,154,154,178,1,huisdier,images/br_huisdier.png,images/cb_huisdier.png,0,,,,,,,,,,,,,,,,,,,,,,
,,,,,00015,2023-08-06_10h35.32.060,vbt_B2_day3,2022.2.4,Win32,58.356676,,,,,,down,0,0.9008,,-0.386890658,-0.135481226,1,0,0,0,155,155,129,1,verhaal,images/br_verhaal.png,images/cb_verhaal.png,0,,,,,,,,,,,,,,,,,,,,,,
,,,,,00015,2023-08-06_10h35.32.060,vbt_B2_day3,2022.2.4,Win32,58.356676,,,,,,down,0,0.1852,,-0.342425489,-0.124364946,1,0,0,0,156,156,184,1,aandelen,images/br_aandelen.png,images/cb_aandelen.png,0,,,,,,,,,,,,,,,,,,,,,,
,,,,,00015,2023-08-06_10h35.32.060,vbt_B2_day3,2022.2.4,Win32,58.356676,,,,,,down,0,1.002,,-0.422092227,-0.075267978,1,0,0,0,157,157,14,1,rijp,images/br_rijp.png,images/cb_rijp.png,0,,,,,,,,,,,,,,,,,,,,,,
,,,,,00015,2023-08-06_10h35.32.060,vbt_B2_day3,2022.2.4,Win32,58.356676,,,,,,down,0,1.4675,,-0.431355778,-0.151229306,1,0,0,0,158,158,20,1,site,images/br_site.png,images/cb_site.png,1,site,,,,,,,,,,,,,,,,,,,,,
,,,,,00015,2023-08-06_10h35.32.060,vbt_B2_day3,2022.2.4,Win32,58.356676,,,,,,down,0,0.1337,,-0.320192881,-0.128996697,1,0,0,0,159,159,130,1,keihard,images/br_keihard.png,images/cb_keihard.png,0,,,,,,,,,,,,,,,,,,,,,,
,,,,,00015,2023-08-06_10h35.32.060,vbt_B2_day3,2022.2.4,Win32,58.356676,,,,,,down,0,0.188,,-0.34705724,-0.163271927,1,0,0,0,160,160,67,1,zwart,images/br_zwart.png,images/cb_zwart.png,0,,,,,,,,,,,,,,,,,,,,,,
,,,,,00015,2023-08-06_10h35.32.060,vbt_B2_day3,2022.2.4,Win32,58.356676,,,,,,down,0,0.6018,,-0.382258858,-0.156787446,1,0,0,0,161,161,153,1,vervoer,images/br_vervoer.png,images/cb_vervoer.png,0,,,,,,,,,,,,,,,,,,,,,,
,,,,,00015,2023-08-06_10h35.32.060,vbt_B2_day3,2022.2.4,Win32,58.356676,,,,,,down,0,1.2181,,-0.320192881,-0.208663436,1,0,0,0,162,162,116,1,besmet,images/br_besmet.png,images/cb_besmet.png,0,,,,,,,,,,,,,,,,,,,,,,
,,,,,00015,2023-08-06_10h35.32.060,vbt_B2_day3,2022.2.4,Win32,58.356676,,,,,,down,0,0.185,,-0.284991311,-0.258686745,1,0,0,0,163,163,55,1,praat,images/br_praat.png,images/cb_praat.png,0,,,,,,,,,,,,,,,,,,,,,,
,,,,,00015,2023-08-06_10h35.32.060,vbt_B2_day3,2022.2.4,Win32,58.356676,,,,,,down,0,0.2178,,-0.456367457,-0.135481226,1,0,0,0,164,164,177,1,maaltijd,images/br_maaltijd.png,images/cb_maaltijd.png,0,,,,,,,,,,,,,,,,,,,,,,
,,,,,00015,2023-08-06_10h35.32.060,vbt_B2_day3,2022.2.4,Win32,58.356676,,,,,,down,0,5.8007,,-0.508243471,-0.179946395,1,0,0,0,165,165,183,1,getuigen,images/br_getuigen.png,images/cb_getuigen.png,1,getuigen,,,,,,,,,,,,,,,,,,,,,
,,,,,00015,2023-08-06_10h35.32.060,vbt_B2_day3,2022.2.4,Win32,58.356676,,,,,,down,0,1.1342,,-0.492495391,-0.112322277,1,0,0,0,166,166,47,1,kabel,images/br_kabel.png,images/cb_kabel.png,0,,,,,,,,,,,,,,,,,,,,,,
,,,,,00015,2023-08-06_10h35.32.060,vbt_B2_day3,2022.2.4,Win32,58.356676,,,,,,down,0,9.8016,,-0.473968218,-0.150302917,1,0,0,0,167,167,100,1,geduld,images/br_geduld.png,images/cb_geduld.png,1,geduld,,,,,,,,,,,,,,,,,,,,,
,,,,,00015,2023-08-06_10h35.32.060,vbt_B2_day3,2022.2.4,Win32,58.356676,,,,,,down,0,0.0839,,-0.516580681,-0.141965707,1,0,0,0,168,168,25,1,plek,images/br_plek.png,images/cb_plek.png,0,,,,,,,,,,,,,,,,,,,,,,
,,,,,00015,2023-08-06_10h35.32.060,vbt_B2_day3,2022.2.4,Win32,58.356676,,,,,,down,0,0.335,,-0.493421708,-0.155861105,1,0,0,0,169,169,59,1,kring,images/br_kring.png,images/cb_kring.png,0,,,,,,,,,,,,,,,,,,,,,,
,,,,,00015,2023-08-06_10h35.32.060,vbt_B2_day3,2022.2.4,Win32,58.356676,,,,,,down,0,0.386,,-0.415607699,-0.209589825,1,0,0,0,170,170,185,1,mijnheer,images/br_mijnheer.png,images/cb_mijnheer.png,0,,,,,,,,,,,,,,,,,,,,,,
,,,,,00015,2023-08-06_10h35.32.060,vbt_B2_day3,2022.2.4,Win32,58.356676,,,,,,down,0,0.5072,,-0.515654292,-0.073415249,1,0,0,0,171,171,89,1,slapen,images/br_slapen.png,images/cb_slapen.png,0,,,,,,,,,,,,,,,,,,,,,,
,,,,,00015,2023-08-06_10h35.32.060,vbt_B2_day3,2022.2.4,Win32,58.356676,,,,,,down,0,0.0009,,-0.517507045,-0.089163328,1,0,0,0,172,172,135,1,gedicht,images/br_gedicht.png,images/cb_gedicht.png,0,,,,,,,,,,,,,,,,,,,,,,
,,,,,00015,2023-08-06_10h35.32.060,vbt_B2_day3,2022.2.4,Win32,58.356676,,,,,,down,0,0.375,,-0.443398399,-0.204031684,1,0,0,0,173,173,62,1,knaap,images/br_knaap.png,images/cb_knaap.png,1,knaap,,,,,,,,,,,,,,,,,,,,,
,,,,,00015,2023-08-06_10h35.32.060,vbt_B2_day3,2022.2.4,Win32,58.356676,,,,,,down,0,0.1352,,-0.423944909,-0.126217627,1,0,0,0,174,174,78,1,leren,images/br_leren.png,images/cb_leren.png,0,,,,,,,,,,,,,,,,,,,,,,
,,,,,00015,2023-08-06_10h35.32.060,vbt_B2_day3,2022.2.4,Win32,58.356676,,,,,,down,0,0.751,,-0.355394499,-0.142892096,1,0,0,0,175,175,123,1,hiervan,images/br_hiervan.png,images/cb_hiervan.png,0,,,,,,,,,,,,,,,,,,,,,,
,,,,,00015,2023-08-06_10h35.32.060,vbt_B2_day3,2022.2.4,Win32,58.356676,,,,,,down,0,0.2668,,-0.372995259,-0.131775767,1,0,0,0,176,176,120,1,klimmen,images/br_klimmen.png,images/cb_klimmen.png,0,,,,,,,,,,,,,,,,,,,,,,
,,,,,00015,2023-08-06_10h35.32.060,vbt_B2_day3,2022.2.4,Win32,58.356676,,,,,,down,0,0.0183,,-0.376700718,-0.126217627,1,0,0,0,177,177,186,1,voorraad,images/br_voorraad.png,images/cb_voorraad.png,0,,,,,,,,,,,,,,,,,,,,,,
,,,,,00015,2023-08-06_10h35.32.060,vbt_B2_day3,2022.2.4,Win32,58.356676,,,,,,down,0,0.6849,,-0.407270489,-0.081752507,1,0,0,0,178,178,76,1,afval,images/br_afval.png,images/cb_afval.png,0,,,,,,,,,,,,,,,,,,,,,,
,,,,,00015,2023-08-06_10h35.32.060,vbt_B2_day3,2022.2.4,Win32,58.356676,,,,,,down,0,3.0517,,-0.460999208,-0.148450236,1,0,0,0,179,179,196,1,nakijken,images/br_nakijken.png,images/cb_nakijken.png,0,,,,,,,,,,,,,,,,,,,,,,
,,,,,00015,2023-08-06_10h35.32.060,vbt_B2_day3,2022.2.4,Win32,58.356676,,,,,,down,0,0.2203,,-0.442472058,-0.113248618,1,0,0,0,180,180,52,1,wagon,images/br_wagon.png,images/cb_wagon.png,0,,,,,,,,,,,,,,,,,,,,,,
,,,,,00015,2023-08-06_10h35.32.060,vbt_B2_day3,2022.2.4,Win32,58.356676,,,,,,down,0,5.5498,,-0.445251176,-0.179020006,1,0,0,0,181,181,60,1,jasje,images/br_jasje.png,images/cb_jasje.png,1,jasje,,,,,,,,,,,,,,,,,,,,,
,,,,,00015,2023-08-06_10h35.32.060,vbt_B2_day3,2022.2.4,Win32,58.356676,,,,,,down,0,0.9999,,-0.334088279,-0.201252614,1,0,0,0,182,182,94,1,oceaan,images/br_oceaan.png,images/cb_oceaan.png,0,,,,,,,,,,,,,,,,,,,,,,
,,,,,00015,2023-08-06_10h35.32.060,vbt_B2_day3,2022.2.4,Win32,58.356676,,,,,,down,0,0.1445,,-0.547150475,-0.124364946,1,0,0,0,183,183,165,1,feestdag,images/br_feestdag.png,images/cb_feestdag.png,0,,,,,,,,,,,,,,,,,,,,,,
,,,,,00015,2023-08-06_10h35.32.060,vbt_B2_day3,2022.2.4,Win32,58.356676,,,,,,down,0,0.8185,,-0.32204561,-0.135481226,1,0,0,0,184,184,54,1,gebit,images/br_gebit.png,images/cb_gebit.png,0,,,,,,,,,,,,,,,,,,,,,,
,,,,,00015,2023-08-06_10h35.32.060,vbt_B2_day3,2022.2.4,Win32,58.356676,,,,,,down,0,0.0846,,-0.408196877,-0.221632541,1,0,0,0,185,185,199,1,beseffen,images/br_beseffen.png,images/cb_beseffen.png,0,,,,,,,,,,,,,,,,,,,,,,
,,,,,00015,2023-08-06_10h35.32.060,vbt_B2_day3,2022.2.4,Win32,58.356676,,,,,,down,0,0.5992,,-0.30073939,-0.174388255,1,0,0,0,186,186,154,1,aflopen,images/br_aflopen.png,images/cb_aflopen.png,0,,,,,,,,,,,,,,,,,,,,,,
,,,,,00015,2023-08-06_10h35.32.060,vbt_B2_day3,2022.2.4,Win32,58.356676,,,,,,down,0,0.4178,,-0.32482468,-0.160492856,1,0,0,0,187,187,167,1,eenhoorn,images/br_eenhoorn.png,images/cb_eenhoorn.png,0,,,,,,,,,,,,,,,,,,,,,,
,,,,,00015,2023-08-06_10h35.32.060,vbt_B2_day3,2022.2.4,Win32,58.356676,,,,,,down,0,2.1018,,-0.323898339,-0.150302917,1,0,0,0,188,188,13,1,kaal,images/br_kaal.png,images/cb_kaal.png,0,,,,,,,,,,,,,,,,,,,,,,
,,,,,00015,2023-08-06_10h35.32.060,vbt_B2_day3,2022.2.4,Win32,58.356676,,,,,,down,0,0.3363,,-0.334088279,-0.139186637,1,0,0,0,189,189,145,1,invloed,images/br_invloed.png,images/cb_invloed.png,0,,,,,,,,,,,,,,,,,,,,,,
,,,,,00015,2023-08-06_10h35.32.060,vbt_B2_day3,2022.2.4,Win32,58.356676,,,,,,down,0,0.1011,,-0.325751021,-0.119733147,1,0,0,0,190,190,132,1,grappen,images/br_grappen.png,images/cb_grappen.png,0,,,,,,,,,,,,,,,,,,,,,,
,,,,,00015,2023-08-06_10h35.32.060,vbt_B2_day3,2022.2.4,Win32,58.356676,,,,,,down,0,0.5344,,-0.307223871,-0.108616866,1,0,0,0,191,191,104,1,zweven,images/br_zweven.png,images/cb_zweven.png,0,,,,,,,,,,,,,,,,,,,,,,
,,,,,00015,2023-08-06_10h35.32.060,vbt_B2_day3,2022.2.4,Win32,58.356676,,,,,,down,0,0.2403,,-0.448030247,-0.039140019,1,0,0,0,192,192,149,1,redding,images/br_redding.png,images/cb_redding.png,0,,,,,,,,,,,,,,,,,,,,,,
,,,,,00015,2023-08-06_10h35.32.060,vbt_B2_day3,2022.2.4,Win32,58.356676,,,,,,down,0,0.6669,,-0.33038282,-0.124364946,1,0,0,0,193,193,28,1,stal,images/br_stal.png,images/cb_stal.png,0,,,,,,,,,,,,,,,,,,,,,,
,,,,,00015,2023-08-06_10h35.32.060,vbt_B2_day3,2022.2.4,Win32,58.356676,,,,,,down,0,0.4841,,-0.293328521,-0.165124656,1,0,0,0,194,194,71,1,bever,images/br_bever.png,images/cb_bever.png,0,,,,,,,,,,,,,,,,,,,,,,
,,,,,00015,2023-08-06_10h35.32.060,vbt_B2_day3,2022.2.4,Win32,58.356676,,,,,,down,0,0.0008,,-0.326677409,-0.202178955,1,0,0,0,195,195,158,1,innemen,images/br_innemen.png,images/cb_innemen.png,0,,,,,,,,,,,,,,,,,,,,,,
,,,,,00015,2023-08-06_10h35.32.060,vbt_B2_day3,2022.2.4,Win32,58.356676,,,,,,down,0,1.2076,,-0.33501462,-0.217000694,1,0,0,0,196,196,124,1,bloeien,images/br_bloeien.png,images/cb_bloeien.png,0,,,,,,,,,,,,,,,,,,,,,,
,,,,,00015,2023-08-06_10h35.32.060,vbt_B2_day3,2022.2.4,Win32,58.356676,,,,,,down,0,0.721,,-0.396154208,-0.087310647,1,0,0,0,197,197,148,1,smullen,images/br_smullen.png,images/cb_smullen.png,0,,,,,,,,,,,,,,,,,,,,,,
,,,,,00015,2023-08-06_10h35.32.060,vbt_B2_day3,2022.2.4,Win32,58.356676,,,,,,down,0,0.6845,,-0.33501462,-0.091016058,1,0,0,0,198,198,84,1,lokken,images/br_lokken.png,images/cb_lokken.png,0,,,,,,,,,,,,,,,,,,,,,,
,,,,,00015,2023-08-06_10h35.32.060,vbt_B2_day3,2022.2.4,Win32,58.356676,,,,,,down,0,0.7342,,-0.33038282,-0.141039366,1,0,0,0,199,199,40,1,schep,images/br_schep.png,images/cb_schep.png,0,,,,,,,,,,,,,,,,,,,,,,
,,,,,00015,2023-08-06_10h35.32.060,vbt_B2_day3,2022.2.4,Win32,58.356676,,,,,,,,,,,,,,,,,,,,,,,,,-0.27294869,-0.088236987,1,0,0,,,,,,,,,,,,,,,,
,,,,,00015,2023-08-06_10h35.32.060,vbt_B2_day3,2022.2.4,Win32,58.356676,,,,,,,,,,,,,,,,,,,,,,,,,,,,,,-0.36280532,-0.082678847,1,0,0,,,,,,,,,,,
,,,,,00015,2023-08-06_10h35.32.060,vbt_B2_day3,2022.2.4,Win32,58.356676,,,,,,,,,,,,,,,,,,,,alsof,images/br_alsof.png,images/cb_alsof.png,,alsof,,,,,,,,,,,-0.498053531,-0.133628497,1,0,0,alsof,0,0,0,44,1
,,,,,00015,2023-08-06_10h35.32.060,vbt_B2_day3,2022.2.4,Win32,58.356676,,,,,,,,,,,,,,,,,,,,leugeren,images/br_leugeren.png,images/cb_leugeren.png,,leuger...,,,,,,,,,,,-0.387816998,-0.196620815,1,0,0,leuger...,0,1,1,37,1
,,,,,00015,2023-08-06_10h35.32.060,vbt_B2_day3,2022.2.4,Win32,58.356676,,,,,,,,,,,,,,,,,,,,schodel,images/br_schodel.png,images/cb_schodel.png,,schodel,,,,,,,,,,,-0.439692988,-0.328163543,1,0,0,schodel,0,2,2,33,1
,,,,,00015,2023-08-06_10h35.32.060,vbt_B2_day3,2022.2.4,Win32,58.356676,,,,,,,,,,,,,,,,,,,,mugeek,images/br_mugeek.png,images/cb_mugeek.png,,mugeek,,,,,,,,,,,-0.383185199,-0.246644172,1,0,0,mugeek,0,3,3,29,1
,,,,,00015,2023-08-06_10h35.32.060,vbt_B2_day3,2022.2.4,Win32,58.356676,,,,,,,,,,,,,,,,,,,,invallen,images/br_invallen.png,images/cb_invallen.png,,invallen,,,,,,,,,,,-0.35168904,-0.242938665,1,0,0,invallen,0,4,4,57,1
,,,,,00015,2023-08-06_10h35.32.060,vbt_B2_day3,2022.2.4,Win32,58.356676,,,,,,,,,,,,,,,,,,,,kwaas,images/br_kwaas.png,images/cb_kwaas.png,,kwaas,,,,,,,,,,,-0.350762699,-0.259613133,1,0,0,kwaas,0,5,5,26,1
,,,,,00015,2023-08-06_10h35.32.060,vbt_B2_day3,2022.2.4,Win32,58.356676,,,,,,,,,,,,,,,,,,,,mode,images/br_mode.png,images/cb_mode.png,,mode,,,,,,,,,,,-0.427650368,-0.225337904,1,0,0,mode,0,6,6,3,1
,,,,,00015,2023-08-06_10h35.32.060,vbt_B2_day3,2022.2.4,Win32,58.356676,,,,,,,,,,,,,,,,,,,,uniek,images/br_uniek.png,images/cb_uniek.png,,uniek,,,,,,,,,,,-0.426723979,-0.242012324,1,0,0,uniek,0,7,7,46,1
,,,,,00015,2023-08-06_10h35.32.060,vbt_B2_day3,2022.2.4,Win32,58.356676,,,,,,,,,,,,,,,,,,,,slapen,images/br_slapen.png,images/cb_slapen.png,,slapen,,,,,,,,,,,-0.413755017,-0.261465815,1,0,0,slapen,0,8,8,9,1
,,,,,00015,2023-08-06_10h35.32.060,vbt_B2_day3,2022.2.4,Win32,58.356676,,,,,,,,,,,,,,,,,,,,onrecht,images/br_onrecht.png,images/cb_onrecht.png,,onrecht,,,,,,,,,,,-0.440619329,-0.243865102,1,0,0,onrecht,0,9,9,55,1
,,,,,00015,2023-08-06_10h35.32.060,vbt_B2_day3,2022.2.4,Win32,58.356676,,,,,,,,,,,,,,,,,,,,gebod,images/br_gebod.png,images/cb_gebod.png,,gebod,,,,,,,,,,,-0.433208508,-0.230896044,1,0,0,gebod,0,10,10,45,1
,,,,,00015,2023-08-06_10h35.32.060,vbt_B2_day3,2022.2.4,Win32,58.356676,,,,,,,,,,,,,,,,,,,,theeting,images/br_theeting.png,images/cb_theeting.png,,theet.....,,,,,,,,,,,-0.382258858,-0.267023955,1,0,0,theet.....,0,11,11,38,1
,,,,,00015,2023-08-06_10h35.32.060,vbt_B2_day3,2022.2.4,Win32,58.356676,,,,,,,,,,,,,,,,,,,,kest,images/br_kest.png,images/cb_kest.png,,kest,,,,,,,,,,,-0.33779369,-0.223485175,1,0,0,kest,0,12,12,21,1
,,,,,00015,2023-08-06_10h35.32.060,vbt_B2_day3,2022.2.4,Win32,58.356676,,,,,,,,,,,,,,,,,,,,gezond,images/br_gezond.png,images/cb_gezond.png,,gezond,,,,,,,,,,,-0.389669728,-0.214221624,1,0,0,gezond,0,13,13,11,1
,,,,,00015,2023-08-06_10h35.32.060,vbt_B2_day3,2022.2.4,Win32,58.356676,,,,,,,,,,,,,,,,,,,,verraden,images/br_verraden.png,images/cb_verraden.png,,verra...,,,,,,,,,,,-0.370216189,-0.244791394,1,0,0,verra...,0,14,14,58,1
,,,,,00015,2023-08-06_10h35.32.060,vbt_B2_day3,2022.2.4,Win32,58.356676,,,,,,,,,,,,,,,,,,,,croo,images/br_croo.png,images/cb_croo.png,,croo,,,,,,,,,,,-0.38133247,-0.182725465,1,0,0,croo,0,15,15,22,1
,,,,,00015,2023-08-06_10h35.32.060,vbt_B2_day3,2022.2.4,Win32,58.356676,,,,,,,,,,,,,,,,,,,,vlager,images/br_vlager.png,images/cb_vlager.png,,vlager,,,,,,,,,,,-0.419313157,-0.194768086,1,0,0,vlager,0,16,16,28,1
,,,,,00015,2023-08-06_10h35.32.060,vbt_B2_day3,2022.2.4,Win32,58.356676,,,,,,,,,,,,,,,,,,,,bisschop,images/br_bisschop.png,images/cb_bisschop.png,,bisschop,,,,,,,,,,,-0.447103858,-0.185504535,1,0,0,bisschop,0,17,17,16,1
,,,,,00015,2023-08-06_10h35.32.060,vbt_B2_day3,2022.2.4,Win32,58.356676,,,,,,,,,,,,,,,,,,,,twaaf,images/br_twaaf.png,images/cb_twaaf.png,,twaaf,,,,,,,,,,,-0.466557396,-0.262392203,1,0,0,twaaf,0,18,18,24,1
,,,,,00015,2023-08-06_10h35.32.060,vbt_B2_day3,2022.2.4,Win32,58.356676,,,,,,,,,,,,,,,,,,,,leemaken,images/br_leemaken.png,images/cb_leemaken.png,,leemaken,,,,,,,,,,,-0.314634741,-0.254981382,1,0,0,leemaken,0,19,19,39,1
,,,,,00015,2023-08-06_10h35.32.060,vbt_B2_day3,2022.2.4,Win32,58.356676,,,,,,,,,,,,,,,,,,,,geluid,images/br_geluid.png,images/cb_geluid.png,,geluid,,,,,,,,,,,-0.439692988,-0.259613133,1,0,0,geluid,0,20,20,10,1
,,,,,00015,2023-08-06_10h35.32.060,vbt_B2_day3,2022.2.4,Win32,58.356676,,,,,,,,,,,,,,,,,,,,paken,images/br_paken.png,images/cb_paken.png,,paken,,,,,,,,,,,-0.33038282,-0.273508483,1,0,0,paken,0,21,21,27,1
,,,,,00015,2023-08-06_10h35.32.060,vbt_B2_day3,2022.2.4,Win32,58.356676,,,,,,,,,,,,,,,,,,,,keihard,images/br_keihard.png,images/cb_keihard.png,,keihard,,,,,,,,,,,-0.404491419,-0.166977385,1,0,0,keihard,0,22,22,14,1
,,,,,00015,2023-08-06_10h35.32.060,vbt_B2_day3,2022.2.4,Win32,58.356676,,,,,,,,,,,,,,,,,,,,opzetten,images/br_opzetten.png,images/cb_opzetten.png,,opzetten,,,,,,,,,,,-0.481379087,-0.103985067,1,0,0,opzetten,0,23,23,56,1
,,,,,00015,2023-08-06_10h35.32.060,vbt_B2_day3,2022.2.4,Win32,58.356676,,,,,,,,,,,,,,,,,,,,opzicht,images/br_opzicht.png,images/cb_opzicht.png,,opnic...,,,,,,,,,,,-0.35168904,-0.256834063,1,0,0,opnic...,0,24,24,15,1
,,,,,00015,2023-08-06_10h35.32.060,vbt_B2_day3,2022.2.4,Win32,58.356676,,,,,,,,,,,,,,,,,,,,stoom,images/br_stoom.png,images/cb_stoom.png,,stoom,,,,,,,,,,,-0.420239498,-0.181799076,1,0,0,stoom,0,25,25,6,1
,,,,,00015,2023-08-06_10h35.32.060,vbt_B2_day3,2022.2.4,Win32,58.356676,,,,,,,,,,,,,,,,,,,,booien,images/br_booien.png,images/cb_booien.png,,booien,,,,,,,,,,,-0.429503049,-0.185504535,1,0,0,booien,0,26,26,31,1
,,,,,00015,2023-08-06_10h35.32.060,vbt_B2_day3,2022.2.4,Win32,58.356676,,,,,,,,,,,,,,,,,,,,sultan,images/br_sultan.png,images/cb_sultan.png,,sultan,,,,,,,,,,,-0.477673676,-0.176240936,1,0,0,sultan,0,27,27,49,1
,,,,,00015,2023-08-06_10h35.32.060,vbt_B2_day3,2022.2.4,Win32,58.356676,,,,,,,,,,,,,,,,,,,,schatten,images/br_schatten.png,images/cb_schatten.png,,schatten,,,,,,,,,,,-0.470262807,-0.197547156,1,0,0,schatten,0,28,28,18,1
,,,,,00015,2023-08-06_10h35.32.060,vbt_B2_day3,2022.2.4,Win32,58.356676,,,,,,,,,,,,,,,,,,,,leek,images/br_leek.png,images/cb_leek.png,,leek,,,,,,,,,,,-0.331309209,-0.236454184,1,0,0,leek,0,29,29,2,1
,,,,,00015,2023-08-06_10h35.32.060,vbt_B2_day3,2022.2.4,Win32,58.356676,,,,,,,,,,,,,,,,,,,,steel,images/br_steel.png,images/cb_steel.png,,steel,,,,,,,,,,,-0.401712349,-0.248496805,1,0,0,steel,0,30,30,4,1
,,,,,00015,2023-08-06_10h35.32.060,vbt_B2_day3,2022.2.4,Win32,58.356676,,,,,,,,,,,,,,,,,,,,uviek,images/br_uviek.png,images/cb_uviek.png,,uviek,,,,,,,,,,,-0.425797638,-0.116954077,1,0,0,uviek,0,31,31,25,1
,,,,,00015,2023-08-06_10h35.32.060,vbt_B2_day3,2022.2.4,Win32,58.356676,,,,,,,,,,,,,,,,,,,,begrip,images/br_begrip.png,images/cb_begrip.png,,begrip,,,,,,,,,,,-0.413755017,-0.260539522,1,0,0,begrip,0,32,32,48,1
,,,,,00015,2023-08-06_10h35.32.060,vbt_B2_day3,2022.2.4,Win32,58.356676,,,,,,,,,,,,,,,,,,,,kaas,images/br_kaas.png,images/cb_kaas.png,,kaas,,,,,,,,,,,-0.358173569,-0.202178955,1,0,0,kaas,0,33,33,42,1
,,,,,00015,2023-08-06_10h35.32.060,vbt_B2_day3,2022.2.4,Win32,58.356676,,,,,,,,,,,,,,,,,,,,sluier,images/br_sluier.png,images/cb_sluier.png,,sluier,,,,,,,,,,,-0.422092227,-0.236454184,1,0,0,sluier,0,34,34,50,1
,,,,,00015,2023-08-06_10h35.32.060,vbt_B2_day3,2022.2.4,Win32,58.356676,,,,,,,,,,,,,,,,,,,,gout,images/br_gout.png,images/cb_gout.png,,gout,,,,,,,,,,,-0.345204559,-0.222558834,1,0,0,gout,0,35,35,20,1
,,,,,00015,2023-08-06_10h35.32.060,vbt_B2_day3,2022.2.4,Win32,58.356676,,,,,,,,,,,,,,,,,,,,verhaal,images/br_verhaal.png,images/cb_verhaal.png,,verhaal,,,,,,,,,,,-0.359099909,-0.184578146,1,0,0,verhaal,0,36,36,13,1
,,,,,00015,2023-08-06_10h35.32.060,vbt_B2_day3,2022.2.4,Win32,58.356676,,,,,,,,,,,,,,,,,,,,jongelui,images/br_jongelui.png,images/cb_jongelui.png,,jongelui,,,,,,,,,,,-0.420239498,-0.195694474,1,0,0,jongelui,0,37,37,59,1
,,,,,00015,2023-08-06_10h35.32.060,vbt_B2_day3,2022.2.4,Win32,58.356676,,,,,,,,,,,,,,,,,,,,bevret,images/br_bevret.png,images/cb_bevret.png,,bevret,,,,,,,,,,,-0.394301479,-0.232748822,1,0,0,bevret,0,38,38,30,1
,,,,,00015,2023-08-06_10h35.32.060,vbt_B2_day3,2022.2.4,Win32,58.356676,,,,,,,,,,,,,,,,,,,,dwang,images/br_dwang.png,images/cb_dwang.png,,dwang,,,,,,,,,,,-0.408196877,-0.308710053,1,0,0,dwang,0,39,39,47,1
,,,,,00015,2023-08-06_10h35.32.060,vbt_B2_day3,2022.2.4,Win32,58.356676,,,,,,,,,,,,,,,,,,,,stikken,images/br_stikken.png,images/cb_stikken.png,,stikken,,,,,,,,,,,-0.446177469,-0.268876732,1,0,0,stikken,0,40,40,54,1
,,,,,00015,2023-08-06_10h35.32.060,vbt_B2_day3,2022.2.4,Win32,58.356676,,,,,,,,,,,,,,,,,,,,afbopen,images/br_afbopen.png,images/cb_afbopen.png,,afbo.....,,,,,,,,,,,-0.436913918,-0.242012324,1,0,0,afbo.....,0,41,41,34,1
,,,,,00015,2023-08-06_10h35.32.060,vbt_B2_day3,2022.2.4,Win32,58.356676,,,,,,,,,,,,,,,,,,,,eens,images/br_eens.png,images/cb_eens.png,,eens,,,,,,,,,,,-0.503611671,-0.237380525,1,0,0,eens,0,42,42,40,1
,,,,,00015,2023-08-06_10h35.32.060,vbt_B2_day3,2022.2.4,Win32,58.356676,,,,,,,,,,,,,,,,,,,,samen,images/br_samen.png,images/cb_samen.png,,samen,,,,,,,,,,,-0.435987578,-0.222558834,1,0,0,samen,0,43,43,7,1
,,,,,00015,2023-08-06_10h35.32.060,vbt_B2_day3,2022.2.4,Win32,58.356676,,,,,,,,,,,,,,,,,,,,makieren,images/br_makieren.png,images/cb_makieren.png,,makie....,,,,,,,,,,,-0.449882928,-0.216074353,1,0,0,makie....,0,44,44,36,1
,,,,,00015,2023-08-06_10h35.32.060,vbt_B2_day3,2022.2.4,Win32,58.356676,,,,,,,,,,,,,,,,,,,,beslag,images/br_beslag.png,images/cb_beslag.png,,beslag,,,,,,,,,,,-0.339646419,-0.272582143,1,0,0,beslag,0,45,45,51,1
,,,,,00015,2023-08-06_10h35.32.060,vbt_B2_day3,2022.2.4,Win32,58.356676,,,,,,,,,,,,,,,,,,,,brappen,images/br_brappen.png,images/cb_brappen.png,,brappen,,,,,,,,,,,-0.415607699,-0.227190682,1,0,0,brappen,0,46,46,35,1
,,,,,00015,2023-08-06_10h35.32.060,vbt_B2_day3,2022.2.4,Win32,58.356676,,,,,,,,,,,,,,,,,,,,glijden,images/br_glijden.png,images/cb_glijden.png,,glijden,,,,,,,,,,,-0.435061189,-0.154934716,1,0,0,glijden,0,47,47,53,1
,,,,,00015,2023-08-06_10h35.32.060,vbt_B2_day3,2022.2.4,Win32,58.356676,,,,,,,,,,,,,,,,,,,,verwoor,images/br_verwoor.png,images/cb_verwoor.png,,verwoot,,,,,,,,,,,-0.426723979,-0.238306962,1,0,0,verwoot,0,48,48,32,1
,,,,,00015,2023-08-06_10h35.32.060,vbt_B2_day3,2022.2.4,Win32,58.356676,,,,,,,,,,,,,,,,,,,,hust,images/br_hust.png,images/cb_hust.png,,hust,,,,,,,,,,,-0.350762699,-0.122512217,1,0,0,hust,0,49,49,23,1
,,,,,00015,2023-08-06_10h35.32.060,vbt_B2_day3,2022.2.4,Win32,58.356676,,,,,,,,,,,,,,,,,,,,prikken,images/br_prikken.png,images/cb_prikken.png,,prikken,,,,,,,,,,,-0.425797638,-0.192915404,1,0,0,prikken,0,50,50,12,1
,,,,,00015,2023-08-06_10h35.32.060,vbt_B2_day3,2022.2.4,Win32,58.356676,,,,,,,,,,,,,,,,,,,,hint,images/br_hint.png,images/cb_hint.png,,hint,,,,,,,,,,,-0.404491419,-0.206810754,1,0,0,hint,0,51,51,43,1
,,,,,00015,2023-08-06_10h35.32.060,vbt_B2_day3,2022.2.4,Win32,58.356676,,,,,,,,,,,,,,,,,,,,hier,images/br_hier.png,images/cb_hier.png,,hier,,,,,,,,,,,-0.311855671,-0.275361213,1,0,0,hier,0,52,52,1,1
,,,,,00015,2023-08-06_10h35.32.060,vbt_B2_day3,2022.2.4,Win32,58.356676,,,,,,,,,,,,,,,,,,,,boeien,images/br_boeien.png,images/cb_boeien.png,,boeien,,,,,,,,,,,-0.494348096,-0.201252614,1,0,0,boeien,0,53,53,8,1
,,,,,00015,2023-08-06_10h35.32.060,vbt_B2_day3,2022.2.4,Win32,58.356676,,,,,,,,,,,,,,,,,,,,laken,images/br_laken.png,images/cb_laken.png,,laken,,,,,,,,,,,-0.489716321,-0.184578146,1,0,0,laken,0,54,54,5,1
,,,,,00015,2023-08-06_10h35.32.060,vbt_B2_day3,2022.2.4,Win32,58.356676,,,,,,,,,,,,,,,,,,,,knie,images/br_knie.png,images/cb_knie.png,,knie,,,,,,,,,,,-0.461925597,-0.275361213,1,0,0,knie,0,55,55,0,1
,,,,,00015,2023-08-06_10h35.32.060,vbt_B2_day3,2022.2.4,Win32,58.356676,,,,,,,,,,,,,,,,,,,,stallen,images/br_stallen.png,images/cb_stallen.png,,stallen,,,,,,,,,,,-0.429503049,-0.254981382,1,0,0,stallen,0,56,56,52,1
,,,,,00015,2023-08-06_10h35.32.060,vbt_B2_day3,2022.2.4,Win32,58.356676,,,,,,,,,,,,,,,,,,,,zone,images/br_zone.png,images/cb_zone.png,,zone,,,,,,,,,,,-0.519359751,-0.185504535,1,0,0,zone,0,57,57,41,1
,,,,,00015,2023-08-06_10h35.32.060,vbt_B2_day3,2022.2.4,Win32,58.356676,,,,,,,,,,,,,,,,,,,,oprotten,images/br_oprotten.png,images/cb_oprotten.png,,oprotten,,,,,,,,,,,-0.453588387,-0.186430876,1,0,0,oprotten,0,58,58,17,1
,,,,,00015,2023-08-06_10h35.32.060,vbt_B2_day3,2022.2.4,Win32,58.356676,,,,,,,,,,,,,,,,,,,,aarzelen,images/br_aarzelen.png,images/cb_aarzelen.png,,aarzelen,,,,,,,,,,,-0.417460428,-0.231822385,1,0,0,aarzelen,0,59,59,19,1
,,,,,00015,2023-08-06_10h35.32.060,vbt_B2_day3,2022.2.4,Win32,58.356676,,,,,,,,,,,,,,,,,,,,,,,,,,,,,,,,,,,,,,,,,,,,,
