welcome_mouse.x,welcome_mouse.y,welcome_mouse.leftButton,welcome_mouse.midButton,welcome_mouse.rightButton,"ID",date,expName,psychopyVersion,OS,frameRate,trainInstr_mouse.x,trainInstr_mouse.y,trainInstr_mouse.leftButton,trainInstr_mouse.midButton,trainInstr_mouse.rightButton,translation_key.keys,translation_key.corr,translation_key.rt,word_rsp.text,trWrd_mouse.x,trWrd_mouse.y,trWrd_mouse.leftButton,trWrd_mouse.midButton,trWrd_mouse.rightButton,train_loop.thisRepN,train_loop.thisTrialN,train_loop.thisN,train_loop.thisIndex,train_loop.ran,nlWrd,brWrd,cbWrd,test,testResp,mouse.x,mouse.y,mouse.leftButton,mouse.midButton,mouse.rightButton,testInstr_mouse.x,testInstr_mouse.y,testInstr_mouse.leftButton,testInstr_mouse.midButton,testInstr_mouse.rightButton,test_mouse.x,test_mouse.y,test_mouse.leftButton,test_mouse.midButton,test_mouse.rightButton,test_response.text,test_loop.thisRepN,test_loop.thisTrialN,test_loop.thisN,test_loop.thisIndex,test_loop.ran
-0.024305556,-0.107638889,1,0,0,00069,2023-10-14_19h52.50.355,vbt_B2_day4,2022.2.4,Win32,143.9884809,,,,,,,,,,,,,,,,,,,,,,,,,,,,,,,,,,,,,,,,,,,,,
,,,,,00069,2023-10-14_19h52.50.355,vbt_B2_day4,2022.2.4,Win32,143.9884809,-0.024305556,-0.107638889,1,0,0,,,,,,,,,,,,,,,,,,,,,,,,,,,,,,,,,,,,,,,,
,,,,,00069,2023-10-14_19h52.50.355,vbt_B2_day4,2022.2.4,Win32,143.9884809,,,,,,down,0,2.6002,,0.195138889,-0.095138889,1,0,0,0,0,0,97,1,loyaal,images/br_loyaal.png,images/cb_loyaal.png,0,,,,,,,,,,,,,,,,,,,,,,
,,,,,00069,2023-10-14_19h52.50.355,vbt_B2_day4,2022.2.4,Win32,143.9884809,,,,,,down,0,0.0053,,0.2125,-0.128472222,1,0,0,0,1,1,48,1,steel,images/br_steel.png,images/cb_steel.png,0,,,,,,,,,,,,,,,,,,,,,,
,,,,,00069,2023-10-14_19h52.50.355,vbt_B2_day4,2022.2.4,Win32,143.9884809,,,,,,down,0,2.6487,,0.2125,-0.128472222,1,0,0,0,2,2,106,1,zingen,images/br_zingen.png,images/cb_zingen.png,1,zingen,,,,,,,,,,,,,,,,,,,,,
,,,,,00069,2023-10-14_19h52.50.355,vbt_B2_day4,2022.2.4,Win32,143.9884809,,,,,,down,0,0.042,,0.386111111,-0.074305556,1,0,0,0,3,3,50,1,stoom,images/br_stoom.png,images/cb_stoom.png,0,,,,,,,,,,,,,,,,,,,,,,
,,,,,00069,2023-10-14_19h52.50.355,vbt_B2_day4,2022.2.4,Win32,143.9884809,,,,,,down,0,1.7613,,0.385416667,-0.072916667,1,0,0,0,4,4,143,1,hechten,images/br_hechten.png,images/cb_hechten.png,0,,,,,,,,,,,,,,,,,,,,,,
,,,,,00069,2023-10-14_19h52.50.355,vbt_B2_day4,2022.2.4,Win32,143.9884809,,,,,,down,0,5.797,,0.395833333,-0.084027778,1,0,0,0,5,5,182,1,bijkomen,images/br_bijkomen.png,images/cb_bijkomen.png,0,,,,,,,,,,,,,,,,,,,,,,
,,,,,00069,2023-10-14_19h52.50.355,vbt_B2_day4,2022.2.4,Win32,143.9884809,,,,,,down,0,0.3407,,0.395833333,-0.084027778,1,0,0,0,6,6,1,1,zaal,images/br_zaal.png,images/cb_zaal.png,0,,,,,,,,,,,,,,,,,,,,,,
,,,,,00069,2023-10-14_19h52.50.355,vbt_B2_day4,2022.2.4,Win32,143.9884809,,,,,,down,0,1.4078,,0.395833333,-0.084027778,1,0,0,0,7,7,65,1,parel,images/br_parel.png,images/cb_parel.png,1,parel,,,,,,,,,,,,,,,,,,,,,
,,,,,00069,2023-10-14_19h52.50.355,vbt_B2_day4,2022.2.4,Win32,143.9884809,,,,,,down,0,1.568,,0.395833333,-0.084027778,1,0,0,0,8,8,91,1,gezond,images/br_gezond.png,images/cb_gezond.png,0,,,,,,,,,,,,,,,,,,,,,,
,,,,,00069,2023-10-14_19h52.50.355,vbt_B2_day4,2022.2.4,Win32,143.9884809,,,,,,down,0,2.2195,,0.395833333,-0.084027778,1,0,0,0,9,9,134,1,geliefd,images/br_geliefd.png,images/cb_geliefd.png,0,,,,,,,,,,,,,,,,,,,,,,
,,,,,00069,2023-10-14_19h52.50.355,vbt_B2_day4,2022.2.4,Win32,143.9884809,,,,,,down,0,2.1559,,0.395833333,-0.084027778,1,0,0,0,10,10,189,1,aanraden,images/br_aanraden.png,images/cb_aanraden.png,0,,,,,,,,,,,,,,,,,,,,,,
,,,,,00069,2023-10-14_19h52.50.355,vbt_B2_day4,2022.2.4,Win32,143.9884809,,,,,,down,0,0.7595,,0.395833333,-0.084027778,1,0,0,0,11,11,116,1,besmet,images/br_besmet.png,images/cb_besmet.png,0,,,,,,,,,,,,,,,,,,,,,,
,,,,,00069,2023-10-14_19h52.50.355,vbt_B2_day4,2022.2.4,Win32,143.9884809,,,,,,down,0,0.8031,,0.395833333,-0.084027778,1,0,0,0,12,12,125,1,aanzien,images/br_aanzien.png,images/cb_aanzien.png,0,,,,,,,,,,,,,,,,,,,,,,
,,,,,00069,2023-10-14_19h52.50.355,vbt_B2_day4,2022.2.4,Win32,143.9884809,,,,,,down,0,2.3687,,0.395833333,-0.084027778,1,0,0,0,13,13,47,1,kabel,images/br_kabel.png,images/cb_kabel.png,0,,,,,,,,,,,,,,,,,,,,,,
,,,,,00069,2023-10-14_19h52.50.355,vbt_B2_day4,2022.2.4,Win32,143.9884809,,,,,,down,0,0.2593,,0.395833333,-0.084027778,1,0,0,0,14,14,17,1,taal,images/br_taal.png,images/cb_taal.png,0,,,,,,,,,,,,,,,,,,,,,,
,,,,,00069,2023-10-14_19h52.50.355,vbt_B2_day4,2022.2.4,Win32,143.9884809,,,,,,down,0,0.0328,,0.395833333,-0.084027778,1,0,0,0,15,15,151,1,aanzoek,images/br_aanzoek.png,images/cb_aanzoek.png,0,,,,,,,,,,,,,,,,,,,,,,
,,,,,00069,2023-10-14_19h52.50.355,vbt_B2_day4,2022.2.4,Win32,143.9884809,,,,,,down,0,1.9222,,0.176388889,0.046527778,1,0,0,0,16,16,67,1,zwart,images/br_zwart.png,images/cb_zwart.png,1,zwart,,,,,,,,,,,,,,,,,,,,,
,,,,,00069,2023-10-14_19h52.50.355,vbt_B2_day4,2022.2.4,Win32,143.9884809,,,,,,down,0,1.0604,,0.176388889,0.046527778,1,0,0,0,17,17,73,1,volop,images/br_volop.png,images/cb_volop.png,0,,,,,,,,,,,,,,,,,,,,,,
,,,,,00069,2023-10-14_19h52.50.355,vbt_B2_day4,2022.2.4,Win32,143.9884809,,,,,,down,0,3.0538,,0.184027778,0.048611111,1,0,0,0,18,18,52,1,wagon,images/br_wagon.png,images/cb_wagon.png,0,,,,,,,,,,,,,,,,,,,,,,
,,,,,00069,2023-10-14_19h52.50.355,vbt_B2_day4,2022.2.4,Win32,143.9884809,,,,,,down,0,1.2956,,0.186805556,0.059027778,1,0,0,0,19,19,128,1,prikken,images/br_prikken.png,images/cb_prikken.png,0,,,,,,,,,,,,,,,,,,,,,,
,,,,,00069,2023-10-14_19h52.50.355,vbt_B2_day4,2022.2.4,Win32,143.9884809,,,,,,down,0,0.1739,,0.326388889,0.052083333,1,0,0,0,20,20,90,1,geluid,images/br_geluid.png,images/cb_geluid.png,0,,,,,,,,,,,,,,,,,,,,,,
,,,,,00069,2023-10-14_19h52.50.355,vbt_B2_day4,2022.2.4,Win32,143.9884809,,,,,,down,0,6.4367,,0.352083333,0.038888889,1,0,0,0,21,21,180,1,openbaar,images/br_openbaar.png,images/cb_openbaar.png,0,,,,,,,,,,,,,,,,,,,,,,
,,,,,00069,2023-10-14_19h52.50.355,vbt_B2_day4,2022.2.4,Win32,143.9884809,,,,,,down,0,1.495,,0.352083333,0.038888889,1,0,0,0,22,22,68,1,schat,images/br_schat.png,images/cb_schat.png,0,,,,,,,,,,,,,,,,,,,,,,
,,,,,00069,2023-10-14_19h52.50.355,vbt_B2_day4,2022.2.4,Win32,143.9884809,,,,,,down,0,1.3066,,0.352083333,0.038888889,1,0,0,0,23,23,171,1,aarzelen,images/br_aarzelen.png,images/cb_aarzelen.png,0,,,,,,,,,,,,,,,,,,,,,,
,,,,,00069,2023-10-14_19h52.50.355,vbt_B2_day4,2022.2.4,Win32,143.9884809,,,,,,down,0,1.1115,,0.352083333,0.038888889,1,0,0,0,24,24,51,1,samen,images/br_samen.png,images/cb_samen.png,0,,,,,,,,,,,,,,,,,,,,,,
,,,,,00069,2023-10-14_19h52.50.355,vbt_B2_day4,2022.2.4,Win32,143.9884809,,,,,,down,0,1.2155,,0.352083333,0.038888889,1,0,0,0,25,25,20,1,site,images/br_site.png,images/cb_site.png,0,,,,,,,,,,,,,,,,,,,,,,
,,,,,00069,2023-10-14_19h52.50.355,vbt_B2_day4,2022.2.4,Win32,143.9884809,,,,,,down,0,3.8522,,0.352083333,0.038888889,1,0,0,0,26,26,87,1,toeval,images/br_toeval.png,images/cb_toeval.png,0,,,,,,,,,,,,,,,,,,,,,,
,,,,,00069,2023-10-14_19h52.50.355,vbt_B2_day4,2022.2.4,Win32,143.9884809,,,,,,down,0,0.9039,,0.352083333,0.038888889,1,0,0,0,27,27,76,1,afval,images/br_afval.png,images/cb_afval.png,0,,,,,,,,,,,,,,,,,,,,,,
,,,,,00069,2023-10-14_19h52.50.355,vbt_B2_day4,2022.2.4,Win32,143.9884809,,,,,,down,0,2.9201,,0.352083333,0.038888889,1,0,0,0,28,28,71,1,bever,images/br_bever.png,images/cb_bever.png,0,,,,,,,,,,,,,,,,,,,,,,
,,,,,00069,2023-10-14_19h52.50.355,vbt_B2_day4,2022.2.4,Win32,143.9884809,,,,,,down,0,1.5854,,0.352083333,0.038888889,1,0,0,0,29,29,39,1,laag,images/br_laag.png,images/cb_laag.png,0,,,,,,,,,,,,,,,,,,,,,,
,,,,,00069,2023-10-14_19h52.50.355,vbt_B2_day4,2022.2.4,Win32,143.9884809,,,,,,down,0,1.1198,,0.352083333,0.038888889,1,0,0,0,30,30,149,1,redding,images/br_redding.png,images/cb_redding.png,0,,,,,,,,,,,,,,,,,,,,,,
,,,,,00069,2023-10-14_19h52.50.355,vbt_B2_day4,2022.2.4,Win32,143.9884809,,,,,,down,0,3.6397,,0.352083333,0.038888889,1,0,0,0,31,31,129,1,verhaal,images/br_verhaal.png,images/cb_verhaal.png,0,,,,,,,,,,,,,,,,,,,,,,
,,,,,00069,2023-10-14_19h52.50.355,vbt_B2_day4,2022.2.4,Win32,143.9884809,,,,,,down,0,5.6879,,0.352083333,0.038888889,1,0,0,0,32,32,32,1,palm,images/br_palm.png,images/cb_palm.png,0,,,,,,,,,,,,,,,,,,,,,,
,,,,,00069,2023-10-14_19h52.50.355,vbt_B2_day4,2022.2.4,Win32,143.9884809,,,,,,down,0,0.7165,,0.352083333,0.038888889,1,0,0,0,33,33,53,1,baron,images/br_baron.png,images/cb_baron.png,0,,,,,,,,,,,,,,,,,,,,,,
,,,,,00069,2023-10-14_19h52.50.355,vbt_B2_day4,2022.2.4,Win32,143.9884809,,,,,,down,0,3.214,,0.352083333,0.038888889,1,0,0,0,34,34,146,1,opkomen,images/br_opkomen.png,images/cb_opkomen.png,1,opkomen,,,,,,,,,,,,,,,,,,,,,
,,,,,00069,2023-10-14_19h52.50.355,vbt_B2_day4,2022.2.4,Win32,143.9884809,,,,,,down,0,6.6581,,0.352083333,0.038888889,1,0,0,0,35,35,162,1,uitdelen,images/br_uitdelen.png,images/cb_uitdelen.png,0,,,,,,,,,,,,,,,,,,,,,,
,,,,,00069,2023-10-14_19h52.50.355,vbt_B2_day4,2022.2.4,Win32,143.9884809,,,,,,down,0,1.8065,,0.352083333,0.038888889,1,0,0,0,36,36,163,1,schuilen,images/br_schuilen.png,images/cb_schuilen.png,0,,,,,,,,,,,,,,,,,,,,,,
,,,,,00069,2023-10-14_19h52.50.355,vbt_B2_day4,2022.2.4,Win32,143.9884809,,,,,,down,0,0.2204,,0.352083333,0.038888889,1,0,0,0,37,37,89,1,slapen,images/br_slapen.png,images/cb_slapen.png,0,,,,,,,,,,,,,,,,,,,,,,
,,,,,00069,2023-10-14_19h52.50.355,vbt_B2_day4,2022.2.4,Win32,143.9884809,,,,,,down,0,2.2027,,0.352083333,0.038888889,1,0,0,0,38,38,159,1,sufferd,images/br_sufferd.png,images/cb_sufferd.png,0,,,,,,,,,,,,,,,,,,,,,,
,,,,,00069,2023-10-14_19h52.50.355,vbt_B2_day4,2022.2.4,Win32,143.9884809,,,,,,down,0,0.1827,,0.352083333,0.038888889,1,0,0,0,39,39,33,1,vlek,images/br_vlek.png,images/cb_vlek.png,0,,,,,,,,,,,,,,,,,,,,,,
,,,,,00069,2023-10-14_19h52.50.355,vbt_B2_day4,2022.2.4,Win32,143.9884809,,,,,,down,0,6.953,,0.352083333,0.038888889,1,0,0,0,40,40,158,1,innemen,images/br_innemen.png,images/cb_innemen.png,0,,,,,,,,,,,,,,,,,,,,,,
,,,,,00069,2023-10-14_19h52.50.355,vbt_B2_day4,2022.2.4,Win32,143.9884809,,,,,,down,0,3.2407,,0.352083333,0.038888889,1,0,0,0,41,41,144,1,eetlust,images/br_eetlust.png,images/cb_eetlust.png,1,eentlust,,,,,,,,,,,,,,,,,,,,,
,,,,,00069,2023-10-14_19h52.50.355,vbt_B2_day4,2022.2.4,Win32,143.9884809,,,,,,down,0,3.5642,,0.352083333,0.038888889,1,0,0,0,42,42,178,1,huisdier,images/br_huisdier.png,images/cb_huisdier.png,0,,,,,,,,,,,,,,,,,,,,,,
,,,,,00069,2023-10-14_19h52.50.355,vbt_B2_day4,2022.2.4,Win32,143.9884809,,,,,,down,0,1.8268,,0.352083333,0.038888889,1,0,0,0,43,43,191,1,opheffen,images/br_opheffen.png,images/cb_opheffen.png,0,,,,,,,,,,,,,,,,,,,,,,
,,,,,00069,2023-10-14_19h52.50.355,vbt_B2_day4,2022.2.4,Win32,143.9884809,,,,,,down,0,0.4445,,0.353472222,0.038194444,1,0,0,0,44,44,26,1,leuk,images/br_leuk.png,images/cb_leuk.png,1,leuk,,,,,,,,,,,,,,,,,,,,,
,,,,,00069,2023-10-14_19h52.50.355,vbt_B2_day4,2022.2.4,Win32,143.9884809,,,,,,down,0,2.3848,,0.353472222,0.038194444,1,0,0,0,45,45,118,1,vinger,images/br_vinger.png,images/cb_vinger.png,0,,,,,,,,,,,,,,,,,,,,,,
,,,,,00069,2023-10-14_19h52.50.355,vbt_B2_day4,2022.2.4,Win32,143.9884809,,,,,,down,0,5.6823,,0.353472222,0.038194444,1,0,0,0,46,46,167,1,eenhoorn,images/br_eenhoorn.png,images/cb_eenhoorn.png,0,,,,,,,,,,,,,,,,,,,,,,
,,,,,00069,2023-10-14_19h52.50.355,vbt_B2_day4,2022.2.4,Win32,143.9884809,,,,,,down,0,3.0423,,0.353472222,0.038194444,1,0,0,0,47,47,198,1,bedoelen,images/br_bedoelen.png,images/cb_bedoelen.png,0,,,,,,,,,,,,,,,,,,,,,,
,,,,,00069,2023-10-14_19h52.50.355,vbt_B2_day4,2022.2.4,Win32,143.9884809,,,,,,down,0,0.8962,,0.353472222,0.038194444,1,0,0,0,48,48,195,1,middelen,images/br_middelen.png,images/cb_middelen.png,0,,,,,,,,,,,,,,,,,,,,,,
,,,,,00069,2023-10-14_19h52.50.355,vbt_B2_day4,2022.2.4,Win32,143.9884809,,,,,,down,0,0.3842,,0.353472222,0.038194444,1,0,0,0,49,49,139,1,stiekem,images/br_stiekem.png,images/cb_stiekem.png,0,,,,,,,,,,,,,,,,,,,,,,
,,,,,00069,2023-10-14_19h52.50.355,vbt_B2_day4,2022.2.4,Win32,143.9884809,,,,,,down,0,0.4989,,0.353472222,0.038194444,1,0,0,0,50,50,109,1,totaal,images/br_totaal.png,images/cb_totaal.png,0,,,,,,,,,,,,,,,,,,,,,,
,,,,,00069,2023-10-14_19h52.50.355,vbt_B2_day4,2022.2.4,Win32,143.9884809,,,,,,down,0,1.4762,,0.329166667,0.033333333,1,0,0,0,51,51,104,1,zweven,images/br_zweven.png,images/cb_zweven.png,1,zweven,,,,,,,,,,,,,,,,,,,,,
,,,,,00069,2023-10-14_19h52.50.355,vbt_B2_day4,2022.2.4,Win32,143.9884809,,,,,,down,0,1.6141,,0.306944444,0.040277778,1,0,0,0,52,52,184,1,aandelen,images/br_aandelen.png,images/cb_aandelen.png,1,aandelen,,,,,,,,,,,,,,,,,,,,,
,,,,,00069,2023-10-14_19h52.50.355,vbt_B2_day4,2022.2.4,Win32,143.9884809,,,,,,down,0,3.1271,,0.309027778,0.039583333,1,0,0,0,53,53,83,1,mening,images/br_mening.png,images/cb_mening.png,0,,,,,,,,,,,,,,,,,,,,,,
,,,,,00069,2023-10-14_19h52.50.355,vbt_B2_day4,2022.2.4,Win32,143.9884809,,,,,,down,0,1.0814,,0.309027778,0.039583333,1,0,0,0,54,54,66,1,lever,images/br_lever.png,images/cb_lever.png,1,lever,,,,,,,,,,,,,,,,,,,,,
,,,,,00069,2023-10-14_19h52.50.355,vbt_B2_day4,2022.2.4,Win32,143.9884809,,,,,,down,0,4.1088,,0.309027778,0.039583333,1,0,0,0,55,55,38,1,baai,images/br_baai.png,images/cb_baai.png,0,,,,,,,,,,,,,,,,,,,,,,
,,,,,00069,2023-10-14_19h52.50.355,vbt_B2_day4,2022.2.4,Win32,143.9884809,,,,,,down,0,1.9867,,0.309027778,0.039583333,1,0,0,0,56,56,58,1,tekst,images/br_tekst.png,images/cb_tekst.png,0,,,,,,,,,,,,,,,,,,,,,,
,,,,,00069,2023-10-14_19h52.50.355,vbt_B2_day4,2022.2.4,Win32,143.9884809,,,,,,down,0,5.4459,,0.309027778,0.039583333,1,0,0,0,57,57,54,1,gebit,images/br_gebit.png,images/cb_gebit.png,0,,,,,,,,,,,,,,,,,,,,,,
,,,,,00069,2023-10-14_19h52.50.355,vbt_B2_day4,2022.2.4,Win32,143.9884809,,,,,,down,0,2.28,,0.309027778,0.039583333,1,0,0,0,58,58,93,1,waarop,images/br_waarop.png,images/cb_waarop.png,0,,,,,,,,,,,,,,,,,,,,,,
,,,,,00069,2023-10-14_19h52.50.355,vbt_B2_day4,2022.2.4,Win32,143.9884809,,,,,,down,0,0.1974,,0.309027778,0.039583333,1,0,0,0,59,59,75,1,snoep,images/br_snoep.png,images/cb_snoep.png,0,,,,,,,,,,,,,,,,,,,,,,
,,,,,00069,2023-10-14_19h52.50.355,vbt_B2_day4,2022.2.4,Win32,143.9884809,,,,,,down,0,1.8342,,0.309027778,0.039583333,1,0,0,0,60,60,124,1,bloeien,images/br_bloeien.png,images/cb_bloeien.png,0,,,,,,,,,,,,,,,,,,,,,,
,,,,,00069,2023-10-14_19h52.50.355,vbt_B2_day4,2022.2.4,Win32,143.9884809,,,,,,down,0,3.6474,,0.309027778,0.039583333,1,0,0,0,61,61,186,1,voorraad,images/br_voorraad.png,images/cb_voorraad.png,1,voorraad,,,,,,,,,,,,,,,,,,,,,
,,,,,00069,2023-10-14_19h52.50.355,vbt_B2_day4,2022.2.4,Win32,143.9884809,,,,,,down,0,3.1144,,0.309027778,0.039583333,1,0,0,0,62,62,61,1,groen,images/br_groen.png,images/cb_groen.png,0,,,,,,,,,,,,,,,,,,,,,,
,,,,,00069,2023-10-14_19h52.50.355,vbt_B2_day4,2022.2.4,Win32,143.9884809,,,,,,down,0,0.99,,0.309027778,0.039583333,1,0,0,0,63,63,34,1,vorm,images/br_vorm.png,images/cb_vorm.png,0,,,,,,,,,,,,,,,,,,,,,,
,,,,,00069,2023-10-14_19h52.50.355,vbt_B2_day4,2022.2.4,Win32,143.9884809,,,,,,down,0,0.1474,,0.317361111,0.028472222,1,0,0,0,64,64,88,1,boeien,images/br_boeien.png,images/cb_boeien.png,0,,,,,,,,,,,,,,,,,,,,,,
,,,,,00069,2023-10-14_19h52.50.355,vbt_B2_day4,2022.2.4,Win32,143.9884809,,,,,,down,0,2.2576,,0.315972222,0.038194444,1,0,0,0,65,65,179,1,woestijn,images/br_woestijn.png,images/cb_woestijn.png,0,,,,,,,,,,,,,,,,,,,,,,
,,,,,00069,2023-10-14_19h52.50.355,vbt_B2_day4,2022.2.4,Win32,143.9884809,,,,,,down,0,6.022,,0.293055556,0.055555556,1,0,0,0,66,66,181,1,toegeven,images/br_toegeven.png,images/cb_toegeven.png,0,,,,,,,,,,,,,,,,,,,,,,
,,,,,00069,2023-10-14_19h52.50.355,vbt_B2_day4,2022.2.4,Win32,143.9884809,,,,,,down,0,0.1283,,0.286805556,0.034722222,1,0,0,0,67,67,35,1,lust,images/br_lust.png,images/cb_lust.png,0,,,,,,,,,,,,,,,,,,,,,,
,,,,,00069,2023-10-14_19h52.50.355,vbt_B2_day4,2022.2.4,Win32,143.9884809,,,,,,down,0,3.7745,,0.273611111,0.054861111,1,0,0,0,68,68,3,1,mand,images/br_mand.png,images/cb_mand.png,0,,,,,,,,,,,,,,,,,,,,,,
,,,,,00069,2023-10-14_19h52.50.355,vbt_B2_day4,2022.2.4,Win32,143.9884809,,,,,,down,0,0.5628,,0.275,0.035416667,1,0,0,0,69,69,11,1,mode,images/br_mode.png,images/cb_mode.png,0,,,,,,,,,,,,,,,,,,,,,,
,,,,,00069,2023-10-14_19h52.50.355,vbt_B2_day4,2022.2.4,Win32,143.9884809,,,,,,down,0,0.2642,,0.273611111,0.059027778,1,0,0,0,70,70,72,1,strak,images/br_strak.png,images/cb_strak.png,0,,,,,,,,,,,,,,,,,,,,,,
,,,,,00069,2023-10-14_19h52.50.355,vbt_B2_day4,2022.2.4,Win32,143.9884809,,,,,,down,0,2.6255,,0.277083333,0.063194444,1,0,0,0,71,71,145,1,invloed,images/br_invloed.png,images/cb_invloed.png,1,invloed,,,,,,,,,,,,,,,,,,,,,
,,,,,00069,2023-10-14_19h52.50.355,vbt_B2_day4,2022.2.4,Win32,143.9884809,,,,,,down,0,3.45,,0.277083333,0.068055556,1,0,0,0,72,72,117,1,kennis,images/br_kennis.png,images/cb_kennis.png,0,,,,,,,,,,,,,,,,,,,,,,
,,,,,00069,2023-10-14_19h52.50.355,vbt_B2_day4,2022.2.4,Win32,143.9884809,,,,,,down,0,2.6653,,0.277083333,0.056944444,1,0,0,0,73,73,119,1,liefje,images/br_liefje.png,images/cb_liefje.png,0,,,,,,,,,,,,,,,,,,,,,,
,,,,,00069,2023-10-14_19h52.50.355,vbt_B2_day4,2022.2.4,Win32,143.9884809,,,,,,down,0,1.6191,,0.255555556,0.067361111,1,0,0,0,74,74,81,1,dubbel,images/br_dubbel.png,images/cb_dubbel.png,0,,,,,,,,,,,,,,,,,,,,,,
,,,,,00069,2023-10-14_19h52.50.355,vbt_B2_day4,2022.2.4,Win32,143.9884809,,,,,,down,0,4.663,,0.254166667,0.048611111,1,0,0,0,75,75,196,1,nakijken,images/br_nakijken.png,images/cb_nakijken.png,0,,,,,,,,,,,,,,,,,,,,,,
,,,,,00069,2023-10-14_19h52.50.355,vbt_B2_day4,2022.2.4,Win32,143.9884809,,,,,,down,0,8.0456,,0.25,0.013888889,1,0,0,0,76,76,37,1,mijn,images/br_mijn.png,images/cb_mijn.png,0,,,,,,,,,,,,,,,,,,,,,,
,,,,,00069,2023-10-14_19h52.50.355,vbt_B2_day4,2022.2.4,Win32,143.9884809,,,,,,down,0,0.4688,,0.241666667,0.056944444,1,0,0,0,77,77,57,1,steek,images/br_steek.png,images/cb_steek.png,0,,,,,,,,,,,,,,,,,,,,,,
,,,,,00069,2023-10-14_19h52.50.355,vbt_B2_day4,2022.2.4,Win32,143.9884809,,,,,,down,0,3.4473,,0.21875,0.031944444,1,0,0,0,78,78,123,1,hiervan,images/br_hiervan.png,images/cb_hiervan.png,0,,,,,,,,,,,,,,,,,,,,,,
,,,,,00069,2023-10-14_19h52.50.355,vbt_B2_day4,2022.2.4,Win32,143.9884809,,,,,,down,0,2.23,,0.230555556,0.041666667,1,0,0,0,79,79,190,1,goedkoop,images/br_goedkoop.png,images/cb_goedkoop.png,0,,,,,,,,,,,,,,,,,,,,,,
,,,,,00069,2023-10-14_19h52.50.355,vbt_B2_day4,2022.2.4,Win32,143.9884809,,,,,,down,0,0.2572,,0.235416667,0.034027778,1,0,0,0,80,80,188,1,strekken,images/br_strekken.png,images/cb_strekken.png,0,,,,,,,,,,,,,,,,,,,,,,
,,,,,00069,2023-10-14_19h52.50.355,vbt_B2_day4,2022.2.4,Win32,143.9884809,,,,,,down,0,7.9282,,0.233333333,0.022222222,1,0,0,0,81,81,127,1,doodmoe,images/br_doodmoe.png,images/cb_doodmoe.png,0,,,,,,,,,,,,,,,,,,,,,,
,,,,,00069,2023-10-14_19h52.50.355,vbt_B2_day4,2022.2.4,Win32,143.9884809,,,,,,down,0,3.6582,,0.232638889,0.00625,1,0,0,0,82,82,197,1,spanning,images/br_spanning.png,images/cb_spanning.png,0,,,,,,,,,,,,,,,,,,,,,,
,,,,,00069,2023-10-14_19h52.50.355,vbt_B2_day4,2022.2.4,Win32,143.9884809,,,,,,down,0,6.0545,,0.232638889,-0.013888889,1,0,0,0,83,83,136,1,waarbij,images/br_waarbij.png,images/cb_waarbij.png,0,,,,,,,,,,,,,,,,,,,,,,
,,,,,00069,2023-10-14_19h52.50.355,vbt_B2_day4,2022.2.4,Win32,143.9884809,,,,,,down,0,3.5987,,0.232638889,-0.019444444,1,0,0,0,84,84,153,1,vervoer,images/br_vervoer.png,images/cb_vervoer.png,0,,,,,,,,,,,,,,,,,,,,,,
,,,,,00069,2023-10-14_19h52.50.355,vbt_B2_day4,2022.2.4,Win32,143.9884809,,,,,,down,0,0.7275,,0.232638889,-0.025694444,1,0,0,0,85,85,141,1,knielen,images/br_knielen.png,images/cb_knielen.png,0,,,,,,,,,,,,,,,,,,,,,,
,,,,,00069,2023-10-14_19h52.50.355,vbt_B2_day4,2022.2.4,Win32,143.9884809,,,,,,down,0,0.7517,,0.232638889,-0.020138889,1,0,0,0,86,86,69,1,waken,images/br_waken.png,images/cb_waken.png,0,,,,,,,,,,,,,,,,,,,,,,
,,,,,00069,2023-10-14_19h52.50.355,vbt_B2_day4,2022.2.4,Win32,143.9884809,,,,,,down,0,2.8987,,0.232638889,-0.038888889,1,0,0,0,87,87,15,1,soda,images/br_soda.png,images/cb_soda.png,0,,,,,,,,,,,,,,,,,,,,,,
,,,,,00069,2023-10-14_19h52.50.355,vbt_B2_day4,2022.2.4,Win32,143.9884809,,,,,,down,0,1.8684,,0.232638889,-0.048611111,1,0,0,0,88,88,110,1,zuster,images/br_zuster.png,images/cb_zuster.png,0,,,,,,,,,,,,,,,,,,,,,,
,,,,,00069,2023-10-14_19h52.50.355,vbt_B2_day4,2022.2.4,Win32,143.9884809,,,,,,down,0,0.3656,,0.232638889,-0.061805556,1,0,0,0,89,89,174,1,stemming,images/br_stemming.png,images/cb_stemming.png,0,,,,,,,,,,,,,,,,,,,,,,
,,,,,00069,2023-10-14_19h52.50.355,vbt_B2_day4,2022.2.4,Win32,143.9884809,,,,,,down,0,1.2271,,0.232638889,-0.072222222,1,0,0,0,90,90,85,1,heilig,images/br_heilig.png,images/cb_heilig.png,0,,,,,,,,,,,,,,,,,,,,,,
,,,,,00069,2023-10-14_19h52.50.355,vbt_B2_day4,2022.2.4,Win32,143.9884809,,,,,,down,0,2.4707,,0.232638889,-0.078472222,1,0,0,0,91,91,84,1,lokken,images/br_lokken.png,images/cb_lokken.png,0,,,,,,,,,,,,,,,,,,,,,,
,,,,,00069,2023-10-14_19h52.50.355,vbt_B2_day4,2022.2.4,Win32,143.9884809,,,,,,down,0,0.3082,,0.232638889,-0.073611111,1,0,0,0,92,92,9,1,hier,images/br_hier.png,images/cb_hier.png,0,,,,,,,,,,,,,,,,,,,,,,
,,,,,00069,2023-10-14_19h52.50.355,vbt_B2_day4,2022.2.4,Win32,143.9884809,,,,,,down,0,1.806,,0.232638889,-0.071527778,1,0,0,0,93,93,122,1,waarvan,images/br_waarvan.png,images/cb_waarvan.png,0,,,,,,,,,,,,,,,,,,,,,,
,,,,,00069,2023-10-14_19h52.50.355,vbt_B2_day4,2022.2.4,Win32,143.9884809,,,,,,down,0,8.4991,,0.232638889,-0.072222222,1,0,0,0,94,94,155,1,gerucht,images/br_gerucht.png,images/cb_gerucht.png,0,,,,,,,,,,,,,,,,,,,,,,
,,,,,00069,2023-10-14_19h52.50.355,vbt_B2_day4,2022.2.4,Win32,143.9884809,,,,,,down,0,0.1017,,0.232638889,-0.063888889,1,0,0,0,95,95,101,1,staren,images/br_staren.png,images/cb_staren.png,0,,,,,,,,,,,,,,,,,,,,,,
,,,,,00069,2023-10-14_19h52.50.355,vbt_B2_day4,2022.2.4,Win32,143.9884809,,,,,,down,0,0.8163,,0.232638889,-0.070833333,1,0,0,0,96,96,157,1,uitlaat,images/br_uitlaat.png,images/cb_uitlaat.png,0,,,,,,,,,,,,,,,,,,,,,,
,,,,,00069,2023-10-14_19h52.50.355,vbt_B2_day4,2022.2.4,Win32,143.9884809,,,,,,down,0,0.2095,,0.232638889,-0.072222222,1,0,0,0,97,97,45,1,piste,images/br_piste.png,images/cb_piste.png,0,,,,,,,,,,,,,,,,,,,,,,
,,,,,00069,2023-10-14_19h52.50.355,vbt_B2_day4,2022.2.4,Win32,143.9884809,,,,,,down,0,0.3078,,0.232638889,-0.06875,1,0,0,0,98,98,42,1,bleek,images/br_bleek.png,images/cb_bleek.png,0,,,,,,,,,,,,,,,,,,,,,,
,,,,,00069,2023-10-14_19h52.50.355,vbt_B2_day4,2022.2.4,Win32,143.9884809,,,,,,down,0,0.1361,,0.232638889,-0.06875,1,0,0,0,99,99,49,1,laken,images/br_laken.png,images/cb_laken.png,0,,,,,,,,,,,,,,,,,,,,,,
,,,,,00069,2023-10-14_19h52.50.355,vbt_B2_day4,2022.2.4,Win32,143.9884809,,,,,,down,0,0.2888,,0.232638889,-0.06875,1,0,0,0,100,100,79,1,nodig,images/br_nodig.png,images/cb_nodig.png,0,,,,,,,,,,,,,,,,,,,,,,
,,,,,00069,2023-10-14_19h52.50.355,vbt_B2_day4,2022.2.4,Win32,143.9884809,,,,,,down,0,0.2416,,0.232638889,-0.06875,1,0,0,0,101,101,2,1,jaar,images/br_jaar.png,images/cb_jaar.png,0,,,,,,,,,,,,,,,,,,,,,,
,,,,,00069,2023-10-14_19h52.50.355,vbt_B2_day4,2022.2.4,Win32,143.9884809,,,,,,down,0,2.6884,,0.232638889,-0.06875,1,0,0,0,102,102,152,1,afnemen,images/br_afnemen.png,images/cb_afnemen.png,0,,,,,,,,,,,,,,,,,,,,,,
,,,,,00069,2023-10-14_19h52.50.355,vbt_B2_day4,2022.2.4,Win32,143.9884809,,,,,,down,0,1.1353,,0.232638889,-0.06875,1,0,0,0,103,103,133,1,seizoen,images/br_seizoen.png,images/cb_seizoen.png,0,,,,,,,,,,,,,,,,,,,,,,
,,,,,00069,2023-10-14_19h52.50.355,vbt_B2_day4,2022.2.4,Win32,143.9884809,,,,,,down,0,0.1987,,0.232638889,-0.06875,1,0,0,0,104,104,112,1,lukken,images/br_lukken.png,images/cb_lukken.png,0,,,,,,,,,,,,,,,,,,,,,,
,,,,,00069,2023-10-14_19h52.50.355,vbt_B2_day4,2022.2.4,Win32,143.9884809,,,,,,down,0,1.2342,,0.232638889,-0.071527778,1,0,0,0,105,105,114,1,vullen,images/br_vullen.png,images/cb_vullen.png,0,,,,,,,,,,,,,,,,,,,,,,
,,,,,00069,2023-10-14_19h52.50.355,vbt_B2_day4,2022.2.4,Win32,143.9884809,,,,,,down,0,0.2119,,0.232638889,-0.071527778,1,0,0,0,106,106,13,1,kaal,images/br_kaal.png,images/cb_kaal.png,0,,,,,,,,,,,,,,,,,,,,,,
,,,,,00069,2023-10-14_19h52.50.355,vbt_B2_day4,2022.2.4,Win32,143.9884809,,,,,,down,0,0.6046,,0.232638889,-0.071527778,1,0,0,0,107,107,169,1,oprotten,images/br_oprotten.png,images/cb_oprotten.png,0,,,,,,,,,,,,,,,,,,,,,,
,,,,,00069,2023-10-14_19h52.50.355,vbt_B2_day4,2022.2.4,Win32,143.9884809,,,,,,down,0,0.1903,,0.232638889,-0.071527778,1,0,0,0,108,108,12,1,kust,images/br_kust.png,images/cb_kust.png,0,,,,,,,,,,,,,,,,,,,,,,
,,,,,00069,2023-10-14_19h52.50.355,vbt_B2_day4,2022.2.4,Win32,143.9884809,,,,,,down,0,0.2295,,0.232638889,-0.071527778,1,0,0,0,109,109,0,1,slak,images/br_slak.png,images/cb_slak.png,0,,,,,,,,,,,,,,,,,,,,,,
,,,,,00069,2023-10-14_19h52.50.355,vbt_B2_day4,2022.2.4,Win32,143.9884809,,,,,,down,0,8.7967,,0.232638889,-0.071527778,1,0,0,0,110,110,166,1,strikken,images/br_strikken.png,images/cb_strikken.png,0,,,,,,,,,,,,,,,,,,,,,,
,,,,,00069,2023-10-14_19h52.50.355,vbt_B2_day4,2022.2.4,Win32,143.9884809,,,,,,down,0,1.7089,,0.232638889,-0.071527778,1,0,0,0,111,111,59,1,kring,images/br_kring.png,images/cb_kring.png,0,,,,,,,,,,,,,,,,,,,,,,
,,,,,00069,2023-10-14_19h52.50.355,vbt_B2_day4,2022.2.4,Win32,143.9884809,,,,,,down,0,6.929,,0.232638889,-0.071527778,1,0,0,0,112,112,183,1,getuigen,images/br_getuigen.png,images/cb_getuigen.png,0,,,,,,,,,,,,,,,,,,,,,,
,,,,,00069,2023-10-14_19h52.50.355,vbt_B2_day4,2022.2.4,Win32,143.9884809,,,,,,down,0,3.6058,,0.216666667,-0.065277778,1,0,0,0,113,113,44,1,flits,images/br_flits.png,images/cb_flits.png,0,,,,,,,,,,,,,,,,,,,,,,
,,,,,00069,2023-10-14_19h52.50.355,vbt_B2_day4,2022.2.4,Win32,143.9884809,,,,,,down,0,4.0842,,0.284027778,-0.065277778,1,0,0,0,114,114,107,1,maling,images/br_maling.png,images/cb_maling.png,1,maling,,,,,,,,,,,,,,,,,,,,,
,,,,,00069,2023-10-14_19h52.50.355,vbt_B2_day4,2022.2.4,Win32,143.9884809,,,,,,down,0,1.0995,,0.284027778,-0.065277778,1,0,0,0,115,115,62,1,knaap,images/br_knaap.png,images/cb_knaap.png,0,,,,,,,,,,,,,,,,,,,,,,
,,,,,00069,2023-10-14_19h52.50.355,vbt_B2_day4,2022.2.4,Win32,143.9884809,,,,,,down,0,2.44,,0.284027778,-0.065277778,1,0,0,0,116,116,100,1,geduld,images/br_geduld.png,images/cb_geduld.png,0,,,,,,,,,,,,,,,,,,,,,,
,,,,,00069,2023-10-14_19h52.50.355,vbt_B2_day4,2022.2.4,Win32,143.9884809,,,,,,down,0,1.6879,,0.277777778,-0.131944444,1,0,0,0,117,117,60,1,jasje,images/br_jasje.png,images/cb_jasje.png,0,,,,,,,,,,,,,,,,,,,,,,
,,,,,00069,2023-10-14_19h52.50.355,vbt_B2_day4,2022.2.4,Win32,143.9884809,,,,,,down,0,2.9382,,0.26875,-0.150694444,1,0,0,0,118,118,8,1,knie,images/br_knie.png,images/cb_knie.png,0,,,,,,,,,,,,,,,,,,,,,,
,,,,,00069,2023-10-14_19h52.50.355,vbt_B2_day4,2022.2.4,Win32,143.9884809,,,,,,down,0,2.591,,0.457638889,-0.148611111,1,0,0,0,119,119,27,1,dans,images/br_dans.png,images/cb_dans.png,1,dans,,,,,,,,,,,,,,,,,,,,,
,,,,,00069,2023-10-14_19h52.50.355,vbt_B2_day4,2022.2.4,Win32,143.9884809,,,,,,down,0,0.1798,,0.457638889,-0.148611111,1,0,0,0,120,120,77,1,woede,images/br_woede.png,images/cb_woede.png,0,,,,,,,,,,,,,,,,,,,,,,
,,,,,00069,2023-10-14_19h52.50.355,vbt_B2_day4,2022.2.4,Win32,143.9884809,,,,,,down,0,0.5554,,0.457638889,-0.148611111,1,0,0,0,121,121,103,1,joggen,images/br_joggen.png,images/cb_joggen.png,0,,,,,,,,,,,,,,,,,,,,,,
,,,,,00069,2023-10-14_19h52.50.355,vbt_B2_day4,2022.2.4,Win32,143.9884809,,,,,,down,0,1.4015,,0.457638889,-0.148611111,1,0,0,0,122,122,148,1,smullen,images/br_smullen.png,images/cb_smullen.png,0,,,,,,,,,,,,,,,,,,,,,,
,,,,,00069,2023-10-14_19h52.50.355,vbt_B2_day4,2022.2.4,Win32,143.9884809,,,,,,down,0,0.8942,,0.457638889,-0.142361111,1,0,0,0,123,123,142,1,snuiven,images/br_snuiven.png,images/cb_snuiven.png,0,,,,,,,,,,,,,,,,,,,,,,
,,,,,00069,2023-10-14_19h52.50.355,vbt_B2_day4,2022.2.4,Win32,143.9884809,,,,,,down,0,2.8089,,0.457638889,-0.141666667,1,0,0,0,124,124,140,1,blijven,images/br_blijven.png,images/cb_blijven.png,0,,,,,,,,,,,,,,,,,,,,,,
,,,,,00069,2023-10-14_19h52.50.355,vbt_B2_day4,2022.2.4,Win32,143.9884809,,,,,,down,0,0.1581,,0.457638889,-0.141666667,1,0,0,0,125,125,28,1,stal,images/br_stal.png,images/cb_stal.png,0,,,,,,,,,,,,,,,,,,,,,,
,,,,,00069,2023-10-14_19h52.50.355,vbt_B2_day4,2022.2.4,Win32,143.9884809,,,,,,down,0,1.7483,,0.457638889,-0.141666667,1,0,0,0,126,126,172,1,weigeren,images/br_weigeren.png,images/cb_weigeren.png,0,,,,,,,,,,,,,,,,,,,,,,
,,,,,00069,2023-10-14_19h52.50.355,vbt_B2_day4,2022.2.4,Win32,143.9884809,,,,,,down,0,4.0234,,0.457638889,-0.141666667,1,0,0,0,127,127,185,1,mijnheer,images/br_mijnheer.png,images/cb_mijnheer.png,1,mijnheer,,,,,,,,,,,,,,,,,,,,,
,,,,,00069,2023-10-14_19h52.50.355,vbt_B2_day4,2022.2.4,Win32,143.9884809,,,,,,down,0,3.3481,,0.457638889,-0.141666667,1,0,0,0,128,128,113,1,koppen,images/br_koppen.png,images/cb_koppen.png,0,,,,,,,,,,,,,,,,,,,,,,
,,,,,00069,2023-10-14_19h52.50.355,vbt_B2_day4,2022.2.4,Win32,143.9884809,,,,,,down,0,0.0697,,0.457638889,-0.141666667,1,0,0,0,129,129,150,1,gegeven,images/br_gegeven.png,images/cb_gegeven.png,0,,,,,,,,,,,,,,,,,,,,,,
,,,,,00069,2023-10-14_19h52.50.355,vbt_B2_day4,2022.2.4,Win32,143.9884809,,,,,,down,0,0.9705,,0.457638889,-0.138194444,1,0,0,0,130,130,102,1,legaal,images/br_legaal.png,images/cb_legaal.png,0,,,,,,,,,,,,,,,,,,,,,,
,,,,,00069,2023-10-14_19h52.50.355,vbt_B2_day4,2022.2.4,Win32,143.9884809,,,,,,down,0,1.2571,,0.457638889,-0.138194444,1,0,0,0,131,131,64,1,wegen,images/br_wegen.png,images/cb_wegen.png,1,wegen,,,,,,,,,,,,,,,,,,,,,
,,,,,00069,2023-10-14_19h52.50.355,vbt_B2_day4,2022.2.4,Win32,143.9884809,,,,,,down,0,2.1284,,0.457638889,-0.138194444,1,0,0,0,132,132,23,1,zout,images/br_zout.png,images/cb_zout.png,0,,,,,,,,,,,,,,,,,,,,,,
,,,,,00069,2023-10-14_19h52.50.355,vbt_B2_day4,2022.2.4,Win32,143.9884809,,,,,,down,0,1.1062,,0.457638889,-0.138194444,1,0,0,0,133,133,131,1,opzicht,images/br_opzicht.png,images/cb_opzicht.png,0,,,,,,,,,,,,,,,,,,,,,,
,,,,,00069,2023-10-14_19h52.50.355,vbt_B2_day4,2022.2.4,Win32,143.9884809,,,,,,down,0,4.1955,,0.453472222,-0.125694444,1,0,0,0,134,134,63,1,flirt,images/br_flirt.png,images/cb_flirt.png,0,,,,,,,,,,,,,,,,,,,,,,
,,,,,00069,2023-10-14_19h52.50.355,vbt_B2_day4,2022.2.4,Win32,143.9884809,,,,,,down,0,6.8096,,0.384722222,-0.102777778,1,0,0,0,135,135,193,1,weeshuis,images/br_weeshuis.png,images/cb_weeshuis.png,0,,,,,,,,,,,,,,,,,,,,,,
,,,,,00069,2023-10-14_19h52.50.355,vbt_B2_day4,2022.2.4,Win32,143.9884809,,,,,,down,0,1.3294,,0.383333333,-0.102777778,1,0,0,0,136,136,21,1,mist,images/br_mist.png,images/cb_mist.png,0,,,,,,,,,,,,,,,,,,,,,,
,,,,,00069,2023-10-14_19h52.50.355,vbt_B2_day4,2022.2.4,Win32,143.9884809,,,,,,down,0,1.4734,,0.383333333,-0.102777778,1,0,0,0,137,137,121,1,twijfel,images/br_twijfel.png,images/cb_twijfel.png,0,,,,,,,,,,,,,,,,,,,,,,
,,,,,00069,2023-10-14_19h52.50.355,vbt_B2_day4,2022.2.4,Win32,143.9884809,,,,,,down,0,0.6048,,0.38125,-0.104166667,1,0,0,0,138,138,96,1,slagen,images/br_slagen.png,images/cb_slagen.png,0,,,,,,,,,,,,,,,,,,,,,,
,,,,,00069,2023-10-14_19h52.50.355,vbt_B2_day4,2022.2.4,Win32,143.9884809,,,,,,down,0,5.1956,,0.369444444,-0.082638889,1,0,0,0,139,139,164,1,anarchie,images/br_anarchie.png,images/cb_anarchie.png,0,,,,,,,,,,,,,,,,,,,,,,
,,,,,00069,2023-10-14_19h52.50.355,vbt_B2_day4,2022.2.4,Win32,143.9884809,,,,,,down,0,6.2628,,0.365277778,-0.061111111,1,0,0,0,140,140,138,1,akkoord,images/br_akkoord.png,images/cb_akkoord.png,0,,,,,,,,,,,,,,,,,,,,,,
,,,,,00069,2023-10-14_19h52.50.355,vbt_B2_day4,2022.2.4,Win32,143.9884809,,,,,,down,0,0.7222,,0.352083333,-0.057638889,1,0,0,0,141,141,115,1,kleren,images/br_kleren.png,images/cb_kleren.png,0,,,,,,,,,,,,,,,,,,,,,,
,,,,,00069,2023-10-14_19h52.50.355,vbt_B2_day4,2022.2.4,Win32,143.9884809,,,,,,down,0,1.0467,,0.351388889,-0.052777778,1,0,0,0,142,142,43,1,klauw,images/br_klauw.png,images/cb_klauw.png,0,,,,,,,,,,,,,,,,,,,,,,
,,,,,00069,2023-10-14_19h52.50.355,vbt_B2_day4,2022.2.4,Win32,143.9884809,,,,,,down,0,0.0679,,0.381944444,-0.086111111,1,0,0,0,143,143,78,1,leren,images/br_leren.png,images/cb_leren.png,0,,,,,,,,,,,,,,,,,,,,,,
,,,,,00069,2023-10-14_19h52.50.355,vbt_B2_day4,2022.2.4,Win32,143.9884809,,,,,,down,0,0.9818,,0.381944444,-0.086111111,1,0,0,0,144,144,161,1,attentie,images/br_attentie.png,images/cb_attentie.png,0,,,,,,,,,,,,,,,,,,,,,,
,,,,,00069,2023-10-14_19h52.50.355,vbt_B2_day4,2022.2.4,Win32,143.9884809,,,,,,down,0,5.4967,,0.38125,-0.113888889,1,0,0,0,145,145,111,1,ticket,images/br_ticket.png,images/cb_ticket.png,0,,,,,,,,,,,,,,,,,,,,,,
,,,,,00069,2023-10-14_19h52.50.355,vbt_B2_day4,2022.2.4,Win32,143.9884809,,,,,,down,0,0.4531,,0.518055556,0.000694444,1,0,0,0,146,146,126,1,kasteel,images/br_kasteel.png,images/cb_kasteel.png,0,,,,,,,,,,,,,,,,,,,,,,
,,,,,00069,2023-10-14_19h52.50.355,vbt_B2_day4,2022.2.4,Win32,143.9884809,,,,,,down,0,3.5075,,0.49375,-0.168055556,1,0,0,0,147,147,120,1,klimmen,images/br_klimmen.png,images/cb_klimmen.png,0,,,,,,,,,,,,,,,,,,,,,,
,,,,,00069,2023-10-14_19h52.50.355,vbt_B2_day4,2022.2.4,Win32,143.9884809,,,,,,down,0,2.9033,,0.49375,-0.168055556,1,0,0,0,148,148,80,1,kanjer,images/br_kanjer.png,images/cb_kanjer.png,0,,,,,,,,,,,,,,,,,,,,,,
,,,,,00069,2023-10-14_19h52.50.355,vbt_B2_day4,2022.2.4,Win32,143.9884809,,,,,,down,0,18.4185,,0.49375,-0.168055556,1,0,0,0,149,149,176,1,techniek,images/br_techniek.png,images/cb_techniek.png,0,,,,,,,,,,,,,,,,,,,,,,
,,,,,00069,2023-10-14_19h52.50.355,vbt_B2_day4,2022.2.4,Win32,143.9884809,,,,,,down,0,4.672,,0.49375,-0.168055556,1,0,0,0,150,150,92,1,geheim,images/br_geheim.png,images/cb_geheim.png,0,,,,,,,,,,,,,,,,,,,,,,
,,,,,00069,2023-10-14_19h52.50.355,vbt_B2_day4,2022.2.4,Win32,143.9884809,,,,,,down,0,0.3541,,0.49375,-0.168055556,1,0,0,0,151,151,74,1,graaf,images/br_graaf.png,images/cb_graaf.png,0,,,,,,,,,,,,,,,,,,,,,,
,,,,,00069,2023-10-14_19h52.50.355,vbt_B2_day4,2022.2.4,Win32,143.9884809,,,,,,down,0,0.3977,,0.49375,-0.170833333,1,0,0,0,152,152,22,1,stof,images/br_stof.png,images/cb_stof.png,0,,,,,,,,,,,,,,,,,,,,,,
,,,,,00069,2023-10-14_19h52.50.355,vbt_B2_day4,2022.2.4,Win32,143.9884809,,,,,,down,0,3.091,,0.49375,-0.170833333,1,0,0,0,153,153,165,1,feestdag,images/br_feestdag.png,images/cb_feestdag.png,0,,,,,,,,,,,,,,,,,,,,,,
,,,,,00069,2023-10-14_19h52.50.355,vbt_B2_day4,2022.2.4,Win32,143.9884809,,,,,,down,0,4.8482,,0.488888889,-0.174305556,1,0,0,0,154,154,147,1,komisch,images/br_komisch.png,images/cb_komisch.png,1,komisch,,,,,,,,,,,,,,,,,,,,,
,,,,,00069,2023-10-14_19h52.50.355,vbt_B2_day4,2022.2.4,Win32,143.9884809,,,,,,down,0,5.7552,,0.488888889,-0.174305556,1,0,0,0,155,155,98,1,kreeft,images/br_kreeft.png,images/cb_kreeft.png,0,,,,,,,,,,,,,,,,,,,,,,
,,,,,00069,2023-10-14_19h52.50.355,vbt_B2_day4,2022.2.4,Win32,143.9884809,,,,,,down,0,0.2876,,0.493055556,-0.177083333,1,0,0,0,156,156,31,1,poes,images/br_poes.png,images/cb_poes.png,0,,,,,,,,,,,,,,,,,,,,,,
,,,,,00069,2023-10-14_19h52.50.355,vbt_B2_day4,2022.2.4,Win32,143.9884809,,,,,,down,0,0.9579,,0.495833333,-0.179166667,1,0,0,0,157,157,18,1,blik,images/br_blik.png,images/cb_blik.png,0,,,,,,,,,,,,,,,,,,,,,,
,,,,,00069,2023-10-14_19h52.50.355,vbt_B2_day4,2022.2.4,Win32,143.9884809,,,,,,down,0,0.6426,,0.495833333,-0.179166667,1,0,0,0,158,158,36,1,vuur,images/br_vuur.png,images/cb_vuur.png,0,,,,,,,,,,,,,,,,,,,,,,
,,,,,00069,2023-10-14_19h52.50.355,vbt_B2_day4,2022.2.4,Win32,143.9884809,,,,,,down,0,5.7477,,0.495833333,-0.179166667,1,0,0,0,159,159,4,1,moes,images/br_moes.png,images/cb_moes.png,0,,,,,,,,,,,,,,,,,,,,,,
,,,,,00069,2023-10-14_19h52.50.355,vbt_B2_day4,2022.2.4,Win32,143.9884809,,,,,,down,0,16.0608,,0.468055556,-0.1,1,0,0,0,160,160,108,1,excuus,images/br_excuus.png,images/cb_excuus.png,0,,,,,,,,,,,,,,,,,,,,,,
,,,,,00069,2023-10-14_19h52.50.355,vbt_B2_day4,2022.2.4,Win32,143.9884809,,,,,,down,0,0.3132,,0.468055556,-0.103472222,1,0,0,0,161,161,16,1,ziek,images/br_ziek.png,images/cb_ziek.png,0,,,,,,,,,,,,,,,,,,,,,,
,,,,,00069,2023-10-14_19h52.50.355,vbt_B2_day4,2022.2.4,Win32,143.9884809,,,,,,down,0,0.662,,0.468055556,-0.104166667,1,0,0,0,162,162,14,1,rijp,images/br_rijp.png,images/cb_rijp.png,0,,,,,,,,,,,,,,,,,,,,,,
,,,,,00069,2023-10-14_19h52.50.355,vbt_B2_day4,2022.2.4,Win32,143.9884809,,,,,,down,0,0.1599,,0.468055556,-0.104166667,1,0,0,0,163,163,46,1,jagen,images/br_jagen.png,images/cb_jagen.png,0,,,,,,,,,,,,,,,,,,,,,,
,,,,,00069,2023-10-14_19h52.50.355,vbt_B2_day4,2022.2.4,Win32,143.9884809,,,,,,down,0,0.2262,,0.484027778,-0.024305556,1,0,0,0,164,164,170,1,schatten,images/br_schatten.png,images/cb_schatten.png,0,,,,,,,,,,,,,,,,,,,,,,
,,,,,00069,2023-10-14_19h52.50.355,vbt_B2_day4,2022.2.4,Win32,143.9884809,,,,,,down,0,1.0357,,0.484027778,-0.024305556,1,0,0,0,165,165,25,1,plek,images/br_plek.png,images/cb_plek.png,1,plek,,,,,,,,,,,,,,,,,,,,,
,,,,,00069,2023-10-14_19h52.50.355,vbt_B2_day4,2022.2.4,Win32,143.9884809,,,,,,down,0,0.5305,,0.477083333,-0.050694444,1,0,0,0,166,166,70,1,ijdel,images/br_ijdel.png,images/cb_ijdel.png,0,,,,,,,,,,,,,,,,,,,,,,
,,,,,00069,2023-10-14_19h52.50.355,vbt_B2_day4,2022.2.4,Win32,143.9884809,,,,,,down,0,0.046,,0.422916667,-0.132638889,1,0,0,0,167,167,154,1,aflopen,images/br_aflopen.png,images/cb_aflopen.png,0,,,,,,,,,,,,,,,,,,,,,,
,,,,,00069,2023-10-14_19h52.50.355,vbt_B2_day4,2022.2.4,Win32,143.9884809,,,,,,down,0,6.7632,,0.422222222,-0.138888889,1,0,0,0,168,168,99,1,koffie,images/br_koffie.png,images/cb_koffie.png,0,,,,,,,,,,,,,,,,,,,,,,
,,,,,00069,2023-10-14_19h52.50.355,vbt_B2_day4,2022.2.4,Win32,143.9884809,,,,,,down,0,0.3863,,0.422222222,-0.139583333,1,0,0,0,169,169,19,1,geit,images/br_geit.png,images/cb_geit.png,0,,,,,,,,,,,,,,,,,,,,,,
,,,,,00069,2023-10-14_19h52.50.355,vbt_B2_day4,2022.2.4,Win32,143.9884809,,,,,,down,0,0.1462,,0.417361111,-0.213888889,1,0,0,0,170,170,132,1,grappen,images/br_grappen.png,images/cb_grappen.png,0,,,,,,,,,,,,,,,,,,,,,,
,,,,,00069,2023-10-14_19h52.50.355,vbt_B2_day4,2022.2.4,Win32,143.9884809,,,,,,down,0,7.9282,,0.411111111,-0.221527778,1,0,0,0,171,171,199,1,beseffen,images/br_beseffen.png,images/cb_beseffen.png,0,,,,,,,,,,,,,,,,,,,,,,
,,,,,00069,2023-10-14_19h52.50.355,vbt_B2_day4,2022.2.4,Win32,143.9884809,,,,,,down,0,20.1993,,0.221527778,-0.119444444,1,0,0,0,172,172,156,1,rechten,images/br_rechten.png,images/cb_rechten.png,0,,,,,,,,,,,,,,,,,,,,,,
,,,,,00069,2023-10-14_19h52.50.355,vbt_B2_day4,2022.2.4,Win32,143.9884809,,,,,,down,0,1.1068,,0.301388889,-0.213888889,1,0,0,0,173,173,55,1,praat,images/br_praat.png,images/cb_praat.png,0,,,,,,,,,,,,,,,,,,,,,,
,,,,,00069,2023-10-14_19h52.50.355,vbt_B2_day4,2022.2.4,Win32,143.9884809,,,,,,down,0,0.028,,0.304166667,-0.273611111,1,0,0,0,174,174,10,1,leek,images/br_leek.png,images/cb_leek.png,0,,,,,,,,,,,,,,,,,,,,,,
,,,,,00069,2023-10-14_19h52.50.355,vbt_B2_day4,2022.2.4,Win32,143.9884809,,,,,,down,0,0.3204,,0.316666667,-0.279166667,1,0,0,0,175,175,41,1,maken,images/br_maken.png,images/cb_maken.png,0,,,,,,,,,,,,,,,,,,,,,,
,,,,,00069,2023-10-14_19h52.50.355,vbt_B2_day4,2022.2.4,Win32,143.9884809,,,,,,down,0,4.7196,,0.316666667,-0.279166667,1,0,0,0,176,176,105,1,wijlen,images/br_wijlen.png,images/cb_wijlen.png,1,wijlen,,,,,,,,,,,,,,,,,,,,,
,,,,,00069,2023-10-14_19h52.50.355,vbt_B2_day4,2022.2.4,Win32,143.9884809,,,,,,down,0,0.1668,,0.316666667,-0.279166667,1,0,0,0,177,177,6,1,diep,images/br_diep.png,images/cb_diep.png,0,,,,,,,,,,,,,,,,,,,,,,
,,,,,00069,2023-10-14_19h52.50.355,vbt_B2_day4,2022.2.4,Win32,143.9884809,,,,,,down,0,0.0696,,0.434027778,-0.253472222,1,0,0,0,178,178,5,1,blad,images/br_blad.png,images/cb_blad.png,0,,,,,,,,,,,,,,,,,,,,,,
,,,,,00069,2023-10-14_19h52.50.355,vbt_B2_day4,2022.2.4,Win32,143.9884809,,,,,,down,0,10.7383,,0.43125,-0.111111111,1,0,0,0,179,179,94,1,oceaan,images/br_oceaan.png,images/cb_oceaan.png,0,,,,,,,,,,,,,,,,,,,,,,
,,,,,00069,2023-10-14_19h52.50.355,vbt_B2_day4,2022.2.4,Win32,143.9884809,,,,,,down,0,3.7676,,0.315972222,-0.224305556,1,0,0,0,180,180,160,1,daarheen,images/br_daarheen.png,images/cb_daarheen.png,0,,,,,,,,,,,,,,,,,,,,,,
,,,,,00069,2023-10-14_19h52.50.355,vbt_B2_day4,2022.2.4,Win32,143.9884809,,,,,,down,0,0.4169,,0.324305556,-0.216666667,1,0,0,0,181,181,86,1,woning,images/br_woning.png,images/cb_woning.png,0,,,,,,,,,,,,,,,,,,,,,,
,,,,,00069,2023-10-14_19h52.50.355,vbt_B2_day4,2022.2.4,Win32,143.9884809,,,,,,down,0,4.1568,,0.320138889,-0.209027778,1,0,0,0,182,182,194,1,driemaal,images/br_driemaal.png,images/cb_driemaal.png,0,,,,,,,,,,,,,,,,,,,,,,
,,,,,00069,2023-10-14_19h52.50.355,vbt_B2_day4,2022.2.4,Win32,143.9884809,,,,,,down,0,3.4821,,0.320138889,-0.210416667,1,0,0,0,183,183,135,1,gedicht,images/br_gedicht.png,images/cb_gedicht.png,0,,,,,,,,,,,,,,,,,,,,,,
,,,,,00069,2023-10-14_19h52.50.355,vbt_B2_day4,2022.2.4,Win32,143.9884809,,,,,,down,0,4.5733,,0.320138889,-0.210416667,1,0,0,0,184,184,7,1,geld,images/br_geld.png,images/cb_geld.png,0,,,,,,,,,,,,,,,,,,,,,,
,,,,,00069,2023-10-14_19h52.50.355,vbt_B2_day4,2022.2.4,Win32,143.9884809,,,,,,down,0,1.5047,,0.320138889,-0.210416667,1,0,0,0,185,185,192,1,schaamte,images/br_schaamte.png,images/cb_schaamte.png,0,,,,,,,,,,,,,,,,,,,,,,
,,,,,00069,2023-10-14_19h52.50.355,vbt_B2_day4,2022.2.4,Win32,143.9884809,,,,,,down,0,0.5922,,0.320138889,-0.210416667,1,0,0,0,186,186,177,1,maaltijd,images/br_maaltijd.png,images/cb_maaltijd.png,0,,,,,,,,,,,,,,,,,,,,,,
,,,,,00069,2023-10-14_19h52.50.355,vbt_B2_day4,2022.2.4,Win32,143.9884809,,,,,,down,0,1.1256,,0.320138889,-0.210416667,1,0,0,0,187,187,30,1,uien,images/br_uien.png,images/cb_uien.png,0,,,,,,,,,,,,,,,,,,,,,,
,,,,,00069,2023-10-14_19h52.50.355,vbt_B2_day4,2022.2.4,Win32,143.9884809,,,,,,down,0,5.4082,,0.320138889,-0.210416667,1,0,0,0,188,188,130,1,keihard,images/br_keihard.png,images/cb_keihard.png,0,,,,,,,,,,,,,,,,,,,,,,
,,,,,00069,2023-10-14_19h52.50.355,vbt_B2_day4,2022.2.4,Win32,143.9884809,,,,,,down,0,3.9157,,0.320138889,-0.210416667,1,0,0,0,189,189,24,1,jurk,images/br_jurk.png,images/cb_jurk.png,1,jurk,,,,,,,,,,,,,,,,,,,,,
,,,,,00069,2023-10-14_19h52.50.355,vbt_B2_day4,2022.2.4,Win32,143.9884809,,,,,,down,0,5.4457,,0.320138889,-0.210416667,1,0,0,0,190,190,173,1,apparaat,images/br_apparaat.png,images/cb_apparaat.png,0,,,,,,,,,,,,,,,,,,,,,,
,,,,,00069,2023-10-14_19h52.50.355,vbt_B2_day4,2022.2.4,Win32,143.9884809,,,,,,down,0,4.1236,,0.320138889,-0.210416667,1,0,0,0,191,191,187,1,opkijken,images/br_opkijken.png,images/cb_opkijken.png,1,opkijken,,,,,,,,,,,,,,,,,,,,,
,,,,,00069,2023-10-14_19h52.50.355,vbt_B2_day4,2022.2.4,Win32,143.9884809,,,,,,down,0,8.1585,,0.320138889,-0.210416667,1,0,0,0,192,192,175,1,heengaan,images/br_heengaan.png,images/cb_heengaan.png,0,,,,,,,,,,,,,,,,,,,,,,
,,,,,00069,2023-10-14_19h52.50.355,vbt_B2_day4,2022.2.4,Win32,143.9884809,,,,,,down,0,37.5366,,0.320138889,-0.210416667,1,0,0,0,193,193,56,1,traag,images/br_traag.png,images/cb_traag.png,0,,,,,,,,,,,,,,,,,,,,,,
,,,,,00069,2023-10-14_19h52.50.355,vbt_B2_day4,2022.2.4,Win32,143.9884809,,,,,,down,0,7.5206,,0.320138889,-0.210416667,1,0,0,0,194,194,168,1,bisschop,images/br_bisschop.png,images/cb_bisschop.png,0,,,,,,,,,,,,,,,,,,,,,,
,,,,,00069,2023-10-14_19h52.50.355,vbt_B2_day4,2022.2.4,Win32,143.9884809,,,,,,down,0,0.411,,0.320138889,-0.210416667,1,0,0,0,195,195,40,1,schep,images/br_schep.png,images/cb_schep.png,0,,,,,,,,,,,,,,,,,,,,,,
,,,,,00069,2023-10-14_19h52.50.355,vbt_B2_day4,2022.2.4,Win32,143.9884809,,,,,,down,0,3.4747,,0.320138889,-0.210416667,1,0,0,0,196,196,29,1,baas,images/br_baas.png,images/cb_baas.png,0,,,,,,,,,,,,,,,,,,,,,,
,,,,,00069,2023-10-14_19h52.50.355,vbt_B2_day4,2022.2.4,Win32,143.9884809,,,,,,down,0,3.1475,,0.320138889,-0.210416667,1,0,0,0,197,197,137,1,trekker,images/br_trekker.png,images/cb_trekker.png,0,,,,,,,,,,,,,,,,,,,,,,
,,,,,00069,2023-10-14_19h52.50.355,vbt_B2_day4,2022.2.4,Win32,143.9884809,,,,,,down,0,1.0145,,0.320138889,-0.210416667,1,0,0,0,198,198,95,1,vreten,images/br_vreten.png,images/cb_vreten.png,0,,,,,,,,,,,,,,,,,,,,,,
,,,,,00069,2023-10-14_19h52.50.355,vbt_B2_day4,2022.2.4,Win32,143.9884809,,,,,,down,0,14.1414,,0.320138889,-0.210416667,1,0,0,0,199,199,82,1,muziek,images/br_muziek.png,images/cb_muziek.png,0,,,,,,,,,,,,,,,,,,,,,,
,,,,,00069,2023-10-14_19h52.50.355,vbt_B2_day4,2022.2.4,Win32,143.9884809,,,,,,,,,,,,,,,,,,,,,,,,,0.263888889,-0.260416667,1,0,0,,,,,,,,,,,,,,,,
,,,,,00069,2023-10-14_19h52.50.355,vbt_B2_day4,2022.2.4,Win32,143.9884809,,,,,,,,,,,,,,,,,,,,,,,,,,,,,,0.329861111,-0.210416667,1,0,0,,,,,,,,,,,
,,,,,00069,2023-10-14_19h52.50.355,vbt_B2_day4,2022.2.4,Win32,143.9884809,,,,,,,,,,,,,,,,,,,,geheim,images/br_geheim.png,images/cb_geheim.png,,geheim,,,,,,,,,,,0.31875,-0.163194444,1,0,0,geheim,0,0,0,8,1
,,,,,00069,2023-10-14_19h52.50.355,vbt_B2_day4,2022.2.4,Win32,143.9884809,,,,,,,,,,,,,,,,,,,,baron,images/br_baron.png,images/cb_baron.png,,baron,,,,,,,,,,,0.31875,-0.163194444,1,0,0,baron,0,1,1,5,1
,,,,,00069,2023-10-14_19h52.50.355,vbt_B2_day4,2022.2.4,Win32,143.9884809,,,,,,,,,,,,,,,,,,,,gaan,images/br_gaan.png,images/cb_gaan.png,,gaan,,,,,,,,,,,0.31875,-0.163194444,1,0,0,gaan,0,2,2,41,1
,,,,,00069,2023-10-14_19h52.50.355,vbt_B2_day4,2022.2.4,Win32,143.9884809,,,,,,,,,,,,,,,,,,,,tucket,images/br_tucket.png,images/cb_tucket.png,,tucket,,,,,,,,,,,0.311805556,-0.163194444,1,0,0,tucket,0,3,3,30,1
,,,,,00069,2023-10-14_19h52.50.355,vbt_B2_day4,2022.2.4,Win32,143.9884809,,,,,,,,,,,,,,,,,,,,apparaat,images/br_apparaat.png,images/cb_apparaat.png,,apparaat,,,,,,,,,,,0.311805556,-0.163194444,1,0,0,apparaat,0,4,4,17,1
,,,,,00069,2023-10-14_19h52.50.355,vbt_B2_day4,2022.2.4,Win32,143.9884809,,,,,,,,,,,,,,,,,,,,paalbaak,images/br_paalbaak.png,images/cb_paalbaak.png,,paalbaak,,,,,,,,,,,0.311805556,-0.163194444,1,0,0,paalbaak,0,5,5,39,1
,,,,,00069,2023-10-14_19h52.50.355,vbt_B2_day4,2022.2.4,Win32,143.9884809,,,,,,,,,,,,,,,,,,,,pittig,images/br_pittig.png,images/cb_pittig.png,,pikkig,,,,,,,,,,,0.311805556,-0.163194444,1,0,0,pikkig,0,6,6,51,1
,,,,,00069,2023-10-14_19h52.50.355,vbt_B2_day4,2022.2.4,Win32,143.9884809,,,,,,,,,,,,,,,,,,,,opruimen,images/br_opruimen.png,images/cb_opruimen.png,,opruimen,,,,,,,,,,,0.311805556,-0.163194444,1,0,0,opruimen,0,7,7,59,1
,,,,,00069,2023-10-14_19h52.50.355,vbt_B2_day4,2022.2.4,Win32,143.9884809,,,,,,,,,,,,,,,,,,,,praat,images/br_praat.png,images/cb_praat.png,,praat,,,,,,,,,,,0.311805556,-0.163194444,1,0,0,praat,0,8,8,7,1
,,,,,00069,2023-10-14_19h52.50.355,vbt_B2_day4,2022.2.4,Win32,143.9884809,,,,,,,,,,,,,,,,,,,,snee,images/br_snee.png,images/cb_snee.png,,snee,,,,,,,,,,,0.311805556,-0.163194444,1,0,0,snee,0,9,9,40,1
,,,,,00069,2023-10-14_19h52.50.355,vbt_B2_day4,2022.2.4,Win32,143.9884809,,,,,,,,,,,,,,,,,,,,opkicht,images/br_opkicht.png,images/cb_opkicht.png,,opkicht,,,,,,,,,,,0.311805556,-0.163194444,1,0,0,opkicht,0,10,10,34,1
,,,,,00069,2023-10-14_19h52.50.355,vbt_B2_day4,2022.2.4,Win32,143.9884809,,,,,,,,,,,,,,,,,,,,grappen,images/br_grappen.png,images/cb_grappen.png,,grappen,,,,,,,,,,,0.311805556,-0.163194444,1,0,0,grappen,0,11,11,12,1
,,,,,00069,2023-10-14_19h52.50.355,vbt_B2_day4,2022.2.4,Win32,143.9884809,,,,,,,,,,,,,,,,,,,,getucht,images/br_getucht.png,images/cb_getucht.png,,getucht,,,,,,,,,,,0.311805556,-0.163194444,1,0,0,getucht,0,12,12,35,1
,,,,,00069,2023-10-14_19h52.50.355,vbt_B2_day4,2022.2.4,Win32,143.9884809,,,,,,,,,,,,,,,,,,,,ezel,images/br_ezel.png,images/cb_ezel.png,,ezel,,,,,,,,,,,0.311805556,-0.163194444,1,0,0,ezel,0,13,13,42,1
,,,,,00069,2023-10-14_19h52.50.355,vbt_B2_day4,2022.2.4,Win32,143.9884809,,,,,,,,,,,,,,,,,,,,gijf,images/br_gijf.png,images/cb_gijf.png,,geif,,,,,,,,,,,0.311805556,-0.163194444,1,0,0,geif,0,14,14,23,1
,,,,,00069,2023-10-14_19h52.50.355,vbt_B2_day4,2022.2.4,Win32,143.9884809,,,,,,,,,,,,,,,,,,,,stemming,images/br_stemming.png,images/cb_stemming.png,,stemming,,,,,,,,,,,0.311805556,-0.163194444,1,0,0,stemming,0,15,15,18,1
,,,,,00069,2023-10-14_19h52.50.355,vbt_B2_day4,2022.2.4,Win32,143.9884809,,,,,,,,,,,,,,,,,,,,mekst,images/br_mekst.png,images/cb_mekst.png,,mekst,,,,,,,,,,,0.311805556,-0.163194444,1,0,0,mekst,0,16,16,27,1
,,,,,00069,2023-10-14_19h52.50.355,vbt_B2_day4,2022.2.4,Win32,143.9884809,,,,,,,,,,,,,,,,,,,,wozing,images/br_wozing.png,images/cb_wozing.png,,wozing,,,,,,,,,,,0.311805556,-0.163194444,1,0,0,wozing,0,17,17,28,1
,,,,,00069,2023-10-14_19h52.50.355,vbt_B2_day4,2022.2.4,Win32,143.9884809,,,,,,,,,,,,,,,,,,,,strok,images/br_strok.png,images/cb_strok.png,,strak,,,,,,,,,,,0.311805556,-0.163194444,1,0,0,strak,0,18,18,25,1
,,,,,00069,2023-10-14_19h52.50.355,vbt_B2_day4,2022.2.4,Win32,143.9884809,,,,,,,,,,,,,,,,,,,,soda,images/br_soda.png,images/cb_soda.png,,soda,,,,,,,,,,,0.311805556,-0.163194444,1,0,0,soda,0,19,19,3,1
,,,,,00069,2023-10-14_19h52.50.355,vbt_B2_day4,2022.2.4,Win32,143.9884809,,,,,,,,,,,,,,,,,,,,noodzaak,images/br_noodzaak.png,images/cb_noodzaak.png,,noodzaak,,,,,,,,,,,0.311805556,-0.163194444,1,0,0,noodzaak,0,20,20,56,1
,,,,,00069,2023-10-14_19h52.50.355,vbt_B2_day4,2022.2.4,Win32,143.9884809,,,,,,,,,,,,,,,,,,,,waarop,images/br_waarop.png,images/cb_waarop.png,,waarop,,,,,,,,,,,0.311805556,-0.163194444,1,0,0,waarop,0,21,21,9,1
,,,,,00069,2023-10-14_19h52.50.355,vbt_B2_day4,2022.2.4,Win32,143.9884809,,,,,,,,,,,,,,,,,,,,drooien,images/br_drooien.png,images/cb_drooien.png,,drooien,,,,,,,,,,,0.311805556,-0.163194444,1,0,0,drooien,0,22,22,32,1
,,,,,00069,2023-10-14_19h52.50.355,vbt_B2_day4,2022.2.4,Win32,143.9884809,,,,,,,,,,,,,,,,,,,,haza,images/br_haza.png,images/cb_haza.png,,haza,,,,,,,,,,,0.311805556,-0.163194444,1,0,0,haza,0,23,23,21,1
,,,,,00069,2023-10-14_19h52.50.355,vbt_B2_day4,2022.2.4,Win32,143.9884809,,,,,,,,,,,,,,,,,,,,midden,images/br_midden.png,images/cb_midden.png,,midden,,,,,,,,,,,0.311805556,-0.163194444,1,0,0,midden,0,24,24,50,1
,,,,,00069,2023-10-14_19h52.50.355,vbt_B2_day4,2022.2.4,Win32,143.9884809,,,,,,,,,,,,,,,,,,,,oceaan,images/br_oceaan.png,images/cb_oceaan.png,,oceaan,,,,,,,,,,,0.311805556,-0.163194444,1,0,0,oceaan,0,25,25,10,1
,,,,,00069,2023-10-14_19h52.50.355,vbt_B2_day4,2022.2.4,Win32,143.9884809,,,,,,,,,,,,,,,,,,,,heengaan,images/br_heengaan.png,images/cb_heengaan.png,,heengaan,,,,,,,,,,,0.311805556,-0.163194444,1,0,0,heengaan,0,26,26,19,1
,,,,,00069,2023-10-14_19h52.50.355,vbt_B2_day4,2022.2.4,Win32,143.9884809,,,,,,,,,,,,,,,,,,,,wagon,images/br_wagon.png,images/cb_wagon.png,,wagon,,,,,,,,,,,0.311805556,-0.163194444,1,0,0,wagon,0,27,27,4,1
,,,,,00069,2023-10-14_19h52.50.355,vbt_B2_day4,2022.2.4,Win32,143.9884809,,,,,,,,,,,,,,,,,,,,fran,images/br_fran.png,images/cb_fran.png,,fran,,,,,,,,,,,0.311805556,-0.163194444,1,0,0,fran,0,28,28,22,1
,,,,,00069,2023-10-14_19h52.50.355,vbt_B2_day4,2022.2.4,Win32,143.9884809,,,,,,,,,,,,,,,,,,,,warel,images/br_warel.png,images/cb_warel.png,,warel,,,,,,,,,,,0.311805556,-0.163194444,1,0,0,warel,0,29,29,26,1
,,,,,00069,2023-10-14_19h52.50.355,vbt_B2_day4,2022.2.4,Win32,143.9884809,,,,,,,,,,,,,,,,,,,,broodje,images/br_broodje.png,images/cb_broodje.png,,broodje,,,,,,,,,,,0.311805556,-0.163194444,1,0,0,broodje,0,30,30,55,1
,,,,,00069,2023-10-14_19h52.50.355,vbt_B2_day4,2022.2.4,Win32,143.9884809,,,,,,,,,,,,,,,,,,,,bisschap,images/br_bisschap.png,images/cb_bisschap.png,,bessef..,,,,,,,,,,,0.311805556,-0.163194444,1,0,0,bessef..,0,31,31,36,1
,,,,,00069,2023-10-14_19h52.50.355,vbt_B2_day4,2022.2.4,Win32,143.9884809,,,,,,,,,,,,,,,,,,,,toevol,images/br_toevol.png,images/cb_toevol.png,,toevol,,,,,,,,,,,0.311805556,-0.163194444,1,0,0,toevol,0,32,32,29,1
,,,,,00069,2023-10-14_19h52.50.355,vbt_B2_day4,2022.2.4,Win32,143.9884809,,,,,,,,,,,,,,,,,,,,bruin,images/br_bruin.png,images/cb_bruin.png,,bruin,,,,,,,,,,,0.311805556,-0.163194444,1,0,0,bruin,0,33,33,45,1
,,,,,00069,2023-10-14_19h52.50.355,vbt_B2_day4,2022.2.4,Win32,143.9884809,,,,,,,,,,,,,,,,,,,,rijp,images/br_rijp.png,images/cb_rijp.png,,.ijp,,,,,,,,,,,0.311805556,-0.163194444,1,0,0,.ijp,0,34,34,2,1
,,,,,00069,2023-10-14_19h52.50.355,vbt_B2_day4,2022.2.4,Win32,143.9884809,,,,,,,,,,,,,,,,,,,,gebog,images/br_gebog.png,images/cb_gebog.png,,be...,,,,,,,,,,,0.311805556,-0.163194444,1,0,0,be...,0,35,35,24,1
,,,,,00069,2023-10-14_19h52.50.355,vbt_B2_day4,2022.2.4,Win32,143.9884809,,,,,,,,,,,,,,,,,,,,dozijn,images/br_dozijn.png,images/cb_dozijn.png,,dozijn,,,,,,,,,,,0.311805556,-0.163194444,1,0,0,dozijn,0,36,36,48,1
,,,,,00069,2023-10-14_19h52.50.355,vbt_B2_day4,2022.2.4,Win32,143.9884809,,,,,,,,,,,,,,,,,,,,schotel,images/br_schotel.png,images/cb_schotel.png,,schotel,,,,,,,,,,,0.311805556,-0.163194444,1,0,0,schotel,0,37,37,52,1
,,,,,00069,2023-10-14_19h52.50.355,vbt_B2_day4,2022.2.4,Win32,143.9884809,,,,,,,,,,,,,,,,,,,,seizoen,images/br_seizoen.png,images/cb_seizoen.png,,seizoen,,,,,,,,,,,0.311805556,-0.163194444,1,0,0,seizoen,0,38,38,13,1
,,,,,00069,2023-10-14_19h52.50.355,vbt_B2_day4,2022.2.4,Win32,143.9884809,,,,,,,,,,,,,,,,,,,,kaal,images/br_kaal.png,images/cb_kaal.png,,kaal,,,,,,,,,,,0.311805556,-0.163194444,1,0,0,kaal,0,39,39,1,1
,,,,,00069,2023-10-14_19h52.50.355,vbt_B2_day4,2022.2.4,Win32,143.9884809,,,,,,,,,,,,,,,,,,,,sulbon,images/br_sulbon.png,images/cb_sulbon.png,,sulbon,,,,,,,,,,,0.311805556,-0.161805556,1,0,0,sulbon,0,40,40,31,1
,,,,,00069,2023-10-14_19h52.50.355,vbt_B2_day4,2022.2.4,Win32,143.9884809,,,,,,,,,,,,,,,,,,,,dalen,images/br_dalen.png,images/cb_dalen.png,,dalen,,,,,,,,,,,0.311805556,-0.161805556,1,0,0,dalen,0,41,41,46,1
,,,,,00069,2023-10-14_19h52.50.355,vbt_B2_day4,2022.2.4,Win32,143.9884809,,,,,,,,,,,,,,,,,,,,zwek,images/br_zwek.png,images/cb_zwek.png,,zwek,,,,,,,,,,,0.31875,-0.163888889,1,0,0,zwek,0,42,42,20,1
,,,,,00069,2023-10-14_19h52.50.355,vbt_B2_day4,2022.2.4,Win32,143.9884809,,,,,,,,,,,,,,,,,,,,vreten,images/br_vreten.png,images/cb_vreten.png,,vreten,,,,,,,,,,,0.31875,-0.163888889,1,0,0,vreten,0,43,43,11,1
,,,,,00069,2023-10-14_19h52.50.355,vbt_B2_day4,2022.2.4,Win32,143.9884809,,,,,,,,,,,,,,,,,,,,zaalrijk,images/br_zaalrijk.png,images/cb_zaalrijk.png,,zaalrijk,,,,,,,,,,,0.31875,-0.163888889,1,0,0,zaalrijk,0,44,44,37,1
,,,,,00069,2023-10-14_19h52.50.355,vbt_B2_day4,2022.2.4,Win32,143.9884809,,,,,,,,,,,,,,,,,,,,geliefd,images/br_geliefd.png,images/cb_geliefd.png,,geliefd,,,,,,,,,,,0.31875,-0.163888889,1,0,0,geliefd,0,45,45,14,1
,,,,,00069,2023-10-14_19h52.50.355,vbt_B2_day4,2022.2.4,Win32,143.9884809,,,,,,,,,,,,,,,,,,,,steen,images/br_steen.png,images/cb_steen.png,,steen,,,,,,,,,,,0.31875,-0.163888889,1,0,0,steen,0,46,46,44,1
,,,,,00069,2023-10-14_19h52.50.355,vbt_B2_day4,2022.2.4,Win32,143.9884809,,,,,,,,,,,,,,,,,,,,lappen,images/br_lappen.png,images/cb_lappen.png,,lappen,,,,,,,,,,,0.31875,-0.163888889,1,0,0,lappen,0,47,47,49,1
,,,,,00069,2023-10-14_19h52.50.355,vbt_B2_day4,2022.2.4,Win32,143.9884809,,,,,,,,,,,,,,,,,,,,gedicht,images/br_gedicht.png,images/cb_gedicht.png,,gedic..,,,,,,,,,,,0.31875,-0.163888889,1,0,0,gedic..,0,48,48,15,1
,,,,,00069,2023-10-14_19h52.50.355,vbt_B2_day4,2022.2.4,Win32,143.9884809,,,,,,,,,,,,,,,,,,,,eerst,images/br_eerst.png,images/cb_eerst.png,,eerst,,,,,,,,,,,0.31875,-0.163888889,1,0,0,eerst,0,49,49,47,1
,,,,,00069,2023-10-14_19h52.50.355,vbt_B2_day4,2022.2.4,Win32,143.9884809,,,,,,,,,,,,,,,,,,,,weigeren,images/br_weigeren.png,images/cb_weigeren.png,,weigeren,,,,,,,,,,,0.31875,-0.163888889,1,0,0,weigeren,0,50,50,16,1
,,,,,00069,2023-10-14_19h52.50.355,vbt_B2_day4,2022.2.4,Win32,143.9884809,,,,,,,,,,,,,,,,,,,,flippen,images/br_flippen.png,images/cb_flippen.png,,flippen,,,,,,,,,,,0.31875,-0.163888889,1,0,0,flippen,0,51,51,54,1
,,,,,00069,2023-10-14_19h52.50.355,vbt_B2_day4,2022.2.4,Win32,143.9884809,,,,,,,,,,,,,,,,,,,,kust,images/br_kust.png,images/cb_kust.png,,kust,,,,,,,,,,,0.31875,-0.163888889,1,0,0,kust,0,52,52,0,1
,,,,,00069,2023-10-14_19h52.50.355,vbt_B2_day4,2022.2.4,Win32,143.9884809,,,,,,,,,,,,,,,,,,,,schenden,images/br_schenden.png,images/cb_schenden.png,,schenden,,,,,,,,,,,0.31875,-0.163888889,1,0,0,schenden,0,53,53,57,1
,,,,,00069,2023-10-14_19h52.50.355,vbt_B2_day4,2022.2.4,Win32,143.9884809,,,,,,,,,,,,,,,,,,,,aanzwaag,images/br_aanzwaag.png,images/cb_aanzwaag.png,,aanzwaag,,,,,,,,,,,0.31875,-0.163888889,1,0,0,aanzwaag,0,54,54,38,1
,,,,,00069,2023-10-14_19h52.50.355,vbt_B2_day4,2022.2.4,Win32,143.9884809,,,,,,,,,,,,,,,,,,,,gaaf,images/br_gaaf.png,images/cb_gaaf.png,,gaaf,,,,,,,,,,,0.31875,-0.163888889,1,0,0,gaaf,0,55,55,43,1
,,,,,00069,2023-10-14_19h52.50.355,vbt_B2_day4,2022.2.4,Win32,143.9884809,,,,,,,,,,,,,,,,,,,,gebit,images/br_gebit.png,images/cb_gebit.png,,gebit,,,,,,,,,,,0.31875,-0.163888889,1,0,0,gebit,0,56,56,6,1
,,,,,00069,2023-10-14_19h52.50.355,vbt_B2_day4,2022.2.4,Win32,143.9884809,,,,,,,,,,,,,,,,,,,,seizoon,images/br_seizoon.png,images/cb_seizoon.png,,seizoon,,,,,,,,,,,0.31875,-0.163888889,1,0,0,seizoon,0,57,57,33,1
,,,,,00069,2023-10-14_19h52.50.355,vbt_B2_day4,2022.2.4,Win32,143.9884809,,,,,,,,,,,,,,,,,,,,drummer,images/br_drummer.png,images/cb_drummer.png,,drummer,,,,,,,,,,,0.31875,-0.163888889,1,0,0,drummer,0,58,58,53,1
,,,,,00069,2023-10-14_19h52.50.355,vbt_B2_day4,2022.2.4,Win32,143.9884809,,,,,,,,,,,,,,,,,,,,pijnlijk,images/br_pijnlijk.png,images/cb_pijnlijk.png,,pijnlij.,,,,,,,,,,,0.31875,-0.163888889,1,0,0,pijnlij.,0,59,59,58,1
,,,,,00069,2023-10-14_19h52.50.355,vbt_B2_day4,2022.2.4,Win32,143.9884809,,,,,,,,,,,,,,,,,,,,,,,,,,,,,,,,,,,,,,,,,,,,,
