welcome_mouse.x,welcome_mouse.y,welcome_mouse.leftButton,welcome_mouse.midButton,welcome_mouse.rightButton,"ID",date,expName,psychopyVersion,OS,frameRate,trainInstr_mouse.x,trainInstr_mouse.y,trainInstr_mouse.leftButton,trainInstr_mouse.midButton,trainInstr_mouse.rightButton,translation_key.keys,translation_key.corr,translation_key.rt,word_rsp.text,trWrd_mouse.x,trWrd_mouse.y,trWrd_mouse.leftButton,trWrd_mouse.midButton,trWrd_mouse.rightButton,train_loop.thisRepN,train_loop.thisTrialN,train_loop.thisN,train_loop.thisIndex,train_loop.ran,nlWrd,brWrd,cbWrd,test,testResp,mouse.x,mouse.y,mouse.leftButton,mouse.midButton,mouse.rightButton,testInstr_mouse.x,testInstr_mouse.y,testInstr_mouse.leftButton,testInstr_mouse.midButton,testInstr_mouse.rightButton,test_mouse.x,test_mouse.y,test_mouse.leftButton,test_mouse.midButton,test_mouse.rightButton,test_response.text,test_loop.thisRepN,test_loop.thisTrialN,test_loop.thisN,test_loop.thisIndex,test_loop.ran
-0.149704861,-0.232686632,1,0,0,00025,2023-09-06_12h24.07.827,vbt_B2_day4,2022.2.4,MacIntel,60.0024001,,,,,,,,,,,,,,,,,,,,,,,,,,,,,,,,,,,,,,,,,,,,,
,,,,,00025,2023-09-06_12h24.07.827,vbt_B2_day4,2022.2.4,MacIntel,60.0024001,0.016623264,-0.070065104,1,0,0,,,,,,,,,,,,,,,,,,,,,,,,,,,,,,,,,,,,,,,,
,,,,,00025,2023-09-06_12h24.07.827,vbt_B2_day4,2022.2.4,MacIntel,60.0024001,,,,,,down,0,4.1721,,-0.045434028,0.005855035,1,0,0,0,0,0,108,1,excuus,images/br_excuus.png,images/cb_excuus.png,0,,,,,,,,,,,,,,,,,,,,,,
,,,,,00025,2023-09-06_12h24.07.827,vbt_B2_day4,2022.2.4,MacIntel,60.0024001,,,,,,down,0,1.3845,,0.121679687,0.004322917,1,0,0,0,1,1,93,1,waarop,images/br_waarop.png,images/cb_waarop.png,0,,,,,,,,,,,,,,,,,,,,,,
,,,,,00025,2023-09-06_12h24.07.827,vbt_B2_day4,2022.2.4,MacIntel,60.0024001,,,,,,down,0,2.0219,,0.130950521,-0.010581597,1,0,0,0,2,2,161,1,attentie,images/br_attentie.png,images/cb_attentie.png,0,,,,,,,,,,,,,,,,,,,,,,
,,,,,00025,2023-09-06_12h24.07.827,vbt_B2_day4,2022.2.4,MacIntel,60.0024001,,,,,,down,0,1.4047,,0.13047309,0.001384549,1,0,0,0,3,3,170,1,schatten,images/br_schatten.png,images/cb_schatten.png,0,,,,,,,,,,,,,,,,,,,,,,
,,,,,00025,2023-09-06_12h24.07.827,vbt_B2_day4,2022.2.4,MacIntel,60.0024001,,,,,,down,0,0.3582,,0.13047309,0.001384549,1,0,0,0,4,4,66,1,lever,images/br_lever.png,images/cb_lever.png,1,lever,,,,,,,,,,,,,,,,,,,,,
,,,,,00025,2023-09-06_12h24.07.827,vbt_B2_day4,2022.2.4,MacIntel,60.0024001,,,,,,down,0,0.7031,,0.105481771,0.002777778,1,0,0,0,5,5,148,1,smullen,images/br_smullen.png,images/cb_smullen.png,0,,,,,,,,,,,,,,,,,,,,,,
,,,,,00025,2023-09-06_12h24.07.827,vbt_B2_day4,2022.2.4,MacIntel,60.0024001,,,,,,down,0,0.6009,,0.105481771,0.002777778,1,0,0,0,6,6,128,1,prikken,images/br_prikken.png,images/cb_prikken.png,0,,,,,,,,,,,,,,,,,,,,,,
,,,,,00025,2023-09-06_12h24.07.827,vbt_B2_day4,2022.2.4,MacIntel,60.0024001,,,,,,down,0,5.8165,,0.105481771,0.002777778,1,0,0,0,7,7,47,1,kabel,images/br_kabel.png,images/cb_kabel.png,0,,,,,,,,,,,,,,,,,,,,,,
,,,,,00025,2023-09-06_12h24.07.827,vbt_B2_day4,2022.2.4,MacIntel,60.0024001,,,,,,down,0,2.6725,,0.105481771,0.002777778,1,0,0,0,8,8,122,1,waarvan,images/br_waarvan.png,images/cb_waarvan.png,0,,,,,,,,,,,,,,,,,,,,,,
,,,,,00025,2023-09-06_12h24.07.827,vbt_B2_day4,2022.2.4,MacIntel,60.0024001,,,,,,down,0,0.4159,,0.079982639,0.03671875,1,0,0,0,9,9,11,1,mode,images/br_mode.png,images/cb_mode.png,0,,,,,,,,,,,,,,,,,,,,,,
,,,,,00025,2023-09-06_12h24.07.827,vbt_B2_day4,2022.2.4,MacIntel,60.0024001,,,,,,down,0,1.7834,,0.079982639,0.03671875,1,0,0,0,10,10,184,1,aandelen,images/br_aandelen.png,images/cb_aandelen.png,1,aandelen,,,,,,,,,,,,,,,,,,,,,
,,,,,00025,2023-09-06_12h24.07.827,vbt_B2_day4,2022.2.4,MacIntel,60.0024001,,,,,,down,0,2.053,,0.079982639,0.03671875,1,0,0,0,11,11,38,1,baai,images/br_baai.png,images/cb_baai.png,0,,,,,,,,,,,,,,,,,,,,,,
,,,,,00025,2023-09-06_12h24.07.827,vbt_B2_day4,2022.2.4,MacIntel,60.0024001,,,,,,down,0,3.7144,,0.079982639,0.03671875,1,0,0,0,12,12,149,1,redding,images/br_redding.png,images/cb_redding.png,0,,,,,,,,,,,,,,,,,,,,,,
,,,,,00025,2023-09-06_12h24.07.827,vbt_B2_day4,2022.2.4,MacIntel,60.0024001,,,,,,down,0,1.0935,,0.079982639,0.03671875,1,0,0,0,13,13,44,1,flits,images/br_flits.png,images/cb_flits.png,0,,,,,,,,,,,,,,,,,,,,,,
,,,,,00025,2023-09-06_12h24.07.827,vbt_B2_day4,2022.2.4,MacIntel,60.0024001,,,,,,down,0,1.6357,,0.079982639,0.038133681,1,0,0,0,14,14,169,1,oprotten,images/br_oprotten.png,images/cb_oprotten.png,0,,,,,,,,,,,,,,,,,,,,,,
,,,,,00025,2023-09-06_12h24.07.827,vbt_B2_day4,2022.2.4,MacIntel,60.0024001,,,,,,down,0,5.2347,,0.079982639,0.038133681,1,0,0,0,15,15,147,1,komisch,images/br_komisch.png,images/cb_komisch.png,1,komisch,,,,,,,,,,,,,,,,,,,,,
,,,,,00025,2023-09-06_12h24.07.827,vbt_B2_day4,2022.2.4,MacIntel,60.0024001,,,,,,down,0,3.2556,,-0.244466146,-0.015681424,1,0,0,0,16,16,193,1,weeshuis,images/br_weeshuis.png,images/cb_weeshuis.png,0,,,,,,,,,,,,,,,,,,,,,,
,,,,,00025,2023-09-06_12h24.07.827,vbt_B2_day4,2022.2.4,MacIntel,60.0024001,,,,,,down,0,0.3505,,-0.056445312,-0.157243924,1,0,0,0,17,17,17,1,taal,images/br_taal.png,images/cb_taal.png,0,,,,,,,,,,,,,,,,,,,,,,
,,,,,00025,2023-09-06_12h24.07.827,vbt_B2_day4,2022.2.4,MacIntel,60.0024001,,,,,,down,0,0.6331,,0.116753472,-0.023723958,1,0,0,0,18,18,189,1,aanraden,images/br_aanraden.png,images/cb_aanraden.png,0,,,,,,,,,,,,,,,,,,,,,,
,,,,,00025,2023-09-06_12h24.07.827,vbt_B2_day4,2022.2.4,MacIntel,60.0024001,,,,,,down,0,3.6469,,0.016796875,-0.039348958,1,0,0,0,19,19,60,1,jasje,images/br_jasje.png,images/cb_jasje.png,0,,,,,,,,,,,,,,,,,,,,,,
,,,,,00025,2023-09-06_12h24.07.827,vbt_B2_day4,2022.2.4,MacIntel,60.0024001,,,,,,down,0,2.4525,,-0.139396701,-0.023489583,1,0,0,0,20,20,120,1,klimmen,images/br_klimmen.png,images/cb_klimmen.png,0,,,,,,,,,,,,,,,,,,,,,,
,,,,,00025,2023-09-06_12h24.07.827,vbt_B2_day4,2022.2.4,MacIntel,60.0024001,,,,,,down,0,6.5896,,0.145659722,-0.004053819,1,0,0,0,21,21,164,1,anarchie,images/br_anarchie.png,images/cb_anarchie.png,0,,,,,,,,,,,,,,,,,,,,,,
,,,,,00025,2023-09-06_12h24.07.827,vbt_B2_day4,2022.2.4,MacIntel,60.0024001,,,,,,down,0,0.8423,,-0.153997396,-0.045794271,1,0,0,0,22,22,45,1,piste,images/br_piste.png,images/cb_piste.png,0,,,,,,,,,,,,,,,,,,,,,,
,,,,,00025,2023-09-06_12h24.07.827,vbt_B2_day4,2022.2.4,MacIntel,60.0024001,,,,,,down,0,3.0972,,-0.22655816,-0.027907986,1,0,0,0,23,23,157,1,uitlaat,images/br_uitlaat.png,images/cb_uitlaat.png,0,,,,,,,,,,,,,,,,,,,,,,
,,,,,00025,2023-09-06_12h24.07.827,vbt_B2_day4,2022.2.4,MacIntel,60.0024001,,,,,,down,0,1.4672,,0.012118056,0.046462674,1,0,0,0,24,24,88,1,boeien,images/br_boeien.png,images/cb_boeien.png,0,,,,,,,,,,,,,,,,,,,,,,
,,,,,00025,2023-09-06_12h24.07.827,vbt_B2_day4,2022.2.4,MacIntel,60.0024001,,,,,,down,0,2.6761,,-0.172434896,0.007703993,1,0,0,0,25,25,126,1,kasteel,images/br_kasteel.png,images/cb_kasteel.png,0,,,,,,,,,,,,,,,,,,,,,,
,,,,,00025,2023-09-06_12h24.07.827,vbt_B2_day4,2022.2.4,MacIntel,60.0024001,,,,,,down,0,1.9501,,-0.219383681,-0.026336806,1,0,0,0,26,26,179,1,woestijn,images/br_woestijn.png,images/cb_woestijn.png,0,,,,,,,,,,,,,,,,,,,,,,
,,,,,00025,2023-09-06_12h24.07.827,vbt_B2_day4,2022.2.4,MacIntel,60.0024001,,,,,,down,0,1.6135,,-0.094244792,0.004257813,1,0,0,0,27,27,6,1,diep,images/br_diep.png,images/cb_diep.png,0,,,,,,,,,,,,,,,,,,,,,,
,,,,,00025,2023-09-06_12h24.07.827,vbt_B2_day4,2022.2.4,MacIntel,60.0024001,,,,,,down,0,0.1698,,-0.025768229,-0.024266493,1,0,0,0,28,28,32,1,palm,images/br_palm.png,images/cb_palm.png,0,,,,,,,,,,,,,,,,,,,,,,
,,,,,00025,2023-09-06_12h24.07.827,vbt_B2_day4,2022.2.4,MacIntel,60.0024001,,,,,,down,0,2.1756,,-0.025768229,-0.024266493,1,0,0,0,29,29,159,1,sufferd,images/br_sufferd.png,images/cb_sufferd.png,0,,,,,,,,,,,,,,,,,,,,,,
,,,,,00025,2023-09-06_12h24.07.827,vbt_B2_day4,2022.2.4,MacIntel,60.0024001,,,,,,down,0,0.5879,,-0.03297309,-0.016731771,1,0,0,0,30,30,42,1,bleek,images/br_bleek.png,images/cb_bleek.png,0,,,,,,,,,,,,,,,,,,,,,,
,,,,,00025,2023-09-06_12h24.07.827,vbt_B2_day4,2022.2.4,MacIntel,60.0024001,,,,,,down,0,0.1859,,-0.052929688,-0.017352431,1,0,0,0,31,31,13,1,kaal,images/br_kaal.png,images/cb_kaal.png,0,,,,,,,,,,,,,,,,,,,,,,
,,,,,00025,2023-09-06_12h24.07.827,vbt_B2_day4,2022.2.4,MacIntel,60.0024001,,,,,,down,0,3.9442,,0.023823785,-0.029322917,1,0,0,0,32,32,97,1,loyaal,images/br_loyaal.png,images/cb_loyaal.png,0,,,,,,,,,,,,,,,,,,,,,,
,,,,,00025,2023-09-06_12h24.07.827,vbt_B2_day4,2022.2.4,MacIntel,60.0024001,,,,,,down,0,0.3203,,0.063546007,-0.034739583,1,0,0,0,33,33,114,1,vullen,images/br_vullen.png,images/cb_vullen.png,0,,,,,,,,,,,,,,,,,,,,,,
,,,,,00025,2023-09-06_12h24.07.827,vbt_B2_day4,2022.2.4,MacIntel,60.0024001,,,,,,down,0,0.3789,,0.063546007,-0.034739583,1,0,0,0,34,34,22,1,stof,images/br_stof.png,images/cb_stof.png,0,,,,,,,,,,,,,,,,,,,,,,
,,,,,00025,2023-09-06_12h24.07.827,vbt_B2_day4,2022.2.4,MacIntel,60.0024001,,,,,,down,0,1.3111,,0.063546007,-0.034739583,1,0,0,0,35,35,90,1,geluid,images/br_geluid.png,images/cb_geluid.png,0,,,,,,,,,,,,,,,,,,,,,,
,,,,,00025,2023-09-06_12h24.07.827,vbt_B2_day4,2022.2.4,MacIntel,60.0024001,,,,,,down,0,15.9763,,0.063546007,-0.034739583,1,0,0,0,36,36,105,1,wijlen,images/br_wijlen.png,images/cb_wijlen.png,1,wi.len,,,,,,,,,,,,,,,,,,,,,
,,,,,00025,2023-09-06_12h24.07.827,vbt_B2_day4,2022.2.4,MacIntel,60.0024001,,,,,,down,0,0.1495,,0.027374132,-0.005247396,1,0,0,0,37,37,101,1,staren,images/br_staren.png,images/cb_staren.png,0,,,,,,,,,,,,,,,,,,,,,,
,,,,,00025,2023-09-06_12h24.07.827,vbt_B2_day4,2022.2.4,MacIntel,60.0024001,,,,,,down,0,0.1016,,0.054769965,-0.001744792,1,0,0,0,38,38,55,1,praat,images/br_praat.png,images/cb_praat.png,0,,,,,,,,,,,,,,,,,,,,,,
,,,,,00025,2023-09-06_12h24.07.827,vbt_B2_day4,2022.2.4,MacIntel,60.0024001,,,,,,down,0,5.1306,,0.033029514,-0.007265625,1,0,0,0,39,39,94,1,oceaan,images/br_oceaan.png,images/cb_oceaan.png,0,,,,,,,,,,,,,,,,,,,,,,
,,,,,00025,2023-09-06_12h24.07.827,vbt_B2_day4,2022.2.4,MacIntel,60.0024001,,,,,,down,0,2.5036,,0.033029514,-0.006749132,1,0,0,0,40,40,133,1,seizoen,images/br_seizoen.png,images/cb_seizoen.png,0,,,,,,,,,,,,,,,,,,,,,,
,,,,,00025,2023-09-06_12h24.07.827,vbt_B2_day4,2022.2.4,MacIntel,60.0024001,,,,,,down,0,10.3216,,0.033029514,-0.006749132,1,0,0,0,41,41,185,1,mijnheer,images/br_mijnheer.png,images/cb_mijnheer.png,1,mijnheer,,,,,,,,,,,,,,,,,,,,,
,,,,,00025,2023-09-06_12h24.07.827,vbt_B2_day4,2022.2.4,MacIntel,60.0024001,,,,,,down,0,0.3901,,-0.063098958,-0.070173611,1,0,0,0,42,42,35,1,lust,images/br_lust.png,images/cb_lust.png,0,,,,,,,,,,,,,,,,,,,,,,
,,,,,00025,2023-09-06_12h24.07.827,vbt_B2_day4,2022.2.4,MacIntel,60.0024001,,,,,,down,0,0.2006,,-0.048567708,-0.001853299,1,0,0,0,43,43,9,1,hier,images/br_hier.png,images/cb_hier.png,0,,,,,,,,,,,,,,,,,,,,,,
,,,,,00025,2023-09-06_12h24.07.827,vbt_B2_day4,2022.2.4,MacIntel,60.0024001,,,,,,down,0,0.0244,,0.200855035,-0.004817708,1,0,0,0,44,44,39,1,laag,images/br_laag.png,images/cb_laag.png,0,,,,,,,,,,,,,,,,,,,,,,
,,,,,00025,2023-09-06_12h24.07.827,vbt_B2_day4,2022.2.4,MacIntel,60.0024001,,,,,,down,0,6.0666,,-0.123003472,-0.022387153,1,0,0,0,45,45,69,1,waken,images/br_waken.png,images/cb_waken.png,0,,,,,,,,,,,,,,,,,,,,,,
,,,,,00025,2023-09-06_12h24.07.827,vbt_B2_day4,2022.2.4,MacIntel,60.0024001,,,,,,down,0,0.0856,,-0.112894965,-0.042261285,1,0,0,0,46,46,84,1,lokken,images/br_lokken.png,images/cb_lokken.png,0,,,,,,,,,,,,,,,,,,,,,,
,,,,,00025,2023-09-06_12h24.07.827,vbt_B2_day4,2022.2.4,MacIntel,60.0024001,,,,,,down,0,3.1818,,-0.112894965,-0.042261285,1,0,0,0,47,47,130,1,keihard,images/br_keihard.png,images/cb_keihard.png,0,,,,,,,,,,,,,,,,,,,,,,
,,,,,00025,2023-09-06_12h24.07.827,vbt_B2_day4,2022.2.4,MacIntel,60.0024001,,,,,,down,0,0.8041,,0.152447917,-0.023368056,1,0,0,0,48,48,117,1,kennis,images/br_kennis.png,images/cb_kennis.png,0,,,,,,,,,,,,,,,,,,,,,,
,,,,,00025,2023-09-06_12h24.07.827,vbt_B2_day4,2022.2.4,MacIntel,60.0024001,,,,,,down,0,3.6058,,0.057087674,-0.033237847,1,0,0,0,49,49,165,1,feestdag,images/br_feestdag.png,images/cb_feestdag.png,0,,,,,,,,,,,,,,,,,,,,,,
,,,,,00025,2023-09-06_12h24.07.827,vbt_B2_day4,2022.2.4,MacIntel,60.0024001,,,,,,down,0,0.3339,,0.0053125,-0.016671007,1,0,0,0,50,50,33,1,vlek,images/br_vlek.png,images/cb_vlek.png,0,,,,,,,,,,,,,,,,,,,,,,
,,,,,00025,2023-09-06_12h24.07.827,vbt_B2_day4,2022.2.4,MacIntel,60.0024001,,,,,,down,0,0.4353,,-0.072578125,0.004991319,1,0,0,0,51,51,18,1,blik,images/br_blik.png,images/cb_blik.png,0,,,,,,,,,,,,,,,,,,,,,,
,,,,,00025,2023-09-06_12h24.07.827,vbt_B2_day4,2022.2.4,MacIntel,60.0024001,,,,,,down,0,0.4085,,-0.072578125,0.004991319,1,0,0,0,52,52,58,1,tekst,images/br_tekst.png,images/cb_tekst.png,0,,,,,,,,,,,,,,,,,,,,,,
,,,,,00025,2023-09-06_12h24.07.827,vbt_B2_day4,2022.2.4,MacIntel,60.0024001,,,,,,down,0,7.488,,-0.122118056,-0.035143229,1,0,0,0,53,53,37,1,mijn,images/br_mijn.png,images/cb_mijn.png,0,,,,,,,,,,,,,,,,,,,,,,
,,,,,00025,2023-09-06_12h24.07.827,vbt_B2_day4,2022.2.4,MacIntel,60.0024001,,,,,,down,0,0.3014,,0.098511285,0.00046441,1,0,0,0,54,54,82,1,muziek,images/br_muziek.png,images/cb_muziek.png,0,,,,,,,,,,,,,,,,,,,,,,
,,,,,00025,2023-09-06_12h24.07.827,vbt_B2_day4,2022.2.4,MacIntel,60.0024001,,,,,,down,0,0.6892,,-0.168294271,0.003515625,1,0,0,0,55,55,52,1,wagon,images/br_wagon.png,images/cb_wagon.png,0,,,,,,,,,,,,,,,,,,,,,,
,,,,,00025,2023-09-06_12h24.07.827,vbt_B2_day4,2022.2.4,MacIntel,60.0024001,,,,,,down,0,0.5538,,-0.168294271,0.003515625,1,0,0,0,56,56,34,1,vorm,images/br_vorm.png,images/cb_vorm.png,0,,,,,,,,,,,,,,,,,,,,,,
,,,,,00025,2023-09-06_12h24.07.827,vbt_B2_day4,2022.2.4,MacIntel,60.0024001,,,,,,down,0,8.885,,-0.168294271,0.005993924,1,0,0,0,57,57,24,1,jurk,images/br_jurk.png,images/cb_jurk.png,1,hurk,,,,,,,,,,,,,,,,,,,,,
,,,,,00025,2023-09-06_12h24.07.827,vbt_B2_day4,2022.2.4,MacIntel,60.0024001,,,,,,down,0,6.6665,,-0.166072049,0.024010417,1,0,0,0,58,58,83,1,mening,images/br_mening.png,images/cb_mening.png,0,,,,,,,,,,,,,,,,,,,,,,
,,,,,00025,2023-09-06_12h24.07.827,vbt_B2_day4,2022.2.4,MacIntel,60.0024001,,,,,,down,0,0.4214,,-0.165811632,0.023502604,1,0,0,0,59,59,160,1,daarheen,images/br_daarheen.png,images/cb_daarheen.png,0,,,,,,,,,,,,,,,,,,,,,,
,,,,,00025,2023-09-06_12h24.07.827,vbt_B2_day4,2022.2.4,MacIntel,60.0024001,,,,,,down,0,1.4093,,-0.165811632,0.023502604,1,0,0,0,60,60,144,1,eetlust,images/br_eetlust.png,images/cb_eetlust.png,1,eetlust,,,,,,,,,,,,,,,,,,,,,
,,,,,00025,2023-09-06_12h24.07.827,vbt_B2_day4,2022.2.4,MacIntel,60.0024001,,,,,,down,0,0.0215,,-0.165811632,0.023502604,1,0,0,0,61,61,36,1,vuur,images/br_vuur.png,images/cb_vuur.png,0,,,,,,,,,,,,,,,,,,,,,,
,,,,,00025,2023-09-06_12h24.07.827,vbt_B2_day4,2022.2.4,MacIntel,60.0024001,,,,,,down,0,0.2957,,-0.165811632,0.023502604,1,0,0,0,62,62,53,1,baron,images/br_baron.png,images/cb_baron.png,0,,,,,,,,,,,,,,,,,,,,,,
,,,,,00025,2023-09-06_12h24.07.827,vbt_B2_day4,2022.2.4,MacIntel,60.0024001,,,,,,down,0,0.2596,,0.207356771,-0.007269965,1,0,0,0,63,63,8,1,knie,images/br_knie.png,images/cb_knie.png,0,,,,,,,,,,,,,,,,,,,,,,
,,,,,00025,2023-09-06_12h24.07.827,vbt_B2_day4,2022.2.4,MacIntel,60.0024001,,,,,,down,0,0.4257,,0.267617188,-0.147330729,1,0,0,0,64,64,167,1,eenhoorn,images/br_eenhoorn.png,images/cb_eenhoorn.png,0,,,,,,,,,,,,,,,,,,,,,,
,,,,,00025,2023-09-06_12h24.07.827,vbt_B2_day4,2022.2.4,MacIntel,60.0024001,,,,,,down,0,2.2729,,0.267617188,-0.147330729,1,0,0,0,65,65,198,1,bedoelen,images/br_bedoelen.png,images/cb_bedoelen.png,0,,,,,,,,,,,,,,,,,,,,,,
,,,,,00025,2023-09-06_12h24.07.827,vbt_B2_day4,2022.2.4,MacIntel,60.0024001,,,,,,down,0,0.453,,0.267617188,-0.147330729,1,0,0,0,66,66,171,1,aarzelen,images/br_aarzelen.png,images/cb_aarzelen.png,0,,,,,,,,,,,,,,,,,,,,,,
,,,,,00025,2023-09-06_12h24.07.827,vbt_B2_day4,2022.2.4,MacIntel,60.0024001,,,,,,down,0,0.2677,,0.267617188,-0.147330729,1,0,0,0,67,67,2,1,jaar,images/br_jaar.png,images/cb_jaar.png,0,,,,,,,,,,,,,,,,,,,,,,
,,,,,00025,2023-09-06_12h24.07.827,vbt_B2_day4,2022.2.4,MacIntel,60.0024001,,,,,,down,0,19.2004,,0.267617188,-0.147330729,1,0,0,0,68,68,124,1,bloeien,images/br_bloeien.png,images/cb_bloeien.png,0,,,,,,,,,,,,,,,,,,,,,,
,,,,,00025,2023-09-06_12h24.07.827,vbt_B2_day4,2022.2.4,MacIntel,60.0024001,,,,,,down,0,0.5216,,0.267617188,-0.147330729,1,0,0,0,69,69,89,1,slapen,images/br_slapen.png,images/cb_slapen.png,0,,,,,,,,,,,,,,,,,,,,,,
,,,,,00025,2023-09-06_12h24.07.827,vbt_B2_day4,2022.2.4,MacIntel,60.0024001,,,,,,down,0,17.2456,,0.022851562,-0.284991319,1,0,0,0,70,70,181,1,toegeven,images/br_toegeven.png,images/cb_toegeven.png,0,,,,,,,,,,,,,,,,,,,,,,
,,,,,00025,2023-09-06_12h24.07.827,vbt_B2_day4,2022.2.4,MacIntel,60.0024001,,,,,,down,0,0.1853,,0.022851562,-0.284991319,1,0,0,0,71,71,20,1,site,images/br_site.png,images/cb_site.png,0,,,,,,,,,,,,,,,,,,,,,,
,,,,,00025,2023-09-06_12h24.07.827,vbt_B2_day4,2022.2.4,MacIntel,60.0024001,,,,,,down,0,9.9839,,0.022851562,-0.284991319,1,0,0,0,72,72,3,1,mand,images/br_mand.png,images/cb_mand.png,0,,,,,,,,,,,,,,,,,,,,,,
,,,,,00025,2023-09-06_12h24.07.827,vbt_B2_day4,2022.2.4,MacIntel,60.0024001,,,,,,down,0,38.8295,,0.022851562,-0.284991319,1,0,0,0,73,73,127,1,doodmoe,images/br_doodmoe.png,images/cb_doodmoe.png,0,,,,,,,,,,,,,,,,,,,,,,
,,,,,00025,2023-09-06_12h24.07.827,vbt_B2_day4,2022.2.4,MacIntel,60.0024001,,,,,,down,0,0.3218,,0.022851562,-0.284991319,1,0,0,0,74,74,99,1,koffie,images/br_koffie.png,images/cb_koffie.png,0,,,,,,,,,,,,,,,,,,,,,,
,,,,,00025,2023-09-06_12h24.07.827,vbt_B2_day4,2022.2.4,MacIntel,60.0024001,,,,,,down,0,0.4345,,0.022851562,-0.284991319,1,0,0,0,75,75,41,1,maken,images/br_maken.png,images/cb_maken.png,0,,,,,,,,,,,,,,,,,,,,,,
,,,,,00025,2023-09-06_12h24.07.827,vbt_B2_day4,2022.2.4,MacIntel,60.0024001,,,,,,down,0,0.2453,,0.022851562,-0.284991319,1,0,0,0,76,76,152,1,afnemen,images/br_afnemen.png,images/cb_afnemen.png,0,,,,,,,,,,,,,,,,,,,,,,
,,,,,00025,2023-09-06_12h24.07.827,vbt_B2_day4,2022.2.4,MacIntel,60.0024001,,,,,,down,0,0.8725,,0.022851562,-0.284991319,1,0,0,0,77,77,192,1,schaamte,images/br_schaamte.png,images/cb_schaamte.png,0,,,,,,,,,,,,,,,,,,,,,,
,,,,,00025,2023-09-06_12h24.07.827,vbt_B2_day4,2022.2.4,MacIntel,60.0024001,,,,,,down,0,0.2671,,0.022851562,-0.284735243,1,0,0,0,78,78,40,1,schep,images/br_schep.png,images/cb_schep.png,0,,,,,,,,,,,,,,,,,,,,,,
,,,,,00025,2023-09-06_12h24.07.827,vbt_B2_day4,2022.2.4,MacIntel,60.0024001,,,,,,down,0,0.5105,,0.022851562,-0.284735243,1,0,0,0,79,79,100,1,geduld,images/br_geduld.png,images/cb_geduld.png,0,,,,,,,,,,,,,,,,,,,,,,
,,,,,00025,2023-09-06_12h24.07.827,vbt_B2_day4,2022.2.4,MacIntel,60.0024001,,,,,,down,0,2.5367,,0.022851562,-0.284735243,1,0,0,0,80,80,23,1,zout,images/br_zout.png,images/cb_zout.png,0,,,,,,,,,,,,,,,,,,,,,,
,,,,,00025,2023-09-06_12h24.07.827,vbt_B2_day4,2022.2.4,MacIntel,60.0024001,,,,,,down,0,1.387,,0.022851562,-0.284735243,1,0,0,0,81,81,119,1,liefje,images/br_liefje.png,images/cb_liefje.png,0,,,,,,,,,,,,,,,,,,,,,,
,,,,,00025,2023-09-06_12h24.07.827,vbt_B2_day4,2022.2.4,MacIntel,60.0024001,,,,,,down,0,0.5012,,0.022851562,-0.284735243,1,0,0,0,82,82,125,1,aanzien,images/br_aanzien.png,images/cb_aanzien.png,0,,,,,,,,,,,,,,,,,,,,,,
,,,,,00025,2023-09-06_12h24.07.827,vbt_B2_day4,2022.2.4,MacIntel,60.0024001,,,,,,down,0,0.1574,,-0.003181424,-0.001657986,1,0,0,0,83,83,135,1,gedicht,images/br_gedicht.png,images/cb_gedicht.png,0,,,,,,,,,,,,,,,,,,,,,,
,,,,,00025,2023-09-06_12h24.07.827,vbt_B2_day4,2022.2.4,MacIntel,60.0024001,,,,,,down,0,2.1558,,0.085013021,-0.095802951,1,0,0,0,84,84,118,1,vinger,images/br_vinger.png,images/cb_vinger.png,0,,,,,,,,,,,,,,,,,,,,,,
,,,,,00025,2023-09-06_12h24.07.827,vbt_B2_day4,2022.2.4,MacIntel,60.0024001,,,,,,down,0,2.7099,,0.085013021,-0.095802951,1,0,0,0,85,85,5,1,blad,images/br_blad.png,images/cb_blad.png,0,,,,,,,,,,,,,,,,,,,,,,
,,,,,00025,2023-09-06_12h24.07.827,vbt_B2_day4,2022.2.4,MacIntel,60.0024001,,,,,,down,0,0.4189,,0.085013021,-0.095802951,1,0,0,0,86,86,138,1,akkoord,images/br_akkoord.png,images/cb_akkoord.png,0,,,,,,,,,,,,,,,,,,,,,,
,,,,,00025,2023-09-06_12h24.07.827,vbt_B2_day4,2022.2.4,MacIntel,60.0024001,,,,,,down,0,0.3019,,0.085013021,-0.095802951,1,0,0,0,87,87,87,1,toeval,images/br_toeval.png,images/cb_toeval.png,0,,,,,,,,,,,,,,,,,,,,,,
,,,,,00025,2023-09-06_12h24.07.827,vbt_B2_day4,2022.2.4,MacIntel,60.0024001,,,,,,down,0,0.112,,0.085013021,-0.095802951,1,0,0,0,88,88,96,1,slagen,images/br_slagen.png,images/cb_slagen.png,0,,,,,,,,,,,,,,,,,,,,,,
,,,,,00025,2023-09-06_12h24.07.827,vbt_B2_day4,2022.2.4,MacIntel,60.0024001,,,,,,down,0,0.3184,,0.085013021,-0.095802951,1,0,0,0,89,89,102,1,legaal,images/br_legaal.png,images/cb_legaal.png,0,,,,,,,,,,,,,,,,,,,,,,
,,,,,00025,2023-09-06_12h24.07.827,vbt_B2_day4,2022.2.4,MacIntel,60.0024001,,,,,,down,0,2.5544,,0.085013021,-0.095802951,1,0,0,0,90,90,115,1,kleren,images/br_kleren.png,images/cb_kleren.png,0,,,,,,,,,,,,,,,,,,,,,,
,,,,,00025,2023-09-06_12h24.07.827,vbt_B2_day4,2022.2.4,MacIntel,60.0024001,,,,,,down,0,0.4732,,0.085013021,-0.095802951,1,0,0,0,91,91,70,1,ijdel,images/br_ijdel.png,images/cb_ijdel.png,0,,,,,,,,,,,,,,,,,,,,,,
,,,,,00025,2023-09-06_12h24.07.827,vbt_B2_day4,2022.2.4,MacIntel,60.0024001,,,,,,down,0,2.0978,,0.085013021,-0.095802951,1,0,0,0,92,92,59,1,kring,images/br_kring.png,images/cb_kring.png,0,,,,,,,,,,,,,,,,,,,,,,
,,,,,00025,2023-09-06_12h24.07.827,vbt_B2_day4,2022.2.4,MacIntel,60.0024001,,,,,,down,0,0.5863,,0.085013021,-0.095802951,1,0,0,0,93,93,25,1,plek,images/br_plek.png,images/cb_plek.png,1,plek,,,,,,,,,,,,,,,,,,,,,
,,,,,00025,2023-09-06_12h24.07.827,vbt_B2_day4,2022.2.4,MacIntel,60.0024001,,,,,,down,0,0.3049,,0.085013021,-0.095802951,1,0,0,0,94,94,19,1,geit,images/br_geit.png,images/cb_geit.png,0,,,,,,,,,,,,,,,,,,,,,,
,,,,,00025,2023-09-06_12h24.07.827,vbt_B2_day4,2022.2.4,MacIntel,60.0024001,,,,,,down,0,3.6382,,0.000264757,-0.278320313,1,0,0,0,95,95,78,1,leren,images/br_leren.png,images/cb_leren.png,0,,,,,,,,,,,,,,,,,,,,,,
,,,,,00025,2023-09-06_12h24.07.827,vbt_B2_day4,2022.2.4,MacIntel,60.0024001,,,,,,down,0,2.6197,,0.000264757,-0.278320313,1,0,0,0,96,96,116,1,besmet,images/br_besmet.png,images/cb_besmet.png,0,,,,,,,,,,,,,,,,,,,,,,
,,,,,00025,2023-09-06_12h24.07.827,vbt_B2_day4,2022.2.4,MacIntel,60.0024001,,,,,,down,0,0.2184,,0.000264757,-0.278320313,1,0,0,0,97,97,139,1,stiekem,images/br_stiekem.png,images/cb_stiekem.png,0,,,,,,,,,,,,,,,,,,,,,,
,,,,,00025,2023-09-06_12h24.07.827,vbt_B2_day4,2022.2.4,MacIntel,60.0024001,,,,,,down,0,1.4416,,0.000264757,-0.278320313,1,0,0,0,98,98,162,1,uitdelen,images/br_uitdelen.png,images/cb_uitdelen.png,0,,,,,,,,,,,,,,,,,,,,,,
,,,,,00025,2023-09-06_12h24.07.827,vbt_B2_day4,2022.2.4,MacIntel,60.0024001,,,,,,down,0,0.3202,,0.000264757,-0.278320313,1,0,0,0,99,99,71,1,bever,images/br_bever.png,images/cb_bever.png,0,,,,,,,,,,,,,,,,,,,,,,
,,,,,00025,2023-09-06_12h24.07.827,vbt_B2_day4,2022.2.4,MacIntel,60.0024001,,,,,,down,0,0.4642,,0.000264757,-0.278320313,1,0,0,0,100,100,63,1,flirt,images/br_flirt.png,images/cb_flirt.png,0,,,,,,,,,,,,,,,,,,,,,,
,,,,,00025,2023-09-06_12h24.07.827,vbt_B2_day4,2022.2.4,MacIntel,60.0024001,,,,,,down,0,1.1284,,0.046106771,-0.020091146,1,0,0,0,101,101,43,1,klauw,images/br_klauw.png,images/cb_klauw.png,0,,,,,,,,,,,,,,,,,,,,,,
,,,,,00025,2023-09-06_12h24.07.827,vbt_B2_day4,2022.2.4,MacIntel,60.0024001,,,,,,down,0,0.3523,,0.046106771,-0.020091146,1,0,0,0,102,102,57,1,steek,images/br_steek.png,images/cb_steek.png,0,,,,,,,,,,,,,,,,,,,,,,
,,,,,00025,2023-09-06_12h24.07.827,vbt_B2_day4,2022.2.4,MacIntel,60.0024001,,,,,,down,0,0.1572,,0.046106771,-0.020342882,1,0,0,0,103,103,195,1,middelen,images/br_middelen.png,images/cb_middelen.png,0,,,,,,,,,,,,,,,,,,,,,,
,,,,,00025,2023-09-06_12h24.07.827,vbt_B2_day4,2022.2.4,MacIntel,60.0024001,,,,,,down,0,0.1013,,0.046106771,-0.020342882,1,0,0,0,104,104,15,1,soda,images/br_soda.png,images/cb_soda.png,0,,,,,,,,,,,,,,,,,,,,,,
,,,,,00025,2023-09-06_12h24.07.827,vbt_B2_day4,2022.2.4,MacIntel,60.0024001,,,,,,down,0,1.7166,,0.046106771,-0.020342882,1,0,0,0,105,105,177,1,maaltijd,images/br_maaltijd.png,images/cb_maaltijd.png,0,,,,,,,,,,,,,,,,,,,,,,
,,,,,00025,2023-09-06_12h24.07.827,vbt_B2_day4,2022.2.4,MacIntel,60.0024001,,,,,,down,0,6.2213,,0.046106771,-0.020342882,1,0,0,0,106,106,76,1,afval,images/br_afval.png,images/cb_afval.png,0,,,,,,,,,,,,,,,,,,,,,,
,,,,,00025,2023-09-06_12h24.07.827,vbt_B2_day4,2022.2.4,MacIntel,60.0024001,,,,,,down,0,1.6691,,0.046106771,-0.020342882,1,0,0,0,107,107,175,1,heengaan,images/br_heengaan.png,images/cb_heengaan.png,0,,,,,,,,,,,,,,,,,,,,,,
,,,,,00025,2023-09-06_12h24.07.827,vbt_B2_day4,2022.2.4,MacIntel,60.0024001,,,,,,down,0,0.2677,,0.046106771,-0.020342882,1,0,0,0,108,108,112,1,lukken,images/br_lukken.png,images/cb_lukken.png,0,,,,,,,,,,,,,,,,,,,,,,
,,,,,00025,2023-09-06_12h24.07.827,vbt_B2_day4,2022.2.4,MacIntel,60.0024001,,,,,,down,0,2.0037,,0.046106771,-0.020342882,1,0,0,0,109,109,151,1,aanzoek,images/br_aanzoek.png,images/cb_aanzoek.png,0,,,,,,,,,,,,,,,,,,,,,,
,,,,,00025,2023-09-06_12h24.07.827,vbt_B2_day4,2022.2.4,MacIntel,60.0024001,,,,,,down,0,0.3685,,0.046106771,-0.020342882,1,0,0,0,110,110,132,1,grappen,images/br_grappen.png,images/cb_grappen.png,0,,,,,,,,,,,,,,,,,,,,,,
,,,,,00025,2023-09-06_12h24.07.827,vbt_B2_day4,2022.2.4,MacIntel,60.0024001,,,,,,down,0,2.5369,,0.046106771,-0.020342882,1,0,0,0,111,111,131,1,opzicht,images/br_opzicht.png,images/cb_opzicht.png,0,,,,,,,,,,,,,,,,,,,,,,
,,,,,00025,2023-09-06_12h24.07.827,vbt_B2_day4,2022.2.4,MacIntel,60.0024001,,,,,,down,0,1.4718,,0.046106771,-0.020342882,1,0,0,0,112,112,73,1,volop,images/br_volop.png,images/cb_volop.png,0,,,,,,,,,,,,,,,,,,,,,,
,,,,,00025,2023-09-06_12h24.07.827,vbt_B2_day4,2022.2.4,MacIntel,60.0024001,,,,,,down,0,0.6281,,0.135655382,0.182799479,1,0,0,0,113,113,129,1,verhaal,images/br_verhaal.png,images/cb_verhaal.png,0,,,,,,,,,,,,,,,,,,,,,,
,,,,,00025,2023-09-06_12h24.07.827,vbt_B2_day4,2022.2.4,MacIntel,60.0024001,,,,,,down,0,0.4054,,0.135655382,0.182799479,1,0,0,0,114,114,92,1,geheim,images/br_geheim.png,images/cb_geheim.png,0,,,,,,,,,,,,,,,,,,,,,,
,,,,,00025,2023-09-06_12h24.07.827,vbt_B2_day4,2022.2.4,MacIntel,60.0024001,,,,,,down,0,2.4479,,0.135655382,0.182799479,1,0,0,0,115,115,199,1,beseffen,images/br_beseffen.png,images/cb_beseffen.png,0,,,,,,,,,,,,,,,,,,,,,,
,,,,,00025,2023-09-06_12h24.07.827,vbt_B2_day4,2022.2.4,MacIntel,60.0024001,,,,,,down,0,0.0528,,0.135655382,0.182799479,1,0,0,0,116,116,80,1,kanjer,images/br_kanjer.png,images/cb_kanjer.png,0,,,,,,,,,,,,,,,,,,,,,,
,,,,,00025,2023-09-06_12h24.07.827,vbt_B2_day4,2022.2.4,MacIntel,60.0024001,,,,,,down,0,0.4532,,0.135655382,0.182799479,1,0,0,0,117,117,137,1,trekker,images/br_trekker.png,images/cb_trekker.png,0,,,,,,,,,,,,,,,,,,,,,,
,,,,,00025,2023-09-06_12h24.07.827,vbt_B2_day4,2022.2.4,MacIntel,60.0024001,,,,,,down,0,0.2103,,0.135655382,0.182799479,1,0,0,0,118,118,21,1,mist,images/br_mist.png,images/cb_mist.png,0,,,,,,,,,,,,,,,,,,,,,,
,,,,,00025,2023-09-06_12h24.07.827,vbt_B2_day4,2022.2.4,MacIntel,60.0024001,,,,,,down,0,0.2392,,0.135655382,0.182799479,1,0,0,0,119,119,121,1,twijfel,images/br_twijfel.png,images/cb_twijfel.png,0,,,,,,,,,,,,,,,,,,,,,,
,,,,,00025,2023-09-06_12h24.07.827,vbt_B2_day4,2022.2.4,MacIntel,60.0024001,,,,,,down,0,4.1398,,0.135655382,0.182799479,1,0,0,0,120,120,143,1,hechten,images/br_hechten.png,images/cb_hechten.png,0,,,,,,,,,,,,,,,,,,,,,,
,,,,,00025,2023-09-06_12h24.07.827,vbt_B2_day4,2022.2.4,MacIntel,60.0024001,,,,,,down,0,3.0031,,0.135655382,0.182799479,1,0,0,0,121,121,48,1,steel,images/br_steel.png,images/cb_steel.png,0,,,,,,,,,,,,,,,,,,,,,,
,,,,,00025,2023-09-06_12h24.07.827,vbt_B2_day4,2022.2.4,MacIntel,60.0024001,,,,,,down,0,4.1065,,0.135655382,0.182799479,1,0,0,0,122,122,194,1,driemaal,images/br_driemaal.png,images/cb_driemaal.png,0,,,,,,,,,,,,,,,,,,,,,,
,,,,,00025,2023-09-06_12h24.07.827,vbt_B2_day4,2022.2.4,MacIntel,60.0024001,,,,,,down,0,6.3946,,0.135655382,0.182799479,1,0,0,0,123,123,61,1,groen,images/br_groen.png,images/cb_groen.png,0,,,,,,,,,,,,,,,,,,,,,,
,,,,,00025,2023-09-06_12h24.07.827,vbt_B2_day4,2022.2.4,MacIntel,60.0024001,,,,,,down,0,0.1874,,0.135655382,0.182799479,1,0,0,0,124,124,183,1,getuigen,images/br_getuigen.png,images/cb_getuigen.png,0,,,,,,,,,,,,,,,,,,,,,,
,,,,,00025,2023-09-06_12h24.07.827,vbt_B2_day4,2022.2.4,MacIntel,60.0024001,,,,,,down,0,0.7144,,0.135655382,0.182799479,1,0,0,0,125,125,166,1,strikken,images/br_strikken.png,images/cb_strikken.png,0,,,,,,,,,,,,,,,,,,,,,,
,,,,,00025,2023-09-06_12h24.07.827,vbt_B2_day4,2022.2.4,MacIntel,60.0024001,,,,,,down,0,9.728,,0.135655382,0.182799479,1,0,0,0,126,126,173,1,apparaat,images/br_apparaat.png,images/cb_apparaat.png,0,,,,,,,,,,,,,,,,,,,,,,
,,,,,00025,2023-09-06_12h24.07.827,vbt_B2_day4,2022.2.4,MacIntel,60.0024001,,,,,,down,0,8.9846,,0.135655382,0.182799479,1,0,0,0,127,127,123,1,hiervan,images/br_hiervan.png,images/cb_hiervan.png,0,,,,,,,,,,,,,,,,,,,,,,
,,,,,00025,2023-09-06_12h24.07.827,vbt_B2_day4,2022.2.4,MacIntel,60.0024001,,,,,,down,0,0.9007,,0.135655382,0.182799479,1,0,0,0,128,128,158,1,innemen,images/br_innemen.png,images/cb_innemen.png,0,,,,,,,,,,,,,,,,,,,,,,
,,,,,00025,2023-09-06_12h24.07.827,vbt_B2_day4,2022.2.4,MacIntel,60.0024001,,,,,,down,0,0.088,,0.135655382,0.182799479,1,0,0,0,129,129,134,1,geliefd,images/br_geliefd.png,images/cb_geliefd.png,0,,,,,,,,,,,,,,,,,,,,,,
,,,,,00025,2023-09-06_12h24.07.827,vbt_B2_day4,2022.2.4,MacIntel,60.0024001,,,,,,down,0,3.4293,,0.135655382,0.182799479,1,0,0,0,130,130,176,1,techniek,images/br_techniek.png,images/cb_techniek.png,0,,,,,,,,,,,,,,,,,,,,,,
,,,,,00025,2023-09-06_12h24.07.827,vbt_B2_day4,2022.2.4,MacIntel,60.0024001,,,,,,down,0,0.2874,,0.135655382,0.182799479,1,0,0,0,131,131,62,1,knaap,images/br_knaap.png,images/cb_knaap.png,0,,,,,,,,,,,,,,,,,,,,,,
,,,,,00025,2023-09-06_12h24.07.827,vbt_B2_day4,2022.2.4,MacIntel,60.0024001,,,,,,down,0,3.8529,,0.135655382,0.182799479,1,0,0,0,132,132,168,1,bisschop,images/br_bisschop.png,images/cb_bisschop.png,0,,,,,,,,,,,,,,,,,,,,,,
,,,,,00025,2023-09-06_12h24.07.827,vbt_B2_day4,2022.2.4,MacIntel,60.0024001,,,,,,down,0,7.7026,,0.135381944,0.184991319,1,0,0,0,133,133,156,1,rechten,images/br_rechten.png,images/cb_rechten.png,0,,,,,,,,,,,,,,,,,,,,,,
,,,,,00025,2023-09-06_12h24.07.827,vbt_B2_day4,2022.2.4,MacIntel,60.0024001,,,,,,down,0,16.3667,,0.132599826,0.189704861,1,0,0,0,134,134,68,1,schat,images/br_schat.png,images/cb_schat.png,0,,,,,,,,,,,,,,,,,,,,,,
,,,,,00025,2023-09-06_12h24.07.827,vbt_B2_day4,2022.2.4,MacIntel,60.0024001,,,,,,down,0,0.2821,,0.132599826,0.189704861,1,0,0,0,135,135,16,1,ziek,images/br_ziek.png,images/cb_ziek.png,0,,,,,,,,,,,,,,,,,,,,,,
,,,,,00025,2023-09-06_12h24.07.827,vbt_B2_day4,2022.2.4,MacIntel,60.0024001,,,,,,down,0,0.035,,0.132599826,0.189704861,1,0,0,0,136,136,28,1,stal,images/br_stal.png,images/cb_stal.png,0,,,,,,,,,,,,,,,,,,,,,,
,,,,,00025,2023-09-06_12h24.07.827,vbt_B2_day4,2022.2.4,MacIntel,60.0024001,,,,,,down,0,0.085,,0.097109375,0.038897569,1,0,0,0,137,137,98,1,kreeft,images/br_kreeft.png,images/cb_kreeft.png,0,,,,,,,,,,,,,,,,,,,,,,
,,,,,00025,2023-09-06_12h24.07.827,vbt_B2_day4,2022.2.4,MacIntel,60.0024001,,,,,,down,0,1.503,,0.097109375,0.038897569,1,0,0,0,138,138,196,1,nakijken,images/br_nakijken.png,images/cb_nakijken.png,0,,,,,,,,,,,,,,,,,,,,,,
,,,,,00025,2023-09-06_12h24.07.827,vbt_B2_day4,2022.2.4,MacIntel,60.0024001,,,,,,down,0,0.0175,,0.097109375,0.038897569,1,0,0,0,139,139,197,1,spanning,images/br_spanning.png,images/cb_spanning.png,0,,,,,,,,,,,,,,,,,,,,,,
,,,,,00025,2023-09-06_12h24.07.827,vbt_B2_day4,2022.2.4,MacIntel,60.0024001,,,,,,down,0,1.3373,,0.097109375,0.038897569,1,0,0,0,140,140,26,1,leuk,images/br_leuk.png,images/cb_leuk.png,1,leuk,,,,,,,,,,,,,,,,,,,,,
,,,,,00025,2023-09-06_12h24.07.827,vbt_B2_day4,2022.2.4,MacIntel,60.0024001,,,,,,down,0,0.0854,,0.097109375,0.038897569,1,0,0,0,141,141,190,1,goedkoop,images/br_goedkoop.png,images/cb_goedkoop.png,0,,,,,,,,,,,,,,,,,,,,,,
,,,,,00025,2023-09-06_12h24.07.827,vbt_B2_day4,2022.2.4,MacIntel,60.0024001,,,,,,down,0,0.6169,,0.097109375,0.038897569,1,0,0,0,142,142,46,1,jagen,images/br_jagen.png,images/cb_jagen.png,0,,,,,,,,,,,,,,,,,,,,,,
,,,,,00025,2023-09-06_12h24.07.827,vbt_B2_day4,2022.2.4,MacIntel,60.0024001,,,,,,down,0,1.039,,0.097109375,0.038897569,1,0,0,0,143,143,140,1,blijven,images/br_blijven.png,images/cb_blijven.png,0,,,,,,,,,,,,,,,,,,,,,,
,,,,,00025,2023-09-06_12h24.07.827,vbt_B2_day4,2022.2.4,MacIntel,60.0024001,,,,,,down,0,2.5261,,0.097109375,0.038897569,1,0,0,0,144,144,4,1,moes,images/br_moes.png,images/cb_moes.png,0,,,,,,,,,,,,,,,,,,,,,,
,,,,,00025,2023-09-06_12h24.07.827,vbt_B2_day4,2022.2.4,MacIntel,60.0024001,,,,,,down,0,7.3021,,0.097109375,0.038897569,1,0,0,0,145,145,85,1,heilig,images/br_heilig.png,images/cb_heilig.png,0,,,,,,,,,,,,,,,,,,,,,,
,,,,,00025,2023-09-06_12h24.07.827,vbt_B2_day4,2022.2.4,MacIntel,60.0024001,,,,,,down,0,9.9677,,0.097109375,0.038897569,1,0,0,0,146,146,113,1,koppen,images/br_koppen.png,images/cb_koppen.png,0,,,,,,,,,,,,,,,,,,,,,,
,,,,,00025,2023-09-06_12h24.07.827,vbt_B2_day4,2022.2.4,MacIntel,60.0024001,,,,,,down,0,0.2171,,0.097109375,0.038897569,1,0,0,0,147,147,0,1,slak,images/br_slak.png,images/cb_slak.png,0,,,,,,,,,,,,,,,,,,,,,,
,,,,,00025,2023-09-06_12h24.07.827,vbt_B2_day4,2022.2.4,MacIntel,60.0024001,,,,,,down,0,3.1946,,0.097109375,0.038897569,1,0,0,0,148,148,146,1,opkomen,images/br_opkomen.png,images/cb_opkomen.png,1,opkomen,,,,,,,,,,,,,,,,,,,,,
,,,,,00025,2023-09-06_12h24.07.827,vbt_B2_day4,2022.2.4,MacIntel,60.0024001,,,,,,down,0,0.0175,,0.097109375,0.038897569,1,0,0,0,149,149,136,1,waarbij,images/br_waarbij.png,images/cb_waarbij.png,0,,,,,,,,,,,,,,,,,,,,,,
,,,,,00025,2023-09-06_12h24.07.827,vbt_B2_day4,2022.2.4,MacIntel,60.0024001,,,,,,down,0,22.0841,,0.097109375,0.038897569,1,0,0,0,150,150,29,1,baas,images/br_baas.png,images/cb_baas.png,0,,,,,,,,,,,,,,,,,,,,,,
,,,,,00025,2023-09-06_12h24.07.827,vbt_B2_day4,2022.2.4,MacIntel,60.0024001,,,,,,down,0,0.2704,,0.097109375,0.038897569,1,0,0,0,151,151,86,1,woning,images/br_woning.png,images/cb_woning.png,0,,,,,,,,,,,,,,,,,,,,,,
,,,,,00025,2023-09-06_12h24.07.827,vbt_B2_day4,2022.2.4,MacIntel,60.0024001,,,,,,down,0,9.19,,0.097109375,0.038897569,1,0,0,0,152,152,150,1,gegeven,images/br_gegeven.png,images/cb_gegeven.png,0,,,,,,,,,,,,,,,,,,,,,,
,,,,,00025,2023-09-06_12h24.07.827,vbt_B2_day4,2022.2.4,MacIntel,60.0024001,,,,,,down,0,5.2521,,0.097109375,0.038897569,1,0,0,0,153,153,172,1,weigeren,images/br_weigeren.png,images/cb_weigeren.png,0,,,,,,,,,,,,,,,,,,,,,,
,,,,,00025,2023-09-06_12h24.07.827,vbt_B2_day4,2022.2.4,MacIntel,60.0024001,,,,,,down,0,3.2357,,0.097109375,0.038897569,1,0,0,0,154,154,103,1,joggen,images/br_joggen.png,images/cb_joggen.png,0,,,,,,,,,,,,,,,,,,,,,,
,,,,,00025,2023-09-06_12h24.07.827,vbt_B2_day4,2022.2.4,MacIntel,60.0024001,,,,,,down,0,0.071,,0.097109375,0.038897569,1,0,0,0,155,155,51,1,samen,images/br_samen.png,images/cb_samen.png,0,,,,,,,,,,,,,,,,,,,,,,
,,,,,00025,2023-09-06_12h24.07.827,vbt_B2_day4,2022.2.4,MacIntel,60.0024001,,,,,,down,0,6.8746,,0.097109375,0.038897569,1,0,0,0,156,156,1,1,zaal,images/br_zaal.png,images/cb_zaal.png,0,,,,,,,,,,,,,,,,,,,,,,
,,,,,00025,2023-09-06_12h24.07.827,vbt_B2_day4,2022.2.4,MacIntel,60.0024001,,,,,,down,0,2.2672,,0.097109375,0.038897569,1,0,0,0,157,157,104,1,zweven,images/br_zweven.png,images/cb_zweven.png,1,zweven,,,,,,,,,,,,,,,,,,,,,
,,,,,00025,2023-09-06_12h24.07.827,vbt_B2_day4,2022.2.4,MacIntel,60.0024001,,,,,,down,0,0.1149,,0.097109375,0.038897569,1,0,0,0,158,158,155,1,gerucht,images/br_gerucht.png,images/cb_gerucht.png,0,,,,,,,,,,,,,,,,,,,,,,
,,,,,00025,2023-09-06_12h24.07.827,vbt_B2_day4,2022.2.4,MacIntel,60.0024001,,,,,,down,0,0.2213,,0.097109375,0.038897569,1,0,0,0,159,159,14,1,rijp,images/br_rijp.png,images/cb_rijp.png,0,,,,,,,,,,,,,,,,,,,,,,
,,,,,00025,2023-09-06_12h24.07.827,vbt_B2_day4,2022.2.4,MacIntel,60.0024001,,,,,,down,0,0.1696,,0.097109375,0.038897569,1,0,0,0,160,160,56,1,traag,images/br_traag.png,images/cb_traag.png,0,,,,,,,,,,,,,,,,,,,,,,
,,,,,00025,2023-09-06_12h24.07.827,vbt_B2_day4,2022.2.4,MacIntel,60.0024001,,,,,,down,0,0.4194,,0.097109375,0.038897569,1,0,0,0,161,161,10,1,leek,images/br_leek.png,images/cb_leek.png,0,,,,,,,,,,,,,,,,,,,,,,
,,,,,00025,2023-09-06_12h24.07.827,vbt_B2_day4,2022.2.4,MacIntel,60.0024001,,,,,,down,0,0.3504,,0.097109375,0.038897569,1,0,0,0,162,162,180,1,openbaar,images/br_openbaar.png,images/cb_openbaar.png,0,,,,,,,,,,,,,,,,,,,,,,
,,,,,00025,2023-09-06_12h24.07.827,vbt_B2_day4,2022.2.4,MacIntel,60.0024001,,,,,,down,0,1.1341,,0.097109375,0.038897569,1,0,0,0,163,163,154,1,aflopen,images/br_aflopen.png,images/cb_aflopen.png,0,,,,,,,,,,,,,,,,,,,,,,
,,,,,00025,2023-09-06_12h24.07.827,vbt_B2_day4,2022.2.4,MacIntel,60.0024001,,,,,,down,0,4.1664,,0.097109375,0.038897569,1,0,0,0,164,164,187,1,opkijken,images/br_opkijken.png,images/cb_opkijken.png,1,opkijken,,,,,,,,,,,,,,,,,,,,,
,,,,,00025,2023-09-06_12h24.07.827,vbt_B2_day4,2022.2.4,MacIntel,60.0024001,,,,,,down,0,8.7489,,0.097109375,0.038897569,1,0,0,0,165,165,81,1,dubbel,images/br_dubbel.png,images/cb_dubbel.png,0,,,,,,,,,,,,,,,,,,,,,,
,,,,,00025,2023-09-06_12h24.07.827,vbt_B2_day4,2022.2.4,MacIntel,60.0024001,,,,,,down,0,4.9541,,0.097109375,0.038897569,1,0,0,0,166,166,54,1,gebit,images/br_gebit.png,images/cb_gebit.png,0,,,,,,,,,,,,,,,,,,,,,,
,,,,,00025,2023-09-06_12h24.07.827,vbt_B2_day4,2022.2.4,MacIntel,60.0024001,,,,,,down,0,2.8742,,0.097109375,0.038897569,1,0,0,0,167,167,111,1,ticket,images/br_ticket.png,images/cb_ticket.png,0,,,,,,,,,,,,,,,,,,,,,,
,,,,,00025,2023-09-06_12h24.07.827,vbt_B2_day4,2022.2.4,MacIntel,60.0024001,,,,,,down,0,4.555,,0.097109375,0.038897569,1,0,0,0,168,168,153,1,vervoer,images/br_vervoer.png,images/cb_vervoer.png,0,,,,,,,,,,,,,,,,,,,,,,
,,,,,00025,2023-09-06_12h24.07.827,vbt_B2_day4,2022.2.4,MacIntel,60.0024001,,,,,,down,0,0.036,,0.097109375,0.038897569,1,0,0,0,169,169,178,1,huisdier,images/br_huisdier.png,images/cb_huisdier.png,0,,,,,,,,,,,,,,,,,,,,,,
,,,,,00025,2023-09-06_12h24.07.827,vbt_B2_day4,2022.2.4,MacIntel,60.0024001,,,,,,down,0,0.5859,,0.097109375,0.038897569,1,0,0,0,170,170,142,1,snuiven,images/br_snuiven.png,images/cb_snuiven.png,0,,,,,,,,,,,,,,,,,,,,,,
,,,,,00025,2023-09-06_12h24.07.827,vbt_B2_day4,2022.2.4,MacIntel,60.0024001,,,,,,down,0,0.3847,,0.097109375,0.038897569,1,0,0,0,171,171,188,1,strekken,images/br_strekken.png,images/cb_strekken.png,0,,,,,,,,,,,,,,,,,,,,,,
,,,,,00025,2023-09-06_12h24.07.827,vbt_B2_day4,2022.2.4,MacIntel,60.0024001,,,,,,down,0,1.7865,,0.097109375,0.038897569,1,0,0,0,172,172,106,1,zingen,images/br_zingen.png,images/cb_zingen.png,1,zingen,,,,,,,,,,,,,,,,,,,,,
,,,,,00025,2023-09-06_12h24.07.827,vbt_B2_day4,2022.2.4,MacIntel,60.0024001,,,,,,down,0,0.2189,,0.097109375,0.038897569,1,0,0,0,173,173,74,1,graaf,images/br_graaf.png,images/cb_graaf.png,0,,,,,,,,,,,,,,,,,,,,,,
,,,,,00025,2023-09-06_12h24.07.827,vbt_B2_day4,2022.2.4,MacIntel,60.0024001,,,,,,down,0,0.0671,,0.097109375,0.038897569,1,0,0,0,174,174,49,1,laken,images/br_laken.png,images/cb_laken.png,0,,,,,,,,,,,,,,,,,,,,,,
,,,,,00025,2023-09-06_12h24.07.827,vbt_B2_day4,2022.2.4,MacIntel,60.0024001,,,,,,down,0,3.4183,,0.097109375,0.038897569,1,0,0,0,175,175,145,1,invloed,images/br_invloed.png,images/cb_invloed.png,1,invloed,,,,,,,,,,,,,,,,,,,,,
,,,,,00025,2023-09-06_12h24.07.827,vbt_B2_day4,2022.2.4,MacIntel,60.0024001,,,,,,down,0,1.9671,,-0.066545139,0.016167535,1,0,0,0,176,176,182,1,bijkomen,images/br_bijkomen.png,images/cb_bijkomen.png,0,,,,,,,,,,,,,,,,,,,,,,
,,,,,00025,2023-09-06_12h24.07.827,vbt_B2_day4,2022.2.4,MacIntel,60.0024001,,,,,,down,0,0.3866,,-0.066545139,0.016167535,1,0,0,0,177,177,64,1,wegen,images/br_wegen.png,images/cb_wegen.png,1,wegen,,,,,,,,,,,,,,,,,,,,,
,,,,,00025,2023-09-06_12h24.07.827,vbt_B2_day4,2022.2.4,MacIntel,60.0024001,,,,,,down,0,5.8997,,-0.066545139,0.016167535,1,0,0,0,178,178,30,1,uien,images/br_uien.png,images/cb_uien.png,0,,,,,,,,,,,,,,,,,,,,,,
,,,,,00025,2023-09-06_12h24.07.827,vbt_B2_day4,2022.2.4,MacIntel,60.0024001,,,,,,down,0,1.4009,,-0.066545139,0.016167535,1,0,0,0,179,179,107,1,maling,images/br_maling.png,images/cb_maling.png,1,maling,,,,,,,,,,,,,,,,,,,,,
,,,,,00025,2023-09-06_12h24.07.827,vbt_B2_day4,2022.2.4,MacIntel,60.0024001,,,,,,down,0,2.8862,,0.146818576,0.051848958,1,0,0,0,180,180,109,1,totaal,images/br_totaal.png,images/cb_totaal.png,0,,,,,,,,,,,,,,,,,,,,,,
,,,,,00025,2023-09-06_12h24.07.827,vbt_B2_day4,2022.2.4,MacIntel,60.0024001,,,,,,down,0,0.8691,,0.146818576,0.051848958,1,0,0,0,181,181,27,1,dans,images/br_dans.png,images/cb_dans.png,1,dans,,,,,,,,,,,,,,,,,,,,,
,,,,,00025,2023-09-06_12h24.07.827,vbt_B2_day4,2022.2.4,MacIntel,60.0024001,,,,,,down,0,1.894,,0.097243924,-0.020490451,1,0,0,0,182,182,163,1,schuilen,images/br_schuilen.png,images/cb_schuilen.png,0,,,,,,,,,,,,,,,,,,,,,,
,,,,,00025,2023-09-06_12h24.07.827,vbt_B2_day4,2022.2.4,MacIntel,60.0024001,,,,,,down,0,1.2554,,0.097243924,-0.020490451,1,0,0,0,183,183,67,1,zwart,images/br_zwart.png,images/cb_zwart.png,1,zwart,,,,,,,,,,,,,,,,,,,,,
,,,,,00025,2023-09-06_12h24.07.827,vbt_B2_day4,2022.2.4,MacIntel,60.0024001,,,,,,down,0,0.2796,,0.118407118,-0.037200521,1,0,0,0,184,184,31,1,poes,images/br_poes.png,images/cb_poes.png,0,,,,,,,,,,,,,,,,,,,,,,
,,,,,00025,2023-09-06_12h24.07.827,vbt_B2_day4,2022.2.4,MacIntel,60.0024001,,,,,,down,0,8.3839,,0.117174479,-0.03796875,1,0,0,0,185,185,191,1,opheffen,images/br_opheffen.png,images/cb_opheffen.png,0,,,,,,,,,,,,,,,,,,,,,,
,,,,,00025,2023-09-06_12h24.07.827,vbt_B2_day4,2022.2.4,MacIntel,60.0024001,,,,,,down,0,0.3564,,0.114813368,-0.033802083,1,0,0,0,186,186,91,1,gezond,images/br_gezond.png,images/cb_gezond.png,0,,,,,,,,,,,,,,,,,,,,,,
,,,,,00025,2023-09-06_12h24.07.827,vbt_B2_day4,2022.2.4,MacIntel,60.0024001,,,,,,down,0,0.2674,,0.114813368,-0.03546875,1,0,0,0,187,187,72,1,strak,images/br_strak.png,images/cb_strak.png,0,,,,,,,,,,,,,,,,,,,,,,
,,,,,00025,2023-09-06_12h24.07.827,vbt_B2_day4,2022.2.4,MacIntel,60.0024001,,,,,,down,0,0.2544,,0.114813368,-0.034657118,1,0,0,0,188,188,50,1,stoom,images/br_stoom.png,images/cb_stoom.png,0,,,,,,,,,,,,,,,,,,,,,,
,,,,,00025,2023-09-06_12h24.07.827,vbt_B2_day4,2022.2.4,MacIntel,60.0024001,,,,,,down,0,3.6515,,0.115065104,-0.034917535,1,0,0,0,189,189,110,1,zuster,images/br_zuster.png,images/cb_zuster.png,0,,,,,,,,,,,,,,,,,,,,,,
,,,,,00025,2023-09-06_12h24.07.827,vbt_B2_day4,2022.2.4,MacIntel,60.0024001,,,,,,down,0,0.5035,,0.115065104,-0.034917535,1,0,0,0,190,190,12,1,kust,images/br_kust.png,images/cb_kust.png,0,,,,,,,,,,,,,,,,,,,,,,
,,,,,00025,2023-09-06_12h24.07.827,vbt_B2_day4,2022.2.4,MacIntel,60.0024001,,,,,,down,0,13.2827,,0.115065104,-0.034917535,1,0,0,0,191,191,95,1,vreten,images/br_vreten.png,images/cb_vreten.png,0,,,,,,,,,,,,,,,,,,,,,,
,,,,,00025,2023-09-06_12h24.07.827,vbt_B2_day4,2022.2.4,MacIntel,60.0024001,,,,,,down,0,2.4014,,0.115065104,-0.034917535,1,0,0,0,192,192,174,1,stemming,images/br_stemming.png,images/cb_stemming.png,0,,,,,,,,,,,,,,,,,,,,,,
,,,,,00025,2023-09-06_12h24.07.827,vbt_B2_day4,2022.2.4,MacIntel,60.0024001,,,,,,down,0,1.7477,,0.115065104,-0.034917535,1,0,0,0,193,193,79,1,nodig,images/br_nodig.png,images/cb_nodig.png,0,,,,,,,,,,,,,,,,,,,,,,
,,,,,00025,2023-09-06_12h24.07.827,vbt_B2_day4,2022.2.4,MacIntel,60.0024001,,,,,,down,0,0.0202,,0.115065104,-0.034917535,1,0,0,0,194,194,141,1,knielen,images/br_knielen.png,images/cb_knielen.png,0,,,,,,,,,,,,,,,,,,,,,,
,,,,,00025,2023-09-06_12h24.07.827,vbt_B2_day4,2022.2.4,MacIntel,60.0024001,,,,,,down,0,0.3061,,0.115065104,-0.034917535,1,0,0,0,195,195,65,1,parel,images/br_parel.png,images/cb_parel.png,1,parel,,,,,,,,,,,,,,,,,,,,,
,,,,,00025,2023-09-06_12h24.07.827,vbt_B2_day4,2022.2.4,MacIntel,60.0024001,,,,,,down,0,0.0392,,0.115065104,-0.035434028,1,0,0,0,196,196,75,1,snoep,images/br_snoep.png,images/cb_snoep.png,0,,,,,,,,,,,,,,,,,,,,,,
,,,,,00025,2023-09-06_12h24.07.827,vbt_B2_day4,2022.2.4,MacIntel,60.0024001,,,,,,down,0,0.7676,,0.115065104,-0.035434028,1,0,0,0,197,197,77,1,woede,images/br_woede.png,images/cb_woede.png,0,,,,,,,,,,,,,,,,,,,,,,
,,,,,00025,2023-09-06_12h24.07.827,vbt_B2_day4,2022.2.4,MacIntel,60.0024001,,,,,,down,0,0.5071,,0.115065104,-0.035434028,1,0,0,0,198,198,186,1,voorraad,images/br_voorraad.png,images/cb_voorraad.png,1,voorraad,,,,,,,,,,,,,,,,,,,,,
,,,,,00025,2023-09-06_12h24.07.827,vbt_B2_day4,2022.2.4,MacIntel,60.0024001,,,,,,down,0,0.3216,,0.010360243,-0.008072917,1,0,0,0,199,199,7,1,geld,images/br_geld.png,images/cb_geld.png,0,,,,,,,,,,,,,,,,,,,,,,
,,,,,00025,2023-09-06_12h24.07.827,vbt_B2_day4,2022.2.4,MacIntel,60.0024001,,,,,,,,,,,,,,,,,,,,,,,,,0.034296875,-0.114578993,1,0,0,,,,,,,,,,,,,,,,
,,,,,00025,2023-09-06_12h24.07.827,vbt_B2_day4,2022.2.4,MacIntel,60.0024001,,,,,,,,,,,,,,,,,,,,,,,,,,,,,,0.034296875,-0.116349826,1,0,0,,,,,,,,,,,
,,,,,00025,2023-09-06_12h24.07.827,vbt_B2_day4,2022.2.4,MacIntel,60.0024001,,,,,,,,,,,,,,,,,,,,drooien,images/br_drooien.png,images/cb_drooien.png,,drooier,,,,,,,,,,,-0.026948785,-0.19812066,1,0,0,drooier,0,0,0,32,1
,,,,,00025,2023-09-06_12h24.07.827,vbt_B2_day4,2022.2.4,MacIntel,60.0024001,,,,,,,,,,,,,,,,,,,,gaan,images/br_gaan.png,images/cb_gaan.png,,gaan,,,,,,,,,,,-0.074435764,-0.042955729,1,0,0,gaan,0,1,1,41,1
,,,,,00025,2023-09-06_12h24.07.827,vbt_B2_day4,2022.2.4,MacIntel,60.0024001,,,,,,,,,,,,,,,,,,,,gijf,images/br_gijf.png,images/cb_gijf.png,,gihf,,,,,,,,,,,0.057178819,-0.014414062,1,0,0,gihf,0,2,2,23,1
,,,,,00025,2023-09-06_12h24.07.827,vbt_B2_day4,2022.2.4,MacIntel,60.0024001,,,,,,,,,,,,,,,,,,,,strok,images/br_strok.png,images/cb_strok.png,,strok,,,,,,,,,,,0.142747396,-0.052369792,1,0,0,strok,0,3,3,25,1
,,,,,00025,2023-09-06_12h24.07.827,vbt_B2_day4,2022.2.4,MacIntel,60.0024001,,,,,,,,,,,,,,,,,,,,kust,images/br_kust.png,images/cb_kust.png,,kust,,,,,,,,,,,0.108858507,-0.036940104,1,0,0,kust,0,4,4,0,1
,,,,,00025,2023-09-06_12h24.07.827,vbt_B2_day4,2022.2.4,MacIntel,60.0024001,,,,,,,,,,,,,,,,,,,,warel,images/br_warel.png,images/cb_warel.png,,warel,,,,,,,,,,,0.07562066,-0.010868056,1,0,0,warel,0,5,5,26,1
,,,,,00025,2023-09-06_12h24.07.827,vbt_B2_day4,2022.2.4,MacIntel,60.0024001,,,,,,,,,,,,,,,,,,,,stemming,images/br_stemming.png,images/cb_stemming.png,,stemming,,,,,,,,,,,0.191111111,-0.039605035,1,0,0,stemming,0,6,6,18,1
,,,,,00025,2023-09-06_12h24.07.827,vbt_B2_day4,2022.2.4,MacIntel,60.0024001,,,,,,,,,,,,,,,,,,,,paalbaak,images/br_paalbaak.png,images/cb_paalbaak.png,,paalbaam,,,,,,,,,,,0.20578125,-0.033493924,1,0,0,paalbaam,0,7,7,39,1
,,,,,00025,2023-09-06_12h24.07.827,vbt_B2_day4,2022.2.4,MacIntel,60.0024001,,,,,,,,,,,,,,,,,,,,lappen,images/br_lappen.png,images/cb_lappen.png,,lappen,,,,,,,,,,,0.076219618,-0.022586806,1,0,0,lappen,0,8,8,49,1
,,,,,00025,2023-09-06_12h24.07.827,vbt_B2_day4,2022.2.4,MacIntel,60.0024001,,,,,,,,,,,,,,,,,,,,baron,images/br_baron.png,images/cb_baron.png,,baron,,,,,,,,,,,0.129110243,-0.037148437,1,0,0,baron,0,9,9,5,1
,,,,,00025,2023-09-06_12h24.07.827,vbt_B2_day4,2022.2.4,MacIntel,60.0024001,,,,,,,,,,,,,,,,,,,,zwek,images/br_zwek.png,images/cb_zwek.png,,zwek,,,,,,,,,,,0.169127604,-0.033394097,1,0,0,zwek,0,10,10,20,1
,,,,,00025,2023-09-06_12h24.07.827,vbt_B2_day4,2022.2.4,MacIntel,60.0024001,,,,,,,,,,,,,,,,,,,,schotel,images/br_schotel.png,images/cb_schotel.png,,schotel,,,,,,,,,,,0.141202257,-0.027664931,1,0,0,schotel,0,11,11,52,1
,,,,,00025,2023-09-06_12h24.07.827,vbt_B2_day4,2022.2.4,MacIntel,60.0024001,,,,,,,,,,,,,,,,,,,,oceaan,images/br_oceaan.png,images/cb_oceaan.png,,oceaan,,,,,,,,,,,-0.03875,-0.013068576,1,0,0,oceaan,0,12,12,10,1
,,,,,00025,2023-09-06_12h24.07.827,vbt_B2_day4,2022.2.4,MacIntel,60.0024001,,,,,,,,,,,,,,,,,,,,gebit,images/br_gebit.png,images/cb_gebit.png,,gecit,,,,,,,,,,,0.072083333,-0.025321181,1,0,0,gecit,0,13,13,6,1
,,,,,00025,2023-09-06_12h24.07.827,vbt_B2_day4,2022.2.4,MacIntel,60.0024001,,,,,,,,,,,,,,,,,,,,bisschap,images/br_bisschap.png,images/cb_bisschap.png,,bisschop,,,,,,,,,,,0.014318576,-0.017178819,1,0,0,bisschop,0,14,14,36,1
,,,,,00025,2023-09-06_12h24.07.827,vbt_B2_day4,2022.2.4,MacIntel,60.0024001,,,,,,,,,,,,,,,,,,,,mekst,images/br_mekst.png,images/cb_mekst.png,,mekst,,,,,,,,,,,0.114878472,-0.022530382,1,0,0,mekst,0,15,15,27,1
,,,,,00025,2023-09-06_12h24.07.827,vbt_B2_day4,2022.2.4,MacIntel,60.0024001,,,,,,,,,,,,,,,,,,,,sulbon,images/br_sulbon.png,images/cb_sulbon.png,,sulbon,,,,,,,,,,,0.109205729,-0.03812934,1,0,0,sulbon,0,16,16,31,1
,,,,,00025,2023-09-06_12h24.07.827,vbt_B2_day4,2022.2.4,MacIntel,60.0024001,,,,,,,,,,,,,,,,,,,,bruin,images/br_bruin.png,images/cb_bruin.png,,bruin,,,,,,,,,,,0.073085938,-0.017126736,1,0,0,bruin,0,17,17,45,1
,,,,,00025,2023-09-06_12h24.07.827,vbt_B2_day4,2022.2.4,MacIntel,60.0024001,,,,,,,,,,,,,,,,,,,,vreten,images/br_vreten.png,images/cb_vreten.png,,vreten,,,,,,,,,,,0.02905816,-0.017617187,1,0,0,vreten,0,18,18,11,1
,,,,,00025,2023-09-06_12h24.07.827,vbt_B2_day4,2022.2.4,MacIntel,60.0024001,,,,,,,,,,,,,,,,,,,,waarop,images/br_waarop.png,images/cb_waarop.png,,waarop,,,,,,,,,,,0.037309028,-0.042052951,1,0,0,waarop,0,19,19,9,1
,,,,,00025,2023-09-06_12h24.07.827,vbt_B2_day4,2022.2.4,MacIntel,60.0024001,,,,,,,,,,,,,,,,,,,,soda,images/br_soda.png,images/cb_soda.png,,sode,,,,,,,,,,,0.064309896,-0.006783854,1,0,0,sode,0,20,20,3,1
,,,,,00025,2023-09-06_12h24.07.827,vbt_B2_day4,2022.2.4,MacIntel,60.0024001,,,,,,,,,,,,,,,,,,,,tucket,images/br_tucket.png,images/cb_tucket.png,,tucket,,,,,,,,,,,0.052096354,-0.041197917,1,0,0,tucket,0,21,21,30,1
,,,,,00025,2023-09-06_12h24.07.827,vbt_B2_day4,2022.2.4,MacIntel,60.0024001,,,,,,,,,,,,,,,,,,,,drummer,images/br_drummer.png,images/cb_drummer.png,,drummer,,,,,,,,,,,0.168155382,-0.025920139,1,0,0,drummer,0,22,22,53,1
,,,,,00025,2023-09-06_12h24.07.827,vbt_B2_day4,2022.2.4,MacIntel,60.0024001,,,,,,,,,,,,,,,,,,,,rijp,images/br_rijp.png,images/cb_rijp.png,,ri.p,,,,,,,,,,,0.121688368,0.001202257,1,0,0,ri.p,0,23,23,2,1
,,,,,00025,2023-09-06_12h24.07.827,vbt_B2_day4,2022.2.4,MacIntel,60.0024001,,,,,,,,,,,,,,,,,,,,aanzwaag,images/br_aanzwaag.png,images/cb_aanzwaag.png,,aanzwaag,,,,,,,,,,,0.009388021,-0.03468316,1,0,0,aanzwaag,0,24,24,38,1
,,,,,00025,2023-09-06_12h24.07.827,vbt_B2_day4,2022.2.4,MacIntel,60.0024001,,,,,,,,,,,,,,,,,,,,praat,images/br_praat.png,images/cb_praat.png,,praat,,,,,,,,,,,0.114184028,-0.022469618,1,0,0,praat,0,25,25,7,1
,,,,,00025,2023-09-06_12h24.07.827,vbt_B2_day4,2022.2.4,MacIntel,60.0024001,,,,,,,,,,,,,,,,,,,,gedicht,images/br_gedicht.png,images/cb_gedicht.png,,gedicht,,,,,,,,,,,0.165234375,-0.012543403,1,0,0,gedicht,0,26,26,15,1
,,,,,00025,2023-09-06_12h24.07.827,vbt_B2_day4,2022.2.4,MacIntel,60.0024001,,,,,,,,,,,,,,,,,,,,pittig,images/br_pittig.png,images/cb_pittig.png,,pittig,,,,,,,,,,,0.139301215,-0.033051215,1,0,0,pittig,0,27,27,51,1
,,,,,00025,2023-09-06_12h24.07.827,vbt_B2_day4,2022.2.4,MacIntel,60.0024001,,,,,,,,,,,,,,,,,,,,weigeren,images/br_weigeren.png,images/cb_weigeren.png,,weigeren,,,,,,,,,,,0.192161458,-0.01765625,1,0,0,weigeren,0,28,28,16,1
,,,,,00025,2023-09-06_12h24.07.827,vbt_B2_day4,2022.2.4,MacIntel,60.0024001,,,,,,,,,,,,,,,,,,,,seizoen,images/br_seizoen.png,images/cb_seizoen.png,,seizoen,,,,,,,,,,,0.098710937,-0.013107639,1,0,0,seizoen,0,29,29,13,1
,,,,,00025,2023-09-06_12h24.07.827,vbt_B2_day4,2022.2.4,MacIntel,60.0024001,,,,,,,,,,,,,,,,,,,,eerst,images/br_eerst.png,images/cb_eerst.png,,eerst,,,,,,,,,,,0.086727431,-0.036692708,1,0,0,eerst,0,30,30,47,1
,,,,,00025,2023-09-06_12h24.07.827,vbt_B2_day4,2022.2.4,MacIntel,60.0024001,,,,,,,,,,,,,,,,,,,,dozijn,images/br_dozijn.png,images/cb_dozijn.png,,dozi.n,,,,,,,,,,,0.107278646,-0.009722222,1,0,0,dozi.n,0,31,31,48,1
,,,,,00025,2023-09-06_12h24.07.827,vbt_B2_day4,2022.2.4,MacIntel,60.0024001,,,,,,,,,,,,,,,,,,,,zaalrijk,images/br_zaalrijk.png,images/cb_zaalrijk.png,,zaalri..,,,,,,,,,,,0.193537326,0.00766059,1,0,0,zaalri..,0,32,32,37,1
,,,,,00025,2023-09-06_12h24.07.827,vbt_B2_day4,2022.2.4,MacIntel,60.0024001,,,,,,,,,,,,,,,,,,,,snee,images/br_snee.png,images/cb_snee.png,,snee,,,,,,,,,,,0.03280816,-0.003680556,1,0,0,snee,0,33,33,40,1
,,,,,00025,2023-09-06_12h24.07.827,vbt_B2_day4,2022.2.4,MacIntel,60.0024001,,,,,,,,,,,,,,,,,,,,toevol,images/br_toevol.png,images/cb_toevol.png,,toevol,,,,,,,,,,,0.124184028,-0.012721354,1,0,0,toevol,0,34,34,29,1
,,,,,00025,2023-09-06_12h24.07.827,vbt_B2_day4,2022.2.4,MacIntel,60.0024001,,,,,,,,,,,,,,,,,,,,dalen,images/br_dalen.png,images/cb_dalen.png,,dalen,,,,,,,,,,,0.115911458,-0.034813368,1,0,0,dalen,0,35,35,46,1
,,,,,00025,2023-09-06_12h24.07.827,vbt_B2_day4,2022.2.4,MacIntel,60.0024001,,,,,,,,,,,,,,,,,,,,wagon,images/br_wagon.png,images/cb_wagon.png,,wagon,,,,,,,,,,,-0.082174479,-0.030989583,1,0,0,wagon,0,36,36,4,1
,,,,,00025,2023-09-06_12h24.07.827,vbt_B2_day4,2022.2.4,MacIntel,60.0024001,,,,,,,,,,,,,,,,,,,,gebog,images/br_gebog.png,images/cb_gebog.png,,gebog,,,,,,,,,,,-0.028164062,-0.024175347,1,0,0,gebog,0,37,37,24,1
,,,,,00025,2023-09-06_12h24.07.827,vbt_B2_day4,2022.2.4,MacIntel,60.0024001,,,,,,,,,,,,,,,,,,,,opkicht,images/br_opkicht.png,images/cb_opkicht.png,,opkicht,,,,,,,,,,,0.070368924,0.019392361,1,0,0,opkicht,0,38,38,34,1
,,,,,00025,2023-09-06_12h24.07.827,vbt_B2_day4,2022.2.4,MacIntel,60.0024001,,,,,,,,,,,,,,,,,,,,steen,images/br_steen.png,images/cb_steen.png,,steen,,,,,,,,,,,0.139314236,-0.032630208,1,0,0,steen,0,39,39,44,1
,,,,,00025,2023-09-06_12h24.07.827,vbt_B2_day4,2022.2.4,MacIntel,60.0024001,,,,,,,,,,,,,,,,,,,,getucht,images/br_getucht.png,images/cb_getucht.png,,getucht,,,,,,,,,,,0.071514757,-0.000442708,1,0,0,getucht,0,40,40,35,1
,,,,,00025,2023-09-06_12h24.07.827,vbt_B2_day4,2022.2.4,MacIntel,60.0024001,,,,,,,,,,,,,,,,,,,,flippen,images/br_flippen.png,images/cb_flippen.png,,flippen,,,,,,,,,,,0.07219184,-0.069522569,1,0,0,flippen,0,41,41,54,1
,,,,,00025,2023-09-06_12h24.07.827,vbt_B2_day4,2022.2.4,MacIntel,60.0024001,,,,,,,,,,,,,,,,,,,,apparaat,images/br_apparaat.png,images/cb_apparaat.png,,apparaat,,,,,,,,,,,0.182478299,-0.059895833,1,0,0,apparaat,0,42,42,17,1
,,,,,00025,2023-09-06_12h24.07.827,vbt_B2_day4,2022.2.4,MacIntel,60.0024001,,,,,,,,,,,,,,,,,,,,kaal,images/br_kaal.png,images/cb_kaal.png,,kaal,,,,,,,,,,,0.060108507,-0.02765625,1,0,0,kaal,0,43,43,1,1
,,,,,00025,2023-09-06_12h24.07.827,vbt_B2_day4,2022.2.4,MacIntel,60.0024001,,,,,,,,,,,,,,,,,,,,noodzaak,images/br_noodzaak.png,images/cb_noodzaak.png,,noodzaak,,,,,,,,,,,0.135303819,-0.084075521,1,0,0,noodzaak,0,44,44,56,1
,,,,,00025,2023-09-06_12h24.07.827,vbt_B2_day4,2022.2.4,MacIntel,60.0024001,,,,,,,,,,,,,,,,,,,,fran,images/br_fran.png,images/cb_fran.png,,.ran,,,,,,,,,,,0.11641059,-0.042751736,1,0,0,.ran,0,45,45,22,1
,,,,,00025,2023-09-06_12h24.07.827,vbt_B2_day4,2022.2.4,MacIntel,60.0024001,,,,,,,,,,,,,,,,,,,,gaaf,images/br_gaaf.png,images/cb_gaaf.png,,gaaf,,,,,,,,,,,0.098211806,-0.018489583,1,0,0,gaaf,0,46,46,43,1
,,,,,00025,2023-09-06_12h24.07.827,vbt_B2_day4,2022.2.4,MacIntel,60.0024001,,,,,,,,,,,,,,,,,,,,midden,images/br_midden.png,images/cb_midden.png,,midden,,,,,,,,,,,0.130564236,0.016028646,1,0,0,midden,0,47,47,50,1
,,,,,00025,2023-09-06_12h24.07.827,vbt_B2_day4,2022.2.4,MacIntel,60.0024001,,,,,,,,,,,,,,,,,,,,geliefd,images/br_geliefd.png,images/cb_geliefd.png,,geliefd,,,,,,,,,,,0.233871528,-0.010724826,1,0,0,geliefd,0,48,48,14,1
,,,,,00025,2023-09-06_12h24.07.827,vbt_B2_day4,2022.2.4,MacIntel,60.0024001,,,,,,,,,,,,,,,,,,,,geheim,images/br_geheim.png,images/cb_geheim.png,,geheim,,,,,,,,,,,0.137113715,-0.002717014,1,0,0,geheim,0,49,49,8,1
,,,,,00025,2023-09-06_12h24.07.827,vbt_B2_day4,2022.2.4,MacIntel,60.0024001,,,,,,,,,,,,,,,,,,,,broodje,images/br_broodje.png,images/cb_broodje.png,,broo..e,,,,,,,,,,,0.066649306,-0.030455729,1,0,0,broo..e,0,50,50,55,1
,,,,,00025,2023-09-06_12h24.07.827,vbt_B2_day4,2022.2.4,MacIntel,60.0024001,,,,,,,,,,,,,,,,,,,,wozing,images/br_wozing.png,images/cb_wozing.png,,wozing,,,,,,,,,,,0.096219618,-0.017352431,1,0,0,wozing,0,51,51,28,1
,,,,,00025,2023-09-06_12h24.07.827,vbt_B2_day4,2022.2.4,MacIntel,60.0024001,,,,,,,,,,,,,,,,,,,,ezel,images/br_ezel.png,images/cb_ezel.png,,ezel,,,,,,,,,,,0.070164931,-0.001553819,1,0,0,ezel,0,52,52,42,1
,,,,,00025,2023-09-06_12h24.07.827,vbt_B2_day4,2022.2.4,MacIntel,60.0024001,,,,,,,,,,,,,,,,,,,,grappen,images/br_grappen.png,images/cb_grappen.png,,grappen,,,,,,,,,,,0.060642361,-0.016440972,1,0,0,grappen,0,53,53,12,1
,,,,,00025,2023-09-06_12h24.07.827,vbt_B2_day4,2022.2.4,MacIntel,60.0024001,,,,,,,,,,,,,,,,,,,,haza,images/br_haza.png,images/cb_haza.png,,jaza,,,,,,,,,,,0.04906684,-0.032838542,1,0,0,jaza,0,54,54,21,1
,,,,,00025,2023-09-06_12h24.07.827,vbt_B2_day4,2022.2.4,MacIntel,60.0024001,,,,,,,,,,,,,,,,,,,,pijnlijk,images/br_pijnlijk.png,images/cb_pijnlijk.png,,pinlin,,,,,,,,,,,-0.128229167,0.042291667,1,0,0,pinlin,0,55,55,58,1
,,,,,00025,2023-09-06_12h24.07.827,vbt_B2_day4,2022.2.4,MacIntel,60.0024001,,,,,,,,,,,,,,,,,,,,schenden,images/br_schenden.png,images/cb_schenden.png,,schenden,,,,,,,,,,,0.065594618,-0.019513889,1,0,0,schenden,0,56,56,57,1
,,,,,00025,2023-09-06_12h24.07.827,vbt_B2_day4,2022.2.4,MacIntel,60.0024001,,,,,,,,,,,,,,,,,,,,heengaan,images/br_heengaan.png,images/cb_heengaan.png,,heengaan,,,,,,,,,,,0.160256076,-0.00546875,1,0,0,heengaan,0,57,57,19,1
,,,,,00025,2023-09-06_12h24.07.827,vbt_B2_day4,2022.2.4,MacIntel,60.0024001,,,,,,,,,,,,,,,,,,,,seizoon,images/br_seizoon.png,images/cb_seizoon.png,,seizoon,,,,,,,,,,,0.16297309,-0.044179688,1,0,0,seizoon,0,58,58,33,1
,,,,,00025,2023-09-06_12h24.07.827,vbt_B2_day4,2022.2.4,MacIntel,60.0024001,,,,,,,,,,,,,,,,,,,,opruimen,images/br_opruimen.png,images/cb_opruimen.png,,opruimen,,,,,,,,,,,0.118003472,0.016480035,1,0,0,opruimen,0,59,59,59,1
,,,,,00025,2023-09-06_12h24.07.827,vbt_B2_day4,2022.2.4,MacIntel,60.0024001,,,,,,,,,,,,,,,,,,,,,,,,,,,,,,,,,,,,,,,,,,,,,
