welcome_mouse.x,welcome_mouse.y,welcome_mouse.leftButton,welcome_mouse.midButton,welcome_mouse.rightButton,"ID",date,expName,psychopyVersion,OS,frameRate,participant,trainInstr_mouse.x,trainInstr_mouse.y,trainInstr_mouse.leftButton,trainInstr_mouse.midButton,trainInstr_mouse.rightButton,translation_key.keys,translation_key.corr,translation_key.rt,word_rsp.text,trWrd_mouse.x,trWrd_mouse.y,trWrd_mouse.leftButton,trWrd_mouse.midButton,trWrd_mouse.rightButton,train_loop.thisRepN,train_loop.thisTrialN,train_loop.thisN,train_loop.thisIndex,train_loop.ran,nlWrd,brWrd,cbWrd,test,testResp,mouse.x,mouse.y,mouse.leftButton,mouse.midButton,mouse.rightButton,testInstr_mouse.x,testInstr_mouse.y,testInstr_mouse.leftButton,testInstr_mouse.midButton,testInstr_mouse.rightButton,test_mouse.x,test_mouse.y,test_mouse.leftButton,test_mouse.midButton,test_mouse.rightButton,test_response.text,test_loop.thisRepN,test_loop.thisTrialN,test_loop.thisN,test_loop.thisIndex,test_loop.ran
-0.136111111,-0.230555556,1,0,0,,2023-09-08_16h57.41.947,vbt_B2_day4,2022.2.4,Win32,60.4924082,55756,,,,,,,,,,,,,,,,,,,,,,,,,,,,,,,,,,,,,,,,,,,,,
,,,,,,2023-09-08_16h57.41.947,vbt_B2_day4,2022.2.4,Win32,60.4924082,55756,-0.136111111,-0.230555556,1,0,0,,,,,,,,,,,,,,,,,,,,,,,,,,,,,,,,,,,,,,,,
,,,,,,2023-09-08_16h57.41.947,vbt_B2_day4,2022.2.4,Win32,60.4924082,55756,,,,,,down,0,11.6199,,-0.136111111,-0.230555556,1,0,0,0,0,0,123,1,hiervan,images/br_hiervan.png,images/cb_hiervan.png,0,,,,,,,,,,,,,,,,,,,,,,
,,,,,,2023-09-08_16h57.41.947,vbt_B2_day4,2022.2.4,Win32,60.4924082,55756,,,,,,down,0,0.2156,,-0.136111111,-0.230555556,1,0,0,0,1,1,36,1,vuur,images/br_vuur.png,images/cb_vuur.png,0,,,,,,,,,,,,,,,,,,,,,,
,,,,,,2023-09-08_16h57.41.947,vbt_B2_day4,2022.2.4,Win32,60.4924082,55756,,,,,,down,0,1.8326,,-0.136111111,-0.230555556,1,0,0,0,2,2,86,1,woning,images/br_woning.png,images/cb_woning.png,0,,,,,,,,,,,,,,,,,,,,,,
,,,,,,2023-09-08_16h57.41.947,vbt_B2_day4,2022.2.4,Win32,60.4924082,55756,,,,,,down,0,1.5499,,-0.136111111,-0.230555556,1,0,0,0,3,3,142,1,snuiven,images/br_snuiven.png,images/cb_snuiven.png,0,,,,,,,,,,,,,,,,,,,,,,
,,,,,,2023-09-08_16h57.41.947,vbt_B2_day4,2022.2.4,Win32,60.4924082,55756,,,,,,down,0,1.7571,,-0.136111111,-0.230555556,1,0,0,0,4,4,106,1,zingen,images/br_zingen.png,images/cb_zingen.png,1,zingen,,,,,,,,,,,,,,,,,,,,,
,,,,,,2023-09-08_16h57.41.947,vbt_B2_day4,2022.2.4,Win32,60.4924082,55756,,,,,,down,0,0.6337,,-0.136111111,-0.230555556,1,0,0,0,5,5,112,1,lukken,images/br_lukken.png,images/cb_lukken.png,0,,,,,,,,,,,,,,,,,,,,,,
,,,,,,2023-09-08_16h57.41.947,vbt_B2_day4,2022.2.4,Win32,60.4924082,55756,,,,,,down,0,2.6494,,-0.136111111,-0.230555556,1,0,0,0,6,6,5,1,blad,images/br_blad.png,images/cb_blad.png,0,,,,,,,,,,,,,,,,,,,,,,
,,,,,,2023-09-08_16h57.41.947,vbt_B2_day4,2022.2.4,Win32,60.4924082,55756,,,,,,down,0,1.9575,,-0.136111111,-0.230555556,1,0,0,0,7,7,138,1,akkoord,images/br_akkoord.png,images/cb_akkoord.png,0,,,,,,,,,,,,,,,,,,,,,,
,,,,,,2023-09-08_16h57.41.947,vbt_B2_day4,2022.2.4,Win32,60.4924082,55756,,,,,,down,0,6.3665,,-0.136111111,-0.230555556,1,0,0,0,8,8,176,1,techniek,images/br_techniek.png,images/cb_techniek.png,0,,,,,,,,,,,,,,,,,,,,,,
,,,,,,2023-09-08_16h57.41.947,vbt_B2_day4,2022.2.4,Win32,60.4924082,55756,,,,,,down,0,1.0832,,-0.136111111,-0.230555556,1,0,0,0,9,9,108,1,excuus,images/br_excuus.png,images/cb_excuus.png,0,,,,,,,,,,,,,,,,,,,,,,
,,,,,,2023-09-08_16h57.41.947,vbt_B2_day4,2022.2.4,Win32,60.4924082,55756,,,,,,down,0,2.1518,,-0.136111111,-0.230555556,1,0,0,0,10,10,148,1,smullen,images/br_smullen.png,images/cb_smullen.png,0,,,,,,,,,,,,,,,,,,,,,,
,,,,,,2023-09-08_16h57.41.947,vbt_B2_day4,2022.2.4,Win32,60.4924082,55756,,,,,,down,0,1.766,,-0.136111111,-0.230555556,1,0,0,0,11,11,143,1,hechten,images/br_hechten.png,images/cb_hechten.png,0,,,,,,,,,,,,,,,,,,,,,,
,,,,,,2023-09-08_16h57.41.947,vbt_B2_day4,2022.2.4,Win32,60.4924082,55756,,,,,,down,0,58.522,,-0.136111111,-0.230555556,1,0,0,0,12,12,187,1,opkijken,images/br_opkijken.png,images/cb_opkijken.png,1,opkijken,,,,,,,,,,,,,,,,,,,,,
,,,,,,2023-09-08_16h57.41.947,vbt_B2_day4,2022.2.4,Win32,60.4924082,55756,,,,,,down,0,3.7151,,-0.136111111,-0.230555556,1,0,0,0,13,13,66,1,lever,images/br_lever.png,images/cb_lever.png,1,lever,,,,,,,,,,,,,,,,,,,,,
,,,,,,2023-09-08_16h57.41.947,vbt_B2_day4,2022.2.4,Win32,60.4924082,55756,,,,,,down,0,1.9729,,-0.136111111,-0.230555556,1,0,0,0,14,14,1,1,zaal,images/br_zaal.png,images/cb_zaal.png,0,,,,,,,,,,,,,,,,,,,,,,
,,,,,,2023-09-08_16h57.41.947,vbt_B2_day4,2022.2.4,Win32,60.4924082,55756,,,,,,down,0,1.9835,,-0.136111111,-0.230555556,1,0,0,0,15,15,126,1,kasteel,images/br_kasteel.png,images/cb_kasteel.png,0,,,,,,,,,,,,,,,,,,,,,,
,,,,,,2023-09-08_16h57.41.947,vbt_B2_day4,2022.2.4,Win32,60.4924082,55756,,,,,,down,0,0.3741,,-0.136111111,-0.230555556,1,0,0,0,16,16,95,1,vreten,images/br_vreten.png,images/cb_vreten.png,0,,,,,,,,,,,,,,,,,,,,,,
,,,,,,2023-09-08_16h57.41.947,vbt_B2_day4,2022.2.4,Win32,60.4924082,55756,,,,,,down,0,2.7203,,-0.136111111,-0.230555556,1,0,0,0,17,17,79,1,nodig,images/br_nodig.png,images/cb_nodig.png,0,,,,,,,,,,,,,,,,,,,,,,
,,,,,,2023-09-08_16h57.41.947,vbt_B2_day4,2022.2.4,Win32,60.4924082,55756,,,,,,down,0,8.7467,,-0.136111111,-0.230555556,1,0,0,0,18,18,149,1,redding,images/br_redding.png,images/cb_redding.png,0,,,,,,,,,,,,,,,,,,,,,,
,,,,,,2023-09-08_16h57.41.947,vbt_B2_day4,2022.2.4,Win32,60.4924082,55756,,,,,,down,0,1.1504,,-0.136111111,-0.230555556,1,0,0,0,19,19,24,1,jurk,images/br_jurk.png,images/cb_jurk.png,1,jurk,,,,,,,,,,,,,,,,,,,,,
,,,,,,2023-09-08_16h57.41.947,vbt_B2_day4,2022.2.4,Win32,60.4924082,55756,,,,,,down,0,2.4187,,-0.136111111,-0.230555556,1,0,0,0,20,20,103,1,joggen,images/br_joggen.png,images/cb_joggen.png,0,,,,,,,,,,,,,,,,,,,,,,
,,,,,,2023-09-08_16h57.41.947,vbt_B2_day4,2022.2.4,Win32,60.4924082,55756,,,,,,down,0,2.3905,,-0.136111111,-0.230555556,1,0,0,0,21,21,7,1,geld,images/br_geld.png,images/cb_geld.png,0,,,,,,,,,,,,,,,,,,,,,,
,,,,,,2023-09-08_16h57.41.947,vbt_B2_day4,2022.2.4,Win32,60.4924082,55756,,,,,,down,0,23.7558,,-0.136111111,-0.230555556,1,0,0,0,22,22,151,1,aanzoek,images/br_aanzoek.png,images/cb_aanzoek.png,0,,,,,,,,,,,,,,,,,,,,,,
,,,,,,2023-09-08_16h57.41.947,vbt_B2_day4,2022.2.4,Win32,60.4924082,55756,,,,,,down,0,0.9653,,-0.136111111,-0.230555556,1,0,0,0,23,23,2,1,jaar,images/br_jaar.png,images/cb_jaar.png,0,,,,,,,,,,,,,,,,,,,,,,
,,,,,,2023-09-08_16h57.41.947,vbt_B2_day4,2022.2.4,Win32,60.4924082,55756,,,,,,down,0,15.9105,,-0.136111111,-0.230555556,1,0,0,0,24,24,147,1,komisch,images/br_komisch.png,images/cb_komisch.png,1,komisch,,,,,,,,,,,,,,,,,,,,,
,,,,,,2023-09-08_16h57.41.947,vbt_B2_day4,2022.2.4,Win32,60.4924082,55756,,,,,,down,0,0.045,,-0.136111111,-0.230555556,1,0,0,0,25,25,22,1,stof,images/br_stof.png,images/cb_stof.png,0,,,,,,,,,,,,,,,,,,,,,,
,,,,,,2023-09-08_16h57.41.947,vbt_B2_day4,2022.2.4,Win32,60.4924082,55756,,,,,,down,0,0.317,,-0.136111111,-0.230555556,1,0,0,0,26,26,154,1,aflopen,images/br_aflopen.png,images/cb_aflopen.png,0,,,,,,,,,,,,,,,,,,,,,,
,,,,,,2023-09-08_16h57.41.947,vbt_B2_day4,2022.2.4,Win32,60.4924082,55756,,,,,,down,0,0.2839,,-0.136111111,-0.230555556,1,0,0,0,27,27,3,1,mand,images/br_mand.png,images/cb_mand.png,0,,,,,,,,,,,,,,,,,,,,,,
,,,,,,2023-09-08_16h57.41.947,vbt_B2_day4,2022.2.4,Win32,60.4924082,55756,,,,,,down,0,3.4547,,-0.136111111,-0.230555556,1,0,0,0,28,28,150,1,gegeven,images/br_gegeven.png,images/cb_gegeven.png,0,,,,,,,,,,,,,,,,,,,,,,
,,,,,,2023-09-08_16h57.41.947,vbt_B2_day4,2022.2.4,Win32,60.4924082,55756,,,,,,down,0,2.1091,,-0.136111111,-0.230555556,1,0,0,0,29,29,186,1,voorraad,images/br_voorraad.png,images/cb_voorraad.png,1,voorraad,,,,,,,,,,,,,,,,,,,,,
,,,,,,2023-09-08_16h57.41.947,vbt_B2_day4,2022.2.4,Win32,60.4924082,55756,,,,,,down,0,0.2509,,-0.136111111,-0.230555556,1,0,0,0,30,30,74,1,graaf,images/br_graaf.png,images/cb_graaf.png,0,,,,,,,,,,,,,,,,,,,,,,
,,,,,,2023-09-08_16h57.41.947,vbt_B2_day4,2022.2.4,Win32,60.4924082,55756,,,,,,down,0,0.0775,,-0.136111111,-0.230555556,1,0,0,0,31,31,199,1,beseffen,images/br_beseffen.png,images/cb_beseffen.png,0,,,,,,,,,,,,,,,,,,,,,,
,,,,,,2023-09-08_16h57.41.947,vbt_B2_day4,2022.2.4,Win32,60.4924082,55756,,,,,,down,0,2.3165,,-0.136111111,-0.230555556,1,0,0,0,32,32,43,1,klauw,images/br_klauw.png,images/cb_klauw.png,0,,,,,,,,,,,,,,,,,,,,,,
,,,,,,2023-09-08_16h57.41.947,vbt_B2_day4,2022.2.4,Win32,60.4924082,55756,,,,,,down,0,1.0205,,-0.136111111,-0.230555556,1,0,0,0,33,33,174,1,stemming,images/br_stemming.png,images/cb_stemming.png,0,,,,,,,,,,,,,,,,,,,,,,
,,,,,,2023-09-08_16h57.41.947,vbt_B2_day4,2022.2.4,Win32,60.4924082,55756,,,,,,down,0,3.5875,,-0.136111111,-0.230555556,1,0,0,0,34,34,145,1,invloed,images/br_invloed.png,images/cb_invloed.png,1,invloed,,,,,,,,,,,,,,,,,,,,,
,,,,,,2023-09-08_16h57.41.947,vbt_B2_day4,2022.2.4,Win32,60.4924082,55756,,,,,,down,0,3.4827,,-0.136111111,-0.230555556,1,0,0,0,35,35,180,1,openbaar,images/br_openbaar.png,images/cb_openbaar.png,0,,,,,,,,,,,,,,,,,,,,,,
,,,,,,2023-09-08_16h57.41.947,vbt_B2_day4,2022.2.4,Win32,60.4924082,55756,,,,,,down,0,0.0009,,-0.136111111,-0.230555556,1,0,0,0,36,36,109,1,totaal,images/br_totaal.png,images/cb_totaal.png,0,,,,,,,,,,,,,,,,,,,,,,
,,,,,,2023-09-08_16h57.41.947,vbt_B2_day4,2022.2.4,Win32,60.4924082,55756,,,,,,down,0,0.3338,,-0.136111111,-0.230555556,1,0,0,0,37,37,140,1,blijven,images/br_blijven.png,images/cb_blijven.png,0,,,,,,,,,,,,,,,,,,,,,,
,,,,,,2023-09-08_16h57.41.947,vbt_B2_day4,2022.2.4,Win32,60.4924082,55756,,,,,,down,0,1.1395,,-0.136111111,-0.230555556,1,0,0,0,38,38,160,1,daarheen,images/br_daarheen.png,images/cb_daarheen.png,0,,,,,,,,,,,,,,,,,,,,,,
,,,,,,2023-09-08_16h57.41.947,vbt_B2_day4,2022.2.4,Win32,60.4924082,55756,,,,,,down,0,5.9191,,-0.136111111,-0.230555556,1,0,0,0,39,39,159,1,sufferd,images/br_sufferd.png,images/cb_sufferd.png,0,,,,,,,,,,,,,,,,,,,,,,
,,,,,,2023-09-08_16h57.41.947,vbt_B2_day4,2022.2.4,Win32,60.4924082,55756,,,,,,down,0,2.8867,,-0.136111111,-0.230555556,1,0,0,0,40,40,19,1,geit,images/br_geit.png,images/cb_geit.png,0,,,,,,,,,,,,,,,,,,,,,,
,,,,,,2023-09-08_16h57.41.947,vbt_B2_day4,2022.2.4,Win32,60.4924082,55756,,,,,,down,0,0.5113,,-0.136111111,-0.230555556,1,0,0,0,41,41,23,1,zout,images/br_zout.png,images/cb_zout.png,0,,,,,,,,,,,,,,,,,,,,,,
,,,,,,2023-09-08_16h57.41.947,vbt_B2_day4,2022.2.4,Win32,60.4924082,55756,,,,,,down,0,1.4862,,-0.136111111,-0.230555556,1,0,0,0,42,42,178,1,huisdier,images/br_huisdier.png,images/cb_huisdier.png,0,,,,,,,,,,,,,,,,,,,,,,
,,,,,,2023-09-08_16h57.41.947,vbt_B2_day4,2022.2.4,Win32,60.4924082,55756,,,,,,down,0,0.2677,,-0.136111111,-0.230555556,1,0,0,0,43,43,50,1,stoom,images/br_stoom.png,images/cb_stoom.png,0,,,,,,,,,,,,,,,,,,,,,,
,,,,,,2023-09-08_16h57.41.947,vbt_B2_day4,2022.2.4,Win32,60.4924082,55756,,,,,,down,0,7.0304,,-0.136111111,-0.230555556,1,0,0,0,44,44,38,1,baai,images/br_baai.png,images/cb_baai.png,0,,,,,,,,,,,,,,,,,,,,,,
,,,,,,2023-09-08_16h57.41.947,vbt_B2_day4,2022.2.4,Win32,60.4924082,55756,,,,,,down,0,0.3644,,-0.136111111,-0.230555556,1,0,0,0,45,45,69,1,waken,images/br_waken.png,images/cb_waken.png,0,,,,,,,,,,,,,,,,,,,,,,
,,,,,,2023-09-08_16h57.41.947,vbt_B2_day4,2022.2.4,Win32,60.4924082,55756,,,,,,down,0,0.5232,,-0.136111111,-0.230555556,1,0,0,0,46,46,189,1,aanraden,images/br_aanraden.png,images/cb_aanraden.png,0,,,,,,,,,,,,,,,,,,,,,,
,,,,,,2023-09-08_16h57.41.947,vbt_B2_day4,2022.2.4,Win32,60.4924082,55756,,,,,,down,0,3.5552,,-0.136111111,-0.230555556,1,0,0,0,47,47,107,1,maling,images/br_maling.png,images/cb_maling.png,1,maling,,,,,,,,,,,,,,,,,,,,,
,,,,,,2023-09-08_16h57.41.947,vbt_B2_day4,2022.2.4,Win32,60.4924082,55756,,,,,,down,0,0.4335,,-0.136111111,-0.230555556,1,0,0,0,48,48,20,1,site,images/br_site.png,images/cb_site.png,0,,,,,,,,,,,,,,,,,,,,,,
,,,,,,2023-09-08_16h57.41.947,vbt_B2_day4,2022.2.4,Win32,60.4924082,55756,,,,,,down,0,0.0058,,-0.136111111,-0.230555556,1,0,0,0,49,49,71,1,bever,images/br_bever.png,images/cb_bever.png,0,,,,,,,,,,,,,,,,,,,,,,
,,,,,,2023-09-08_16h57.41.947,vbt_B2_day4,2022.2.4,Win32,60.4924082,55756,,,,,,down,0,4.6705,,-0.136111111,-0.230555556,1,0,0,0,50,50,185,1,mijnheer,images/br_mijnheer.png,images/cb_mijnheer.png,1,mijnheer,,,,,,,,,,,,,,,,,,,,,
,,,,,,2023-09-08_16h57.41.947,vbt_B2_day4,2022.2.4,Win32,60.4924082,55756,,,,,,down,0,1.4718,,-0.136111111,-0.230555556,1,0,0,0,51,51,14,1,rijp,images/br_rijp.png,images/cb_rijp.png,0,,,,,,,,,,,,,,,,,,,,,,
,,,,,,2023-09-08_16h57.41.947,vbt_B2_day4,2022.2.4,Win32,60.4924082,55756,,,,,,down,0,0.0342,,-0.136111111,-0.230555556,1,0,0,0,52,52,76,1,afval,images/br_afval.png,images/cb_afval.png,0,,,,,,,,,,,,,,,,,,,,,,
,,,,,,2023-09-08_16h57.41.947,vbt_B2_day4,2022.2.4,Win32,60.4924082,55756,,,,,,down,0,1.4566,,-0.136111111,-0.230555556,1,0,0,0,53,53,34,1,vorm,images/br_vorm.png,images/cb_vorm.png,0,,,,,,,,,,,,,,,,,,,,,,
,,,,,,2023-09-08_16h57.41.947,vbt_B2_day4,2022.2.4,Win32,60.4924082,55756,,,,,,down,0,7.5305,,-0.136111111,-0.230555556,1,0,0,0,54,54,94,1,oceaan,images/br_oceaan.png,images/cb_oceaan.png,0,,,,,,,,,,,,,,,,,,,,,,
,,,,,,2023-09-08_16h57.41.947,vbt_B2_day4,2022.2.4,Win32,60.4924082,55756,,,,,,down,0,5.6149,,-0.136111111,-0.230555556,1,0,0,0,55,55,85,1,heilig,images/br_heilig.png,images/cb_heilig.png,0,,,,,,,,,,,,,,,,,,,,,,
,,,,,,2023-09-08_16h57.41.947,vbt_B2_day4,2022.2.4,Win32,60.4924082,55756,,,,,,down,0,4.2987,,-0.136111111,-0.230555556,1,0,0,0,56,56,127,1,doodmoe,images/br_doodmoe.png,images/cb_doodmoe.png,0,,,,,,,,,,,,,,,,,,,,,,
,,,,,,2023-09-08_16h57.41.947,vbt_B2_day4,2022.2.4,Win32,60.4924082,55756,,,,,,down,0,9.1942,,-0.136111111,-0.230555556,1,0,0,0,57,57,156,1,rechten,images/br_rechten.png,images/cb_rechten.png,0,,,,,,,,,,,,,,,,,,,,,,
,,,,,,2023-09-08_16h57.41.947,vbt_B2_day4,2022.2.4,Win32,60.4924082,55756,,,,,,down,0,1.8444,,-0.136111111,-0.230555556,1,0,0,0,58,58,146,1,opkomen,images/br_opkomen.png,images/cb_opkomen.png,1,opkomen,,,,,,,,,,,,,,,,,,,,,
,,,,,,2023-09-08_16h57.41.947,vbt_B2_day4,2022.2.4,Win32,60.4924082,55756,,,,,,down,0,24.7786,,-0.136111111,-0.230555556,1,0,0,0,59,59,90,1,geluid,images/br_geluid.png,images/cb_geluid.png,0,,,,,,,,,,,,,,,,,,,,,,
,,,,,,2023-09-08_16h57.41.947,vbt_B2_day4,2022.2.4,Win32,60.4924082,55756,,,,,,down,0,0.0517,,-0.136111111,-0.230555556,1,0,0,0,60,60,6,1,diep,images/br_diep.png,images/cb_diep.png,0,,,,,,,,,,,,,,,,,,,,,,
,,,,,,2023-09-08_16h57.41.947,vbt_B2_day4,2022.2.4,Win32,60.4924082,55756,,,,,,down,0,0.7876,,-0.136111111,-0.230555556,1,0,0,0,61,61,111,1,ticket,images/br_ticket.png,images/cb_ticket.png,0,,,,,,,,,,,,,,,,,,,,,,
,,,,,,2023-09-08_16h57.41.947,vbt_B2_day4,2022.2.4,Win32,60.4924082,55756,,,,,,down,0,3.7411,,-0.136111111,-0.230555556,1,0,0,0,62,62,37,1,mijn,images/br_mijn.png,images/cb_mijn.png,0,,,,,,,,,,,,,,,,,,,,,,
,,,,,,2023-09-08_16h57.41.947,vbt_B2_day4,2022.2.4,Win32,60.4924082,55756,,,,,,down,0,4.5747,,-0.136111111,-0.230555556,1,0,0,0,63,63,41,1,maken,images/br_maken.png,images/cb_maken.png,0,,,,,,,,,,,,,,,,,,,,,,
,,,,,,2023-09-08_16h57.41.947,vbt_B2_day4,2022.2.4,Win32,60.4924082,55756,,,,,,down,0,1.2205,,-0.136111111,-0.230555556,1,0,0,0,64,64,9,1,hier,images/br_hier.png,images/cb_hier.png,0,,,,,,,,,,,,,,,,,,,,,,
,,,,,,2023-09-08_16h57.41.947,vbt_B2_day4,2022.2.4,Win32,60.4924082,55756,,,,,,down,0,19.0411,,-0.136111111,-0.230555556,1,0,0,0,65,65,136,1,waarbij,images/br_waarbij.png,images/cb_waarbij.png,0,,,,,,,,,,,,,,,,,,,,,,
,,,,,,2023-09-08_16h57.41.947,vbt_B2_day4,2022.2.4,Win32,60.4924082,55756,,,,,,down,0,6.3027,,-0.136111111,-0.230555556,1,0,0,0,66,66,183,1,getuigen,images/br_getuigen.png,images/cb_getuigen.png,0,,,,,,,,,,,,,,,,,,,,,,
,,,,,,2023-09-08_16h57.41.947,vbt_B2_day4,2022.2.4,Win32,60.4924082,55756,,,,,,down,0,1.1868,,-0.136111111,-0.230555556,1,0,0,0,67,67,130,1,keihard,images/br_keihard.png,images/cb_keihard.png,0,,,,,,,,,,,,,,,,,,,,,,
,,,,,,2023-09-08_16h57.41.947,vbt_B2_day4,2022.2.4,Win32,60.4924082,55756,,,,,,down,0,41.1409,,-0.136111111,-0.230555556,1,0,0,0,68,68,152,1,afnemen,images/br_afnemen.png,images/cb_afnemen.png,0,,,,,,,,,,,,,,,,,,,,,,
,,,,,,2023-09-08_16h57.41.947,vbt_B2_day4,2022.2.4,Win32,60.4924082,55756,,,,,,down,0,3.8059,,-0.136111111,-0.230555556,1,0,0,0,69,69,48,1,steel,images/br_steel.png,images/cb_steel.png,0,,,,,,,,,,,,,,,,,,,,,,
,,,,,,2023-09-08_16h57.41.947,vbt_B2_day4,2022.2.4,Win32,60.4924082,55756,,,,,,down,0,2.9343,,-0.136111111,-0.230555556,1,0,0,0,70,70,117,1,kennis,images/br_kennis.png,images/cb_kennis.png,0,,,,,,,,,,,,,,,,,,,,,,
,,,,,,2023-09-08_16h57.41.947,vbt_B2_day4,2022.2.4,Win32,60.4924082,55756,,,,,,down,0,3.9661,,-0.136111111,-0.230555556,1,0,0,0,71,71,162,1,uitdelen,images/br_uitdelen.png,images/cb_uitdelen.png,0,,,,,,,,,,,,,,,,,,,,,,
,,,,,,2023-09-08_16h57.41.947,vbt_B2_day4,2022.2.4,Win32,60.4924082,55756,,,,,,down,0,0.0777,,-0.136111111,-0.230555556,1,0,0,0,72,72,12,1,kust,images/br_kust.png,images/cb_kust.png,0,,,,,,,,,,,,,,,,,,,,,,
,,,,,,2023-09-08_16h57.41.947,vbt_B2_day4,2022.2.4,Win32,60.4924082,55756,,,,,,down,0,1.1771,,-0.136111111,-0.230555556,1,0,0,0,73,73,166,1,strikken,images/br_strikken.png,images/cb_strikken.png,0,,,,,,,,,,,,,,,,,,,,,,
,,,,,,2023-09-08_16h57.41.947,vbt_B2_day4,2022.2.4,Win32,60.4924082,55756,,,,,,down,0,1.5754,,-0.136111111,-0.230555556,1,0,0,0,74,74,27,1,dans,images/br_dans.png,images/cb_dans.png,1,dans,,,,,,,,,,,,,,,,,,,,,
,,,,,,2023-09-08_16h57.41.947,vbt_B2_day4,2022.2.4,Win32,60.4924082,55756,,,,,,down,0,0.0876,,-0.136111111,-0.230555556,1,0,0,0,75,75,29,1,baas,images/br_baas.png,images/cb_baas.png,0,,,,,,,,,,,,,,,,,,,,,,
,,,,,,2023-09-08_16h57.41.947,vbt_B2_day4,2022.2.4,Win32,60.4924082,55756,,,,,,down,0,0.544,,-0.136111111,-0.230555556,1,0,0,0,76,76,68,1,schat,images/br_schat.png,images/cb_schat.png,0,,,,,,,,,,,,,,,,,,,,,,
,,,,,,2023-09-08_16h57.41.947,vbt_B2_day4,2022.2.4,Win32,60.4924082,55756,,,,,,down,0,0.053,,-0.136111111,-0.230555556,1,0,0,0,77,77,121,1,twijfel,images/br_twijfel.png,images/cb_twijfel.png,0,,,,,,,,,,,,,,,,,,,,,,
,,,,,,2023-09-08_16h57.41.947,vbt_B2_day4,2022.2.4,Win32,60.4924082,55756,,,,,,down,0,1.6836,,-0.136111111,-0.230555556,1,0,0,0,78,78,56,1,traag,images/br_traag.png,images/cb_traag.png,0,,,,,,,,,,,,,,,,,,,,,,
,,,,,,2023-09-08_16h57.41.947,vbt_B2_day4,2022.2.4,Win32,60.4924082,55756,,,,,,down,0,11.0133,,-0.136111111,-0.230555556,1,0,0,0,79,79,98,1,kreeft,images/br_kreeft.png,images/cb_kreeft.png,0,,,,,,,,,,,,,,,,,,,,,,
,,,,,,2023-09-08_16h57.41.947,vbt_B2_day4,2022.2.4,Win32,60.4924082,55756,,,,,,down,0,0.563,,-0.136111111,-0.230555556,1,0,0,0,80,80,51,1,samen,images/br_samen.png,images/cb_samen.png,0,,,,,,,,,,,,,,,,,,,,,,
,,,,,,2023-09-08_16h57.41.947,vbt_B2_day4,2022.2.4,Win32,60.4924082,55756,,,,,,down,0,0.7324,,-0.136111111,-0.230555556,1,0,0,0,81,81,44,1,flits,images/br_flits.png,images/cb_flits.png,0,,,,,,,,,,,,,,,,,,,,,,
,,,,,,2023-09-08_16h57.41.947,vbt_B2_day4,2022.2.4,Win32,60.4924082,55756,,,,,,down,0,2.0715,,-0.136111111,-0.230555556,1,0,0,0,82,82,17,1,taal,images/br_taal.png,images/cb_taal.png,0,,,,,,,,,,,,,,,,,,,,,,
,,,,,,2023-09-08_16h57.41.947,vbt_B2_day4,2022.2.4,Win32,60.4924082,55756,,,,,,down,0,0.5917,,-0.136111111,-0.230555556,1,0,0,0,83,83,30,1,uien,images/br_uien.png,images/cb_uien.png,0,,,,,,,,,,,,,,,,,,,,,,
,,,,,,2023-09-08_16h57.41.947,vbt_B2_day4,2022.2.4,Win32,60.4924082,55756,,,,,,down,0,11.586,,-0.136111111,-0.230555556,1,0,0,0,84,84,92,1,geheim,images/br_geheim.png,images/cb_geheim.png,0,,,,,,,,,,,,,,,,,,,,,,
,,,,,,2023-09-08_16h57.41.947,vbt_B2_day4,2022.2.4,Win32,60.4924082,55756,,,,,,down,0,0.5344,,-0.136111111,-0.230555556,1,0,0,0,85,85,72,1,strak,images/br_strak.png,images/cb_strak.png,0,,,,,,,,,,,,,,,,,,,,,,
,,,,,,2023-09-08_16h57.41.947,vbt_B2_day4,2022.2.4,Win32,60.4924082,55756,,,,,,down,0,0.4908,,-0.136111111,-0.230555556,1,0,0,0,86,86,62,1,knaap,images/br_knaap.png,images/cb_knaap.png,0,,,,,,,,,,,,,,,,,,,,,,
,,,,,,2023-09-08_16h57.41.947,vbt_B2_day4,2022.2.4,Win32,60.4924082,55756,,,,,,down,0,0.3337,,-0.136111111,-0.230555556,1,0,0,0,87,87,60,1,jasje,images/br_jasje.png,images/cb_jasje.png,0,,,,,,,,,,,,,,,,,,,,,,
,,,,,,2023-09-08_16h57.41.947,vbt_B2_day4,2022.2.4,Win32,60.4924082,55756,,,,,,down,0,2.9696,,-0.136111111,-0.230555556,1,0,0,0,88,88,104,1,zweven,images/br_zweven.png,images/cb_zweven.png,1,zweven,,,,,,,,,,,,,,,,,,,,,
,,,,,,2023-09-08_16h57.41.947,vbt_B2_day4,2022.2.4,Win32,60.4924082,55756,,,,,,down,0,0.2037,,-0.136111111,-0.230555556,1,0,0,0,89,89,8,1,knie,images/br_knie.png,images/cb_knie.png,0,,,,,,,,,,,,,,,,,,,,,,
,,,,,,2023-09-08_16h57.41.947,vbt_B2_day4,2022.2.4,Win32,60.4924082,55756,,,,,,down,0,4.5049,,-0.136111111,-0.230555556,1,0,0,0,90,90,170,1,schatten,images/br_schatten.png,images/cb_schatten.png,0,,,,,,,,,,,,,,,,,,,,,,
,,,,,,2023-09-08_16h57.41.947,vbt_B2_day4,2022.2.4,Win32,60.4924082,55756,,,,,,down,0,0.6836,,-0.136111111,-0.230555556,1,0,0,0,91,91,139,1,stiekem,images/br_stiekem.png,images/cb_stiekem.png,0,,,,,,,,,,,,,,,,,,,,,,
,,,,,,2023-09-08_16h57.41.947,vbt_B2_day4,2022.2.4,Win32,60.4924082,55756,,,,,,down,0,0.3676,,-0.136111111,-0.230555556,1,0,0,0,92,92,125,1,aanzien,images/br_aanzien.png,images/cb_aanzien.png,0,,,,,,,,,,,,,,,,,,,,,,
,,,,,,2023-09-08_16h57.41.947,vbt_B2_day4,2022.2.4,Win32,60.4924082,55756,,,,,,down,0,7.6634,,-0.136111111,-0.230555556,1,0,0,0,93,93,114,1,vullen,images/br_vullen.png,images/cb_vullen.png,0,,,,,,,,,,,,,,,,,,,,,,
,,,,,,2023-09-08_16h57.41.947,vbt_B2_day4,2022.2.4,Win32,60.4924082,55756,,,,,,down,0,18.703,,-0.136111111,-0.230555556,1,0,0,0,94,94,133,1,seizoen,images/br_seizoen.png,images/cb_seizoen.png,0,,,,,,,,,,,,,,,,,,,,,,
,,,,,,2023-09-08_16h57.41.947,vbt_B2_day4,2022.2.4,Win32,60.4924082,55756,,,,,,down,0,3.7153,,-0.136111111,-0.230555556,1,0,0,0,95,95,196,1,nakijken,images/br_nakijken.png,images/cb_nakijken.png,0,,,,,,,,,,,,,,,,,,,,,,
,,,,,,2023-09-08_16h57.41.947,vbt_B2_day4,2022.2.4,Win32,60.4924082,55756,,,,,,down,0,0.0846,,-0.136111111,-0.230555556,1,0,0,0,96,96,53,1,baron,images/br_baron.png,images/cb_baron.png,0,,,,,,,,,,,,,,,,,,,,,,
,,,,,,2023-09-08_16h57.41.947,vbt_B2_day4,2022.2.4,Win32,60.4924082,55756,,,,,,down,0,2.1335,,-0.136111111,-0.230555556,1,0,0,0,97,97,179,1,woestijn,images/br_woestijn.png,images/cb_woestijn.png,0,,,,,,,,,,,,,,,,,,,,,,
,,,,,,2023-09-08_16h57.41.947,vbt_B2_day4,2022.2.4,Win32,60.4924082,55756,,,,,,down,0,0.3022,,-0.136111111,-0.230555556,1,0,0,0,98,98,102,1,legaal,images/br_legaal.png,images/cb_legaal.png,0,,,,,,,,,,,,,,,,,,,,,,
,,,,,,2023-09-08_16h57.41.947,vbt_B2_day4,2022.2.4,Win32,60.4924082,55756,,,,,,down,0,2.566,,-0.136111111,-0.230555556,1,0,0,0,99,99,128,1,prikken,images/br_prikken.png,images/cb_prikken.png,0,,,,,,,,,,,,,,,,,,,,,,
,,,,,,2023-09-08_16h57.41.947,vbt_B2_day4,2022.2.4,Win32,60.4924082,55756,,,,,,down,0,1.0899,,-0.136111111,-0.230555556,1,0,0,0,100,100,13,1,kaal,images/br_kaal.png,images/cb_kaal.png,0,,,,,,,,,,,,,,,,,,,,,,
,,,,,,2023-09-08_16h57.41.947,vbt_B2_day4,2022.2.4,Win32,60.4924082,55756,,,,,,down,0,2.7078,,-0.136111111,-0.230555556,1,0,0,0,101,101,116,1,besmet,images/br_besmet.png,images/cb_besmet.png,0,,,,,,,,,,,,,,,,,,,,,,
,,,,,,2023-09-08_16h57.41.947,vbt_B2_day4,2022.2.4,Win32,60.4924082,55756,,,,,,down,0,2.291,,-0.136111111,-0.230555556,1,0,0,0,102,102,167,1,eenhoorn,images/br_eenhoorn.png,images/cb_eenhoorn.png,0,,,,,,,,,,,,,,,,,,,,,,
,,,,,,2023-09-08_16h57.41.947,vbt_B2_day4,2022.2.4,Win32,60.4924082,55756,,,,,,down,0,2.7829,,-0.136111111,-0.230555556,1,0,0,0,103,103,25,1,plek,images/br_plek.png,images/cb_plek.png,1,plek,,,,,,,,,,,,,,,,,,,,,
,,,,,,2023-09-08_16h57.41.947,vbt_B2_day4,2022.2.4,Win32,60.4924082,55756,,,,,,down,0,0.3101,,-0.136111111,-0.230555556,1,0,0,0,104,104,16,1,ziek,images/br_ziek.png,images/cb_ziek.png,0,,,,,,,,,,,,,,,,,,,,,,
,,,,,,2023-09-08_16h57.41.947,vbt_B2_day4,2022.2.4,Win32,60.4924082,55756,,,,,,down,0,0.3668,,-0.136111111,-0.230555556,1,0,0,0,105,105,122,1,waarvan,images/br_waarvan.png,images/cb_waarvan.png,0,,,,,,,,,,,,,,,,,,,,,,
,,,,,,2023-09-08_16h57.41.947,vbt_B2_day4,2022.2.4,Win32,60.4924082,55756,,,,,,down,0,0.9876,,-0.136111111,-0.230555556,1,0,0,0,106,106,31,1,poes,images/br_poes.png,images/cb_poes.png,0,,,,,,,,,,,,,,,,,,,,,,
,,,,,,2023-09-08_16h57.41.947,vbt_B2_day4,2022.2.4,Win32,60.4924082,55756,,,,,,down,0,0.1682,,-0.136111111,-0.230555556,1,0,0,0,107,107,18,1,blik,images/br_blik.png,images/cb_blik.png,0,,,,,,,,,,,,,,,,,,,,,,
,,,,,,2023-09-08_16h57.41.947,vbt_B2_day4,2022.2.4,Win32,60.4924082,55756,,,,,,down,0,0.0506,,-0.136111111,-0.230555556,1,0,0,0,108,108,49,1,laken,images/br_laken.png,images/cb_laken.png,0,,,,,,,,,,,,,,,,,,,,,,
,,,,,,2023-09-08_16h57.41.947,vbt_B2_day4,2022.2.4,Win32,60.4924082,55756,,,,,,down,0,4.7481,,-0.136111111,-0.230555556,1,0,0,0,109,109,161,1,attentie,images/br_attentie.png,images/cb_attentie.png,0,,,,,,,,,,,,,,,,,,,,,,
,,,,,,2023-09-08_16h57.41.947,vbt_B2_day4,2022.2.4,Win32,60.4924082,55756,,,,,,down,0,1.809,,-0.136111111,-0.230555556,1,0,0,0,110,110,87,1,toeval,images/br_toeval.png,images/cb_toeval.png,0,,,,,,,,,,,,,,,,,,,,,,
,,,,,,2023-09-08_16h57.41.947,vbt_B2_day4,2022.2.4,Win32,60.4924082,55756,,,,,,down,0,0.3896,,-0.136111111,-0.230555556,1,0,0,0,111,111,134,1,geliefd,images/br_geliefd.png,images/cb_geliefd.png,0,,,,,,,,,,,,,,,,,,,,,,
,,,,,,2023-09-08_16h57.41.947,vbt_B2_day4,2022.2.4,Win32,60.4924082,55756,,,,,,down,0,0.2198,,-0.136111111,-0.230555556,1,0,0,0,112,112,153,1,vervoer,images/br_vervoer.png,images/cb_vervoer.png,0,,,,,,,,,,,,,,,,,,,,,,
,,,,,,2023-09-08_16h57.41.947,vbt_B2_day4,2022.2.4,Win32,60.4924082,55756,,,,,,down,0,2.2666,,-0.136111111,-0.230555556,1,0,0,0,113,113,155,1,gerucht,images/br_gerucht.png,images/cb_gerucht.png,0,,,,,,,,,,,,,,,,,,,,,,
,,,,,,2023-09-08_16h57.41.947,vbt_B2_day4,2022.2.4,Win32,60.4924082,55756,,,,,,down,0,1.3857,,-0.136111111,-0.230555556,1,0,0,0,114,114,171,1,aarzelen,images/br_aarzelen.png,images/cb_aarzelen.png,0,,,,,,,,,,,,,,,,,,,,,,
,,,,,,2023-09-08_16h57.41.947,vbt_B2_day4,2022.2.4,Win32,60.4924082,55756,,,,,,down,0,4.867,,-0.136111111,-0.230555556,1,0,0,0,115,115,118,1,vinger,images/br_vinger.png,images/cb_vinger.png,0,,,,,,,,,,,,,,,,,,,,,,
,,,,,,2023-09-08_16h57.41.947,vbt_B2_day4,2022.2.4,Win32,60.4924082,55756,,,,,,down,0,5.2279,,-0.136111111,-0.230555556,1,0,0,0,116,116,193,1,weeshuis,images/br_weeshuis.png,images/cb_weeshuis.png,0,,,,,,,,,,,,,,,,,,,,,,
,,,,,,2023-09-08_16h57.41.947,vbt_B2_day4,2022.2.4,Win32,60.4924082,55756,,,,,,down,0,35.9314,,-0.136111111,-0.230555556,1,0,0,0,117,117,184,1,aandelen,images/br_aandelen.png,images/cb_aandelen.png,1,aandelen,,,,,,,,,,,,,,,,,,,,,
,,,,,,2023-09-08_16h57.41.947,vbt_B2_day4,2022.2.4,Win32,60.4924082,55756,,,,,,down,0,0.1163,,-0.136111111,-0.230555556,1,0,0,0,118,118,77,1,woede,images/br_woede.png,images/cb_woede.png,0,,,,,,,,,,,,,,,,,,,,,,
,,,,,,2023-09-08_16h57.41.947,vbt_B2_day4,2022.2.4,Win32,60.4924082,55756,,,,,,down,0,0.2379,,-0.136111111,-0.230555556,1,0,0,0,119,119,120,1,klimmen,images/br_klimmen.png,images/cb_klimmen.png,0,,,,,,,,,,,,,,,,,,,,,,
,,,,,,2023-09-08_16h57.41.947,vbt_B2_day4,2022.2.4,Win32,60.4924082,55756,,,,,,down,0,0.5522,,-0.136111111,-0.230555556,1,0,0,0,120,120,57,1,steek,images/br_steek.png,images/cb_steek.png,0,,,,,,,,,,,,,,,,,,,,,,
,,,,,,2023-09-08_16h57.41.947,vbt_B2_day4,2022.2.4,Win32,60.4924082,55756,,,,,,down,0,0.323,,-0.136111111,-0.230555556,1,0,0,0,121,121,33,1,vlek,images/br_vlek.png,images/cb_vlek.png,0,,,,,,,,,,,,,,,,,,,,,,
,,,,,,2023-09-08_16h57.41.947,vbt_B2_day4,2022.2.4,Win32,60.4924082,55756,,,,,,down,0,0.2163,,-0.136111111,-0.230555556,1,0,0,0,122,122,59,1,kring,images/br_kring.png,images/cb_kring.png,0,,,,,,,,,,,,,,,,,,,,,,
,,,,,,2023-09-08_16h57.41.947,vbt_B2_day4,2022.2.4,Win32,60.4924082,55756,,,,,,down,0,0.3348,,-0.136111111,-0.230555556,1,0,0,0,123,123,190,1,goedkoop,images/br_goedkoop.png,images/cb_goedkoop.png,0,,,,,,,,,,,,,,,,,,,,,,
,,,,,,2023-09-08_16h57.41.947,vbt_B2_day4,2022.2.4,Win32,60.4924082,55756,,,,,,down,0,0.0567,,-0.136111111,-0.230555556,1,0,0,0,124,124,100,1,geduld,images/br_geduld.png,images/cb_geduld.png,0,,,,,,,,,,,,,,,,,,,,,,
,,,,,,2023-09-08_16h57.41.947,vbt_B2_day4,2022.2.4,Win32,60.4924082,55756,,,,,,down,0,0.3247,,-0.136111111,-0.230555556,1,0,0,0,125,125,177,1,maaltijd,images/br_maaltijd.png,images/cb_maaltijd.png,0,,,,,,,,,,,,,,,,,,,,,,
,,,,,,2023-09-08_16h57.41.947,vbt_B2_day4,2022.2.4,Win32,60.4924082,55756,,,,,,down,0,0.2896,,-0.136111111,-0.230555556,1,0,0,0,126,126,52,1,wagon,images/br_wagon.png,images/cb_wagon.png,0,,,,,,,,,,,,,,,,,,,,,,
,,,,,,2023-09-08_16h57.41.947,vbt_B2_day4,2022.2.4,Win32,60.4924082,55756,,,,,,down,0,1.0271,,-0.136111111,-0.230555556,1,0,0,0,127,127,191,1,opheffen,images/br_opheffen.png,images/cb_opheffen.png,0,,,,,,,,,,,,,,,,,,,,,,
,,,,,,2023-09-08_16h57.41.947,vbt_B2_day4,2022.2.4,Win32,60.4924082,55756,,,,,,down,0,0.0864,,-0.136111111,-0.230555556,1,0,0,0,128,128,78,1,leren,images/br_leren.png,images/cb_leren.png,0,,,,,,,,,,,,,,,,,,,,,,
,,,,,,2023-09-08_16h57.41.947,vbt_B2_day4,2022.2.4,Win32,60.4924082,55756,,,,,,down,0,0.2873,,-0.136111111,-0.230555556,1,0,0,0,129,129,39,1,laag,images/br_laag.png,images/cb_laag.png,0,,,,,,,,,,,,,,,,,,,,,,
,,,,,,2023-09-08_16h57.41.947,vbt_B2_day4,2022.2.4,Win32,60.4924082,55756,,,,,,down,0,1.8677,,-0.136111111,-0.230555556,1,0,0,0,130,130,158,1,innemen,images/br_innemen.png,images/cb_innemen.png,0,,,,,,,,,,,,,,,,,,,,,,
,,,,,,2023-09-08_16h57.41.947,vbt_B2_day4,2022.2.4,Win32,60.4924082,55756,,,,,,down,0,11.8401,,-0.136111111,-0.230555556,1,0,0,0,131,131,135,1,gedicht,images/br_gedicht.png,images/cb_gedicht.png,0,,,,,,,,,,,,,,,,,,,,,,
,,,,,,2023-09-08_16h57.41.947,vbt_B2_day4,2022.2.4,Win32,60.4924082,55756,,,,,,down,0,11.069,,-0.136111111,-0.230555556,1,0,0,0,132,132,75,1,snoep,images/br_snoep.png,images/cb_snoep.png,0,,,,,,,,,,,,,,,,,,,,,,
,,,,,,2023-09-08_16h57.41.947,vbt_B2_day4,2022.2.4,Win32,60.4924082,55756,,,,,,down,0,1.2339,,-0.136111111,-0.230555556,1,0,0,0,133,133,84,1,lokken,images/br_lokken.png,images/cb_lokken.png,0,,,,,,,,,,,,,,,,,,,,,,
,,,,,,2023-09-08_16h57.41.947,vbt_B2_day4,2022.2.4,Win32,60.4924082,55756,,,,,,down,0,0.5841,,-0.136111111,-0.230555556,1,0,0,0,134,134,115,1,kleren,images/br_kleren.png,images/cb_kleren.png,0,,,,,,,,,,,,,,,,,,,,,,
,,,,,,2023-09-08_16h57.41.947,vbt_B2_day4,2022.2.4,Win32,60.4924082,55756,,,,,,down,0,20.3738,,-0.136111111,-0.230555556,1,0,0,0,135,135,164,1,anarchie,images/br_anarchie.png,images/cb_anarchie.png,0,,,,,,,,,,,,,,,,,,,,,,
,,,,,,2023-09-08_16h57.41.947,vbt_B2_day4,2022.2.4,Win32,60.4924082,55756,,,,,,down,0,5.8016,,-0.136111111,-0.230555556,1,0,0,0,136,136,188,1,strekken,images/br_strekken.png,images/cb_strekken.png,0,,,,,,,,,,,,,,,,,,,,,,
,,,,,,2023-09-08_16h57.41.947,vbt_B2_day4,2022.2.4,Win32,60.4924082,55756,,,,,,down,0,0.1599,,-0.136111111,-0.230555556,1,0,0,0,137,137,99,1,koffie,images/br_koffie.png,images/cb_koffie.png,0,,,,,,,,,,,,,,,,,,,,,,
,,,,,,2023-09-08_16h57.41.947,vbt_B2_day4,2022.2.4,Win32,60.4924082,55756,,,,,,down,0,0.3513,,-0.136111111,-0.230555556,1,0,0,0,138,138,21,1,mist,images/br_mist.png,images/cb_mist.png,0,,,,,,,,,,,,,,,,,,,,,,
,,,,,,2023-09-08_16h57.41.947,vbt_B2_day4,2022.2.4,Win32,60.4924082,55756,,,,,,down,0,0.2914,,-0.136111111,-0.230555556,1,0,0,0,139,139,181,1,toegeven,images/br_toegeven.png,images/cb_toegeven.png,0,,,,,,,,,,,,,,,,,,,,,,
,,,,,,2023-09-08_16h57.41.947,vbt_B2_day4,2022.2.4,Win32,60.4924082,55756,,,,,,down,0,0.0814,,-0.136111111,-0.230555556,1,0,0,0,140,140,10,1,leek,images/br_leek.png,images/cb_leek.png,0,,,,,,,,,,,,,,,,,,,,,,
,,,,,,2023-09-08_16h57.41.947,vbt_B2_day4,2022.2.4,Win32,60.4924082,55756,,,,,,down,0,0.5655,,-0.136111111,-0.230555556,1,0,0,0,141,141,110,1,zuster,images/br_zuster.png,images/cb_zuster.png,0,,,,,,,,,,,,,,,,,,,,,,
,,,,,,2023-09-08_16h57.41.947,vbt_B2_day4,2022.2.4,Win32,60.4924082,55756,,,,,,down,0,0.7726,,-0.136111111,-0.230555556,1,0,0,0,142,142,132,1,grappen,images/br_grappen.png,images/cb_grappen.png,0,,,,,,,,,,,,,,,,,,,,,,
,,,,,,2023-09-08_16h57.41.947,vbt_B2_day4,2022.2.4,Win32,60.4924082,55756,,,,,,down,0,0.2516,,-0.136111111,-0.230555556,1,0,0,0,143,143,163,1,schuilen,images/br_schuilen.png,images/cb_schuilen.png,0,,,,,,,,,,,,,,,,,,,,,,
,,,,,,2023-09-08_16h57.41.947,vbt_B2_day4,2022.2.4,Win32,60.4924082,55756,,,,,,down,0,7.0489,,-0.136111111,-0.230555556,1,0,0,0,144,144,195,1,middelen,images/br_middelen.png,images/cb_middelen.png,0,,,,,,,,,,,,,,,,,,,,,,
,,,,,,2023-09-08_16h57.41.947,vbt_B2_day4,2022.2.4,Win32,60.4924082,55756,,,,,,down,0,0.3172,,-0.136111111,-0.230555556,1,0,0,0,145,145,198,1,bedoelen,images/br_bedoelen.png,images/cb_bedoelen.png,0,,,,,,,,,,,,,,,,,,,,,,
,,,,,,2023-09-08_16h57.41.947,vbt_B2_day4,2022.2.4,Win32,60.4924082,55756,,,,,,down,0,3.1325,,-0.136111111,-0.230555556,1,0,0,0,146,146,124,1,bloeien,images/br_bloeien.png,images/cb_bloeien.png,0,,,,,,,,,,,,,,,,,,,,,,
,,,,,,2023-09-08_16h57.41.947,vbt_B2_day4,2022.2.4,Win32,60.4924082,55756,,,,,,down,0,0.119,,-0.136111111,-0.230555556,1,0,0,0,147,147,4,1,moes,images/br_moes.png,images/cb_moes.png,0,,,,,,,,,,,,,,,,,,,,,,
,,,,,,2023-09-08_16h57.41.947,vbt_B2_day4,2022.2.4,Win32,60.4924082,55756,,,,,,down,0,1.2332,,-0.136111111,-0.230555556,1,0,0,0,148,148,88,1,boeien,images/br_boeien.png,images/cb_boeien.png,0,,,,,,,,,,,,,,,,,,,,,,
,,,,,,2023-09-08_16h57.41.947,vbt_B2_day4,2022.2.4,Win32,60.4924082,55756,,,,,,down,0,2.1825,,-0.136111111,-0.230555556,1,0,0,0,149,149,105,1,wijlen,images/br_wijlen.png,images/cb_wijlen.png,1,wijlen,,,,,,,,,,,,,,,,,,,,,
,,,,,,2023-09-08_16h57.41.947,vbt_B2_day4,2022.2.4,Win32,60.4924082,55756,,,,,,down,0,0.1336,,-0.136111111,-0.230555556,1,0,0,0,150,150,165,1,feestdag,images/br_feestdag.png,images/cb_feestdag.png,0,,,,,,,,,,,,,,,,,,,,,,
,,,,,,2023-09-08_16h57.41.947,vbt_B2_day4,2022.2.4,Win32,60.4924082,55756,,,,,,down,0,0.8329,,-0.136111111,-0.230555556,1,0,0,0,151,151,129,1,verhaal,images/br_verhaal.png,images/cb_verhaal.png,0,,,,,,,,,,,,,,,,,,,,,,
,,,,,,2023-09-08_16h57.41.947,vbt_B2_day4,2022.2.4,Win32,60.4924082,55756,,,,,,down,0,0.1067,,-0.136111111,-0.230555556,1,0,0,0,152,152,82,1,muziek,images/br_muziek.png,images/cb_muziek.png,0,,,,,,,,,,,,,,,,,,,,,,
,,,,,,2023-09-08_16h57.41.947,vbt_B2_day4,2022.2.4,Win32,60.4924082,55756,,,,,,down,0,0.0031,,-0.136111111,-0.230555556,1,0,0,0,153,153,61,1,groen,images/br_groen.png,images/cb_groen.png,0,,,,,,,,,,,,,,,,,,,,,,
,,,,,,2023-09-08_16h57.41.947,vbt_B2_day4,2022.2.4,Win32,60.4924082,55756,,,,,,down,0,2.9995,,-0.136111111,-0.230555556,1,0,0,0,154,154,26,1,leuk,images/br_leuk.png,images/cb_leuk.png,1,leuk,,,,,,,,,,,,,,,,,,,,,
,,,,,,2023-09-08_16h57.41.947,vbt_B2_day4,2022.2.4,Win32,60.4924082,55756,,,,,,down,0,0.1346,,-0.136111111,-0.230555556,1,0,0,0,155,155,45,1,piste,images/br_piste.png,images/cb_piste.png,0,,,,,,,,,,,,,,,,,,,,,,
,,,,,,2023-09-08_16h57.41.947,vbt_B2_day4,2022.2.4,Win32,60.4924082,55756,,,,,,down,0,0.3564,,-0.136111111,-0.230555556,1,0,0,0,156,156,182,1,bijkomen,images/br_bijkomen.png,images/cb_bijkomen.png,0,,,,,,,,,,,,,,,,,,,,,,
,,,,,,2023-09-08_16h57.41.947,vbt_B2_day4,2022.2.4,Win32,60.4924082,55756,,,,,,down,0,1.6324,,-0.136111111,-0.230555556,1,0,0,0,157,157,80,1,kanjer,images/br_kanjer.png,images/cb_kanjer.png,0,,,,,,,,,,,,,,,,,,,,,,
,,,,,,2023-09-08_16h57.41.947,vbt_B2_day4,2022.2.4,Win32,60.4924082,55756,,,,,,down,0,2.6826,,-0.136111111,-0.230555556,1,0,0,0,158,158,144,1,eetlust,images/br_eetlust.png,images/cb_eetlust.png,1,eetlust,,,,,,,,,,,,,,,,,,,,,
,,,,,,2023-09-08_16h57.41.947,vbt_B2_day4,2022.2.4,Win32,60.4924082,55756,,,,,,down,0,0.2723,,-0.136111111,-0.230555556,1,0,0,0,159,159,40,1,schep,images/br_schep.png,images/cb_schep.png,0,,,,,,,,,,,,,,,,,,,,,,
,,,,,,2023-09-08_16h57.41.947,vbt_B2_day4,2022.2.4,Win32,60.4924082,55756,,,,,,down,0,0.3501,,-0.136111111,-0.230555556,1,0,0,0,160,160,58,1,tekst,images/br_tekst.png,images/cb_tekst.png,0,,,,,,,,,,,,,,,,,,,,,,
,,,,,,2023-09-08_16h57.41.947,vbt_B2_day4,2022.2.4,Win32,60.4924082,55756,,,,,,down,0,5.6168,,-0.136111111,-0.230555556,1,0,0,0,161,161,64,1,wegen,images/br_wegen.png,images/cb_wegen.png,1,wegen,,,,,,,,,,,,,,,,,,,,,
,,,,,,2023-09-08_16h57.41.947,vbt_B2_day4,2022.2.4,Win32,60.4924082,55756,,,,,,down,0,0.6339,,-0.136111111,-0.230555556,1,0,0,0,162,162,93,1,waarop,images/br_waarop.png,images/cb_waarop.png,0,,,,,,,,,,,,,,,,,,,,,,
,,,,,,2023-09-08_16h57.41.947,vbt_B2_day4,2022.2.4,Win32,60.4924082,55756,,,,,,down,0,16.5924,,-0.136111111,-0.230555556,1,0,0,0,163,163,157,1,uitlaat,images/br_uitlaat.png,images/cb_uitlaat.png,0,,,,,,,,,,,,,,,,,,,,,,
,,,,,,2023-09-08_16h57.41.947,vbt_B2_day4,2022.2.4,Win32,60.4924082,55756,,,,,,down,0,0.0346,,-0.136111111,-0.230555556,1,0,0,0,164,164,119,1,liefje,images/br_liefje.png,images/cb_liefje.png,0,,,,,,,,,,,,,,,,,,,,,,
,,,,,,2023-09-08_16h57.41.947,vbt_B2_day4,2022.2.4,Win32,60.4924082,55756,,,,,,down,0,1.7421,,-0.136111111,-0.230555556,1,0,0,0,165,165,168,1,bisschop,images/br_bisschop.png,images/cb_bisschop.png,0,,,,,,,,,,,,,,,,,,,,,,
,,,,,,2023-09-08_16h57.41.947,vbt_B2_day4,2022.2.4,Win32,60.4924082,55756,,,,,,down,0,0.4314,,-0.136111111,-0.230555556,1,0,0,0,166,166,47,1,kabel,images/br_kabel.png,images/cb_kabel.png,0,,,,,,,,,,,,,,,,,,,,,,
,,,,,,2023-09-08_16h57.41.947,vbt_B2_day4,2022.2.4,Win32,60.4924082,55756,,,,,,down,0,1.8856,,-0.136111111,-0.230555556,1,0,0,0,167,167,63,1,flirt,images/br_flirt.png,images/cb_flirt.png,0,,,,,,,,,,,,,,,,,,,,,,
,,,,,,2023-09-08_16h57.41.947,vbt_B2_day4,2022.2.4,Win32,60.4924082,55756,,,,,,down,0,0.1378,,-0.136111111,-0.230555556,1,0,0,0,168,168,42,1,bleek,images/br_bleek.png,images/cb_bleek.png,0,,,,,,,,,,,,,,,,,,,,,,
,,,,,,2023-09-08_16h57.41.947,vbt_B2_day4,2022.2.4,Win32,60.4924082,55756,,,,,,down,0,1.2759,,-0.136111111,-0.230555556,1,0,0,0,169,169,97,1,loyaal,images/br_loyaal.png,images/cb_loyaal.png,0,,,,,,,,,,,,,,,,,,,,,,
,,,,,,2023-09-08_16h57.41.947,vbt_B2_day4,2022.2.4,Win32,60.4924082,55756,,,,,,down,0,2.6327,,-0.136111111,-0.230555556,1,0,0,0,170,170,173,1,apparaat,images/br_apparaat.png,images/cb_apparaat.png,0,,,,,,,,,,,,,,,,,,,,,,
,,,,,,2023-09-08_16h57.41.947,vbt_B2_day4,2022.2.4,Win32,60.4924082,55756,,,,,,down,0,0.3845,,-0.136111111,-0.230555556,1,0,0,0,171,171,101,1,staren,images/br_staren.png,images/cb_staren.png,0,,,,,,,,,,,,,,,,,,,,,,
,,,,,,2023-09-08_16h57.41.947,vbt_B2_day4,2022.2.4,Win32,60.4924082,55756,,,,,,down,0,2.3252,,-0.136111111,-0.230555556,1,0,0,0,172,172,46,1,jagen,images/br_jagen.png,images/cb_jagen.png,0,,,,,,,,,,,,,,,,,,,,,,
,,,,,,2023-09-08_16h57.41.947,vbt_B2_day4,2022.2.4,Win32,60.4924082,55756,,,,,,down,0,1.187,,-0.136111111,-0.230555556,1,0,0,0,173,173,65,1,parel,images/br_parel.png,images/cb_parel.png,1,parel,,,,,,,,,,,,,,,,,,,,,
,,,,,,2023-09-08_16h57.41.947,vbt_B2_day4,2022.2.4,Win32,60.4924082,55756,,,,,,down,0,0.2546,,-0.136111111,-0.230555556,1,0,0,0,174,174,32,1,palm,images/br_palm.png,images/cb_palm.png,0,,,,,,,,,,,,,,,,,,,,,,
,,,,,,2023-09-08_16h57.41.947,vbt_B2_day4,2022.2.4,Win32,60.4924082,55756,,,,,,down,0,0.1686,,-0.136111111,-0.230555556,1,0,0,0,175,175,137,1,trekker,images/br_trekker.png,images/cb_trekker.png,0,,,,,,,,,,,,,,,,,,,,,,
,,,,,,2023-09-08_16h57.41.947,vbt_B2_day4,2022.2.4,Win32,60.4924082,55756,,,,,,down,0,0.1133,,-0.136111111,-0.230555556,1,0,0,0,176,176,28,1,stal,images/br_stal.png,images/cb_stal.png,0,,,,,,,,,,,,,,,,,,,,,,
,,,,,,2023-09-08_16h57.41.947,vbt_B2_day4,2022.2.4,Win32,60.4924082,55756,,,,,,down,0,0.0714,,-0.136111111,-0.230555556,1,0,0,0,177,177,11,1,mode,images/br_mode.png,images/cb_mode.png,0,,,,,,,,,,,,,,,,,,,,,,
,,,,,,2023-09-08_16h57.41.947,vbt_B2_day4,2022.2.4,Win32,60.4924082,55756,,,,,,down,0,0.0848,,-0.136111111,-0.230555556,1,0,0,0,178,178,197,1,spanning,images/br_spanning.png,images/cb_spanning.png,0,,,,,,,,,,,,,,,,,,,,,,
,,,,,,2023-09-08_16h57.41.947,vbt_B2_day4,2022.2.4,Win32,60.4924082,55756,,,,,,down,0,0.2354,,-0.136111111,-0.230555556,1,0,0,0,179,179,70,1,ijdel,images/br_ijdel.png,images/cb_ijdel.png,0,,,,,,,,,,,,,,,,,,,,,,
,,,,,,2023-09-08_16h57.41.947,vbt_B2_day4,2022.2.4,Win32,60.4924082,55756,,,,,,down,0,2.2332,,-0.136111111,-0.230555556,1,0,0,0,180,180,67,1,zwart,images/br_zwart.png,images/cb_zwart.png,1,zwart,,,,,,,,,,,,,,,,,,,,,
,,,,,,2023-09-08_16h57.41.947,vbt_B2_day4,2022.2.4,Win32,60.4924082,55756,,,,,,down,0,0.1829,,-0.136111111,-0.230555556,1,0,0,0,181,181,172,1,weigeren,images/br_weigeren.png,images/cb_weigeren.png,0,,,,,,,,,,,,,,,,,,,,,,
,,,,,,2023-09-08_16h57.41.947,vbt_B2_day4,2022.2.4,Win32,60.4924082,55756,,,,,,down,0,0.5154,,-0.136111111,-0.230555556,1,0,0,0,182,182,81,1,dubbel,images/br_dubbel.png,images/cb_dubbel.png,0,,,,,,,,,,,,,,,,,,,,,,
,,,,,,2023-09-08_16h57.41.947,vbt_B2_day4,2022.2.4,Win32,60.4924082,55756,,,,,,down,0,1.1664,,-0.136111111,-0.230555556,1,0,0,0,183,183,91,1,gezond,images/br_gezond.png,images/cb_gezond.png,0,,,,,,,,,,,,,,,,,,,,,,
,,,,,,2023-09-08_16h57.41.947,vbt_B2_day4,2022.2.4,Win32,60.4924082,55756,,,,,,down,0,0.2341,,-0.136111111,-0.230555556,1,0,0,0,184,184,169,1,oprotten,images/br_oprotten.png,images/cb_oprotten.png,0,,,,,,,,,,,,,,,,,,,,,,
,,,,,,2023-09-08_16h57.41.947,vbt_B2_day4,2022.2.4,Win32,60.4924082,55756,,,,,,down,0,0.1311,,-0.136111111,-0.230555556,1,0,0,0,185,185,0,1,slak,images/br_slak.png,images/cb_slak.png,0,,,,,,,,,,,,,,,,,,,,,,
,,,,,,2023-09-08_16h57.41.947,vbt_B2_day4,2022.2.4,Win32,60.4924082,55756,,,,,,down,0,1.6336,,-0.136111111,-0.230555556,1,0,0,0,186,186,175,1,heengaan,images/br_heengaan.png,images/cb_heengaan.png,0,,,,,,,,,,,,,,,,,,,,,,
,,,,,,2023-09-08_16h57.41.947,vbt_B2_day4,2022.2.4,Win32,60.4924082,55756,,,,,,down,0,1.1223,,-0.136111111,-0.230555556,1,0,0,0,187,187,192,1,schaamte,images/br_schaamte.png,images/cb_schaamte.png,0,,,,,,,,,,,,,,,,,,,,,,
,,,,,,2023-09-08_16h57.41.947,vbt_B2_day4,2022.2.4,Win32,60.4924082,55756,,,,,,down,0,5.397,,-0.136111111,-0.230555556,1,0,0,0,188,188,83,1,mening,images/br_mening.png,images/cb_mening.png,0,,,,,,,,,,,,,,,,,,,,,,
,,,,,,2023-09-08_16h57.41.947,vbt_B2_day4,2022.2.4,Win32,60.4924082,55756,,,,,,down,0,0.1377,,-0.136111111,-0.230555556,1,0,0,0,189,189,15,1,soda,images/br_soda.png,images/cb_soda.png,0,,,,,,,,,,,,,,,,,,,,,,
,,,,,,2023-09-08_16h57.41.947,vbt_B2_day4,2022.2.4,Win32,60.4924082,55756,,,,,,down,0,0.156,,-0.136111111,-0.230555556,1,0,0,0,190,190,141,1,knielen,images/br_knielen.png,images/cb_knielen.png,0,,,,,,,,,,,,,,,,,,,,,,
,,,,,,2023-09-08_16h57.41.947,vbt_B2_day4,2022.2.4,Win32,60.4924082,55756,,,,,,down,0,0.2191,,-0.136111111,-0.230555556,1,0,0,0,191,191,96,1,slagen,images/br_slagen.png,images/cb_slagen.png,0,,,,,,,,,,,,,,,,,,,,,,
,,,,,,2023-09-08_16h57.41.947,vbt_B2_day4,2022.2.4,Win32,60.4924082,55756,,,,,,down,0,0.7231,,-0.136111111,-0.230555556,1,0,0,0,192,192,194,1,driemaal,images/br_driemaal.png,images/cb_driemaal.png,0,,,,,,,,,,,,,,,,,,,,,,
,,,,,,2023-09-08_16h57.41.947,vbt_B2_day4,2022.2.4,Win32,60.4924082,55756,,,,,,down,0,0.1831,,-0.136111111,-0.230555556,1,0,0,0,193,193,55,1,praat,images/br_praat.png,images/cb_praat.png,0,,,,,,,,,,,,,,,,,,,,,,
,,,,,,2023-09-08_16h57.41.947,vbt_B2_day4,2022.2.4,Win32,60.4924082,55756,,,,,,down,0,0.2445,,-0.136111111,-0.230555556,1,0,0,0,194,194,54,1,gebit,images/br_gebit.png,images/cb_gebit.png,0,,,,,,,,,,,,,,,,,,,,,,
,,,,,,2023-09-08_16h57.41.947,vbt_B2_day4,2022.2.4,Win32,60.4924082,55756,,,,,,down,0,0.0557,,-0.136111111,-0.230555556,1,0,0,0,195,195,35,1,lust,images/br_lust.png,images/cb_lust.png,0,,,,,,,,,,,,,,,,,,,,,,
,,,,,,2023-09-08_16h57.41.947,vbt_B2_day4,2022.2.4,Win32,60.4924082,55756,,,,,,down,0,1.7391,,-0.136111111,-0.230555556,1,0,0,0,196,196,113,1,koppen,images/br_koppen.png,images/cb_koppen.png,0,,,,,,,,,,,,,,,,,,,,,,
,,,,,,2023-09-08_16h57.41.947,vbt_B2_day4,2022.2.4,Win32,60.4924082,55756,,,,,,down,0,2.4832,,-0.136111111,-0.230555556,1,0,0,0,197,197,131,1,opzicht,images/br_opzicht.png,images/cb_opzicht.png,0,,,,,,,,,,,,,,,,,,,,,,
,,,,,,2023-09-08_16h57.41.947,vbt_B2_day4,2022.2.4,Win32,60.4924082,55756,,,,,,down,0,0.0408,,-0.136111111,-0.230555556,1,0,0,0,198,198,89,1,slapen,images/br_slapen.png,images/cb_slapen.png,0,,,,,,,,,,,,,,,,,,,,,,
,,,,,,2023-09-08_16h57.41.947,vbt_B2_day4,2022.2.4,Win32,60.4924082,55756,,,,,,down,0,0.2885,,-0.136111111,-0.230555556,1,0,0,0,199,199,73,1,volop,images/br_volop.png,images/cb_volop.png,0,,,,,,,,,,,,,,,,,,,,,,
,,,,,,2023-09-08_16h57.41.947,vbt_B2_day4,2022.2.4,Win32,60.4924082,55756,,,,,,,,,,,,,,,,,,,,,,,,,-0.839814815,0.488888889,1,0,0,,,,,,,,,,,,,,,,
,,,,,,2023-09-08_16h57.41.947,vbt_B2_day4,2022.2.4,Win32,60.4924082,55756,,,,,,,,,,,,,,,,,,,,,,,,,,,,,,-0.839814815,0.488888889,1,0,0,,,,,,,,,,,
,,,,,,2023-09-08_16h57.41.947,vbt_B2_day4,2022.2.4,Win32,60.4924082,55756,,,,,,,,,,,,,,,,,,,,dozijn,images/br_dozijn.png,images/cb_dozijn.png,,dozi.g,,,,,,,,,,,-0.839814815,0.488888889,1,0,0,dozi.g,0,0,0,48,1
,,,,,,2023-09-08_16h57.41.947,vbt_B2_day4,2022.2.4,Win32,60.4924082,55756,,,,,,,,,,,,,,,,,,,,gedicht,images/br_gedicht.png,images/cb_gedicht.png,,gedicht,,,,,,,,,,,-0.839814815,0.488888889,1,0,0,gedicht,0,1,1,15,1
,,,,,,2023-09-08_16h57.41.947,vbt_B2_day4,2022.2.4,Win32,60.4924082,55756,,,,,,,,,,,,,,,,,,,,steen,images/br_steen.png,images/cb_steen.png,,steen,,,,,,,,,,,-0.085185185,0.02037037,1,0,0,steen,0,2,2,44,1
,,,,,,2023-09-08_16h57.41.947,vbt_B2_day4,2022.2.4,Win32,60.4924082,55756,,,,,,,,,,,,,,,,,,,,gaaf,images/br_gaaf.png,images/cb_gaaf.png,,gaaf,,,,,,,,,,,-0.085185185,0.02037037,1,0,0,gaaf,0,3,3,43,1
,,,,,,2023-09-08_16h57.41.947,vbt_B2_day4,2022.2.4,Win32,60.4924082,55756,,,,,,,,,,,,,,,,,,,,fran,images/br_fran.png,images/cb_fran.png,,dran,,,,,,,,,,,-0.085185185,0.02037037,1,0,0,dran,0,4,4,22,1
,,,,,,2023-09-08_16h57.41.947,vbt_B2_day4,2022.2.4,Win32,60.4924082,55756,,,,,,,,,,,,,,,,,,,,midden,images/br_midden.png,images/cb_midden.png,,midden,,,,,,,,,,,-0.085185185,0.02037037,1,0,0,midden,0,5,5,50,1
,,,,,,2023-09-08_16h57.41.947,vbt_B2_day4,2022.2.4,Win32,60.4924082,55756,,,,,,,,,,,,,,,,,,,,opruimen,images/br_opruimen.png,images/cb_opruimen.png,,opruimen,,,,,,,,,,,-0.085185185,0.02037037,1,0,0,opruimen,0,6,6,59,1
,,,,,,2023-09-08_16h57.41.947,vbt_B2_day4,2022.2.4,Win32,60.4924082,55756,,,,,,,,,,,,,,,,,,,,praat,images/br_praat.png,images/cb_praat.png,,praat,,,,,,,,,,,-0.085185185,0.02037037,1,0,0,praat,0,7,7,7,1
,,,,,,2023-09-08_16h57.41.947,vbt_B2_day4,2022.2.4,Win32,60.4924082,55756,,,,,,,,,,,,,,,,,,,,geheim,images/br_geheim.png,images/cb_geheim.png,,geheim,,,,,,,,,,,-0.085185185,0.02037037,1,0,0,geheim,0,8,8,8,1
,,,,,,2023-09-08_16h57.41.947,vbt_B2_day4,2022.2.4,Win32,60.4924082,55756,,,,,,,,,,,,,,,,,,,,kaal,images/br_kaal.png,images/cb_kaal.png,,kaal,,,,,,,,,,,-0.085185185,0.02037037,1,0,0,kaal,0,9,9,1,1
,,,,,,2023-09-08_16h57.41.947,vbt_B2_day4,2022.2.4,Win32,60.4924082,55756,,,,,,,,,,,,,,,,,,,,dalen,images/br_dalen.png,images/cb_dalen.png,,dalen,,,,,,,,,,,-0.085185185,0.02037037,1,0,0,dalen,0,10,10,46,1
,,,,,,2023-09-08_16h57.41.947,vbt_B2_day4,2022.2.4,Win32,60.4924082,55756,,,,,,,,,,,,,,,,,,,,lappen,images/br_lappen.png,images/cb_lappen.png,,lappen,,,,,,,,,,,-0.085185185,0.02037037,1,0,0,lappen,0,11,11,49,1
,,,,,,2023-09-08_16h57.41.947,vbt_B2_day4,2022.2.4,Win32,60.4924082,55756,,,,,,,,,,,,,,,,,,,,schenden,images/br_schenden.png,images/cb_schenden.png,,schenden,,,,,,,,,,,-0.085185185,0.02037037,1,0,0,schenden,0,12,12,57,1
,,,,,,2023-09-08_16h57.41.947,vbt_B2_day4,2022.2.4,Win32,60.4924082,55756,,,,,,,,,,,,,,,,,,,,kust,images/br_kust.png,images/cb_kust.png,,kust,,,,,,,,,,,-0.085185185,0.02037037,1,0,0,kust,0,13,13,0,1
,,,,,,2023-09-08_16h57.41.947,vbt_B2_day4,2022.2.4,Win32,60.4924082,55756,,,,,,,,,,,,,,,,,,,,stemming,images/br_stemming.png,images/cb_stemming.png,,stemming,,,,,,,,,,,-0.085185185,0.02037037,1,0,0,stemming,0,14,14,18,1
,,,,,,2023-09-08_16h57.41.947,vbt_B2_day4,2022.2.4,Win32,60.4924082,55756,,,,,,,,,,,,,,,,,,,,zwek,images/br_zwek.png,images/cb_zwek.png,,zwek,,,,,,,,,,,-0.085185185,0.02037037,1,0,0,zwek,0,15,15,20,1
,,,,,,2023-09-08_16h57.41.947,vbt_B2_day4,2022.2.4,Win32,60.4924082,55756,,,,,,,,,,,,,,,,,,,,haza,images/br_haza.png,images/cb_haza.png,,haza,,,,,,,,,,,-0.085185185,0.02037037,1,0,0,haza,0,16,16,21,1
,,,,,,2023-09-08_16h57.41.947,vbt_B2_day4,2022.2.4,Win32,60.4924082,55756,,,,,,,,,,,,,,,,,,,,noodzaak,images/br_noodzaak.png,images/cb_noodzaak.png,,noodzaak,,,,,,,,,,,-0.085185185,0.02037037,1,0,0,noodzaak,0,17,17,56,1
,,,,,,2023-09-08_16h57.41.947,vbt_B2_day4,2022.2.4,Win32,60.4924082,55756,,,,,,,,,,,,,,,,,,,,broodje,images/br_broodje.png,images/cb_broodje.png,,broodje,,,,,,,,,,,-0.085185185,0.02037037,1,0,0,broodje,0,18,18,55,1
,,,,,,2023-09-08_16h57.41.947,vbt_B2_day4,2022.2.4,Win32,60.4924082,55756,,,,,,,,,,,,,,,,,,,,apparaat,images/br_apparaat.png,images/cb_apparaat.png,,apparaat,,,,,,,,,,,-0.085185185,0.02037037,1,0,0,apparaat,0,19,19,17,1
,,,,,,2023-09-08_16h57.41.947,vbt_B2_day4,2022.2.4,Win32,60.4924082,55756,,,,,,,,,,,,,,,,,,,,vreten,images/br_vreten.png,images/cb_vreten.png,,vreten,,,,,,,,,,,-0.085185185,0.02037037,1,0,0,vreten,0,20,20,11,1
,,,,,,2023-09-08_16h57.41.947,vbt_B2_day4,2022.2.4,Win32,60.4924082,55756,,,,,,,,,,,,,,,,,,,,bisschap,images/br_bisschap.png,images/cb_bisschap.png,,bisschop,,,,,,,,,,,-0.085185185,0.02037037,1,0,0,bisschop,0,21,21,36,1
,,,,,,2023-09-08_16h57.41.947,vbt_B2_day4,2022.2.4,Win32,60.4924082,55756,,,,,,,,,,,,,,,,,,,,opkicht,images/br_opkicht.png,images/cb_opkicht.png,,opkecht,,,,,,,,,,,-0.085185185,0.02037037,1,0,0,opkecht,0,22,22,34,1
,,,,,,2023-09-08_16h57.41.947,vbt_B2_day4,2022.2.4,Win32,60.4924082,55756,,,,,,,,,,,,,,,,,,,,soda,images/br_soda.png,images/cb_soda.png,,soda,,,,,,,,,,,-0.085185185,0.02037037,1,0,0,soda,0,23,23,3,1
,,,,,,2023-09-08_16h57.41.947,vbt_B2_day4,2022.2.4,Win32,60.4924082,55756,,,,,,,,,,,,,,,,,,,,weigeren,images/br_weigeren.png,images/cb_weigeren.png,,weigeren,,,,,,,,,,,-0.085185185,0.02037037,1,0,0,weigeren,0,24,24,16,1
,,,,,,2023-09-08_16h57.41.947,vbt_B2_day4,2022.2.4,Win32,60.4924082,55756,,,,,,,,,,,,,,,,,,,,strok,images/br_strok.png,images/cb_strok.png,,strok,,,,,,,,,,,-0.085185185,0.02037037,1,0,0,strok,0,25,25,25,1
,,,,,,2023-09-08_16h57.41.947,vbt_B2_day4,2022.2.4,Win32,60.4924082,55756,,,,,,,,,,,,,,,,,,,,geliefd,images/br_geliefd.png,images/cb_geliefd.png,,geliefd,,,,,,,,,,,-0.085185185,0.02037037,1,0,0,geliefd,0,26,26,14,1
,,,,,,2023-09-08_16h57.41.947,vbt_B2_day4,2022.2.4,Win32,60.4924082,55756,,,,,,,,,,,,,,,,,,,,gijf,images/br_gijf.png,images/cb_gijf.png,,gijf,,,,,,,,,,,-0.085185185,0.02037037,1,0,0,gijf,0,27,27,23,1
,,,,,,2023-09-08_16h57.41.947,vbt_B2_day4,2022.2.4,Win32,60.4924082,55756,,,,,,,,,,,,,,,,,,,,gebit,images/br_gebit.png,images/cb_gebit.png,,gebit,,,,,,,,,,,-0.085185185,0.02037037,1,0,0,gebit,0,28,28,6,1
,,,,,,2023-09-08_16h57.41.947,vbt_B2_day4,2022.2.4,Win32,60.4924082,55756,,,,,,,,,,,,,,,,,,,,sulbon,images/br_sulbon.png,images/cb_sulbon.png,,sulbon,,,,,,,,,,,-0.085185185,0.02037037,1,0,0,sulbon,0,29,29,31,1
,,,,,,2023-09-08_16h57.41.947,vbt_B2_day4,2022.2.4,Win32,60.4924082,55756,,,,,,,,,,,,,,,,,,,,flippen,images/br_flippen.png,images/cb_flippen.png,,ippen,,,,,,,,,,,-0.085185185,0.02037037,1,0,0,ippen,0,30,30,54,1
,,,,,,2023-09-08_16h57.41.947,vbt_B2_day4,2022.2.4,Win32,60.4924082,55756,,,,,,,,,,,,,,,,,,,,snee,images/br_snee.png,images/cb_snee.png,,snee,,,,,,,,,,,-0.085185185,0.02037037,1,0,0,snee,0,31,31,40,1
,,,,,,2023-09-08_16h57.41.947,vbt_B2_day4,2022.2.4,Win32,60.4924082,55756,,,,,,,,,,,,,,,,,,,,gebog,images/br_gebog.png,images/cb_gebog.png,,gelod,,,,,,,,,,,-0.085185185,0.02037037,1,0,0,gelod,0,32,32,24,1
,,,,,,2023-09-08_16h57.41.947,vbt_B2_day4,2022.2.4,Win32,60.4924082,55756,,,,,,,,,,,,,,,,,,,,wozing,images/br_wozing.png,images/cb_wozing.png,,wozing,,,,,,,,,,,-0.085185185,0.02037037,1,0,0,wozing,0,33,33,28,1
,,,,,,2023-09-08_16h57.41.947,vbt_B2_day4,2022.2.4,Win32,60.4924082,55756,,,,,,,,,,,,,,,,,,,,seizoen,images/br_seizoen.png,images/cb_seizoen.png,,seizien,,,,,,,,,,,-0.085185185,0.02037037,1,0,0,seizien,0,34,34,13,1
,,,,,,2023-09-08_16h57.41.947,vbt_B2_day4,2022.2.4,Win32,60.4924082,55756,,,,,,,,,,,,,,,,,,,,eerst,images/br_eerst.png,images/cb_eerst.png,,eerst,,,,,,,,,,,0.201851852,0.030555556,1,0,0,eerst,0,35,35,47,1
,,,,,,2023-09-08_16h57.41.947,vbt_B2_day4,2022.2.4,Win32,60.4924082,55756,,,,,,,,,,,,,,,,,,,,baron,images/br_baron.png,images/cb_baron.png,,baron,,,,,,,,,,,0.201851852,0.030555556,1,0,0,baron,0,36,36,5,1
,,,,,,2023-09-08_16h57.41.947,vbt_B2_day4,2022.2.4,Win32,60.4924082,55756,,,,,,,,,,,,,,,,,,,,tucket,images/br_tucket.png,images/cb_tucket.png,,sucket,,,,,,,,,,,0.201851852,0.030555556,1,0,0,sucket,0,37,37,30,1
,,,,,,2023-09-08_16h57.41.947,vbt_B2_day4,2022.2.4,Win32,60.4924082,55756,,,,,,,,,,,,,,,,,,,,gaan,images/br_gaan.png,images/cb_gaan.png,,gaan,,,,,,,,,,,0.201851852,0.030555556,1,0,0,gaan,0,38,38,41,1
,,,,,,2023-09-08_16h57.41.947,vbt_B2_day4,2022.2.4,Win32,60.4924082,55756,,,,,,,,,,,,,,,,,,,,waarop,images/br_waarop.png,images/cb_waarop.png,,waarop,,,,,,,,,,,0.201851852,0.030555556,1,0,0,waarop,0,39,39,9,1
,,,,,,2023-09-08_16h57.41.947,vbt_B2_day4,2022.2.4,Win32,60.4924082,55756,,,,,,,,,,,,,,,,,,,,schotel,images/br_schotel.png,images/cb_schotel.png,,schotil,,,,,,,,,,,0.037962963,-0.191666667,1,0,0,schotil,0,40,40,52,1
,,,,,,2023-09-08_16h57.41.947,vbt_B2_day4,2022.2.4,Win32,60.4924082,55756,,,,,,,,,,,,,,,,,,,,toevol,images/br_toevol.png,images/cb_toevol.png,,toeval,,,,,,,,,,,0.037962963,-0.191666667,1,0,0,toeval,0,41,41,29,1
,,,,,,2023-09-08_16h57.41.947,vbt_B2_day4,2022.2.4,Win32,60.4924082,55756,,,,,,,,,,,,,,,,,,,,pijnlijk,images/br_pijnlijk.png,images/cb_pijnlijk.png,,pijnlijk,,,,,,,,,,,0.037962963,-0.191666667,1,0,0,pijnlijk,0,42,42,58,1
,,,,,,2023-09-08_16h57.41.947,vbt_B2_day4,2022.2.4,Win32,60.4924082,55756,,,,,,,,,,,,,,,,,,,,drummer,images/br_drummer.png,images/cb_drummer.png,,drummer,,,,,,,,,,,0.037962963,-0.191666667,1,0,0,drummer,0,43,43,53,1
,,,,,,2023-09-08_16h57.41.947,vbt_B2_day4,2022.2.4,Win32,60.4924082,55756,,,,,,,,,,,,,,,,,,,,ezel,images/br_ezel.png,images/cb_ezel.png,,ezel,,,,,,,,,,,0.037962963,-0.191666667,1,0,0,ezel,0,44,44,42,1
,,,,,,2023-09-08_16h57.41.947,vbt_B2_day4,2022.2.4,Win32,60.4924082,55756,,,,,,,,,,,,,,,,,,,,rijp,images/br_rijp.png,images/cb_rijp.png,,rijp,,,,,,,,,,,0.037962963,-0.191666667,1,0,0,rijp,0,45,45,2,1
,,,,,,2023-09-08_16h57.41.947,vbt_B2_day4,2022.2.4,Win32,60.4924082,55756,,,,,,,,,,,,,,,,,,,,warel,images/br_warel.png,images/cb_warel.png,,warel,,,,,,,,,,,0.037962963,-0.191666667,1,0,0,warel,0,46,46,26,1
,,,,,,2023-09-08_16h57.41.947,vbt_B2_day4,2022.2.4,Win32,60.4924082,55756,,,,,,,,,,,,,,,,,,,,seizoon,images/br_seizoon.png,images/cb_seizoon.png,,seizoon,,,,,,,,,,,0.037962963,-0.191666667,1,0,0,seizoon,0,47,47,33,1
,,,,,,2023-09-08_16h57.41.947,vbt_B2_day4,2022.2.4,Win32,60.4924082,55756,,,,,,,,,,,,,,,,,,,,zaalrijk,images/br_zaalrijk.png,images/cb_zaalrijk.png,,zaalrijk,,,,,,,,,,,0.037962963,-0.191666667,1,0,0,zaalrijk,0,48,48,37,1
,,,,,,2023-09-08_16h57.41.947,vbt_B2_day4,2022.2.4,Win32,60.4924082,55756,,,,,,,,,,,,,,,,,,,,paalbaak,images/br_paalbaak.png,images/cb_paalbaak.png,,paalbaak,,,,,,,,,,,0.037962963,-0.191666667,1,0,0,paalbaak,0,49,49,39,1
,,,,,,2023-09-08_16h57.41.947,vbt_B2_day4,2022.2.4,Win32,60.4924082,55756,,,,,,,,,,,,,,,,,,,,wagon,images/br_wagon.png,images/cb_wagon.png,,wagon,,,,,,,,,,,0.037962963,-0.191666667,1,0,0,wagon,0,50,50,4,1
,,,,,,2023-09-08_16h57.41.947,vbt_B2_day4,2022.2.4,Win32,60.4924082,55756,,,,,,,,,,,,,,,,,,,,pittig,images/br_pittig.png,images/cb_pittig.png,,pittig,,,,,,,,,,,0.037962963,-0.191666667,1,0,0,pittig,0,51,51,51,1
,,,,,,2023-09-08_16h57.41.947,vbt_B2_day4,2022.2.4,Win32,60.4924082,55756,,,,,,,,,,,,,,,,,,,,oceaan,images/br_oceaan.png,images/cb_oceaan.png,,oceaan,,,,,,,,,,,0.037962963,-0.191666667,1,0,0,oceaan,0,52,52,10,1
,,,,,,2023-09-08_16h57.41.947,vbt_B2_day4,2022.2.4,Win32,60.4924082,55756,,,,,,,,,,,,,,,,,,,,getucht,images/br_getucht.png,images/cb_getucht.png,,getucht,,,,,,,,,,,0.662962963,-0.499074074,1,0,0,getucht,0,53,53,35,1
,,,,,,2023-09-08_16h57.41.947,vbt_B2_day4,2022.2.4,Win32,60.4924082,55756,,,,,,,,,,,,,,,,,,,,drooien,images/br_drooien.png,images/cb_drooien.png,,drooien,,,,,,,,,,,0.662962963,-0.499074074,1,0,0,drooien,0,54,54,32,1
,,,,,,2023-09-08_16h57.41.947,vbt_B2_day4,2022.2.4,Win32,60.4924082,55756,,,,,,,,,,,,,,,,,,,,heengaan,images/br_heengaan.png,images/cb_heengaan.png,,heengaan,,,,,,,,,,,0.662962963,-0.499074074,1,0,0,heengaan,0,55,55,19,1
,,,,,,2023-09-08_16h57.41.947,vbt_B2_day4,2022.2.4,Win32,60.4924082,55756,,,,,,,,,,,,,,,,,,,,bruin,images/br_bruin.png,images/cb_bruin.png,,bruin,,,,,,,,,,,0.662962963,-0.499074074,1,0,0,bruin,0,56,56,45,1
,,,,,,2023-09-08_16h57.41.947,vbt_B2_day4,2022.2.4,Win32,60.4924082,55756,,,,,,,,,,,,,,,,,,,,mekst,images/br_mekst.png,images/cb_mekst.png,,mekst,,,,,,,,,,,0.662962963,-0.499074074,1,0,0,mekst,0,57,57,27,1
,,,,,,2023-09-08_16h57.41.947,vbt_B2_day4,2022.2.4,Win32,60.4924082,55756,,,,,,,,,,,,,,,,,,,,aanzwaag,images/br_aanzwaag.png,images/cb_aanzwaag.png,,aanzwaah,,,,,,,,,,,0.662962963,-0.499074074,1,0,0,aanzwaah,0,58,58,38,1
,,,,,,2023-09-08_16h57.41.947,vbt_B2_day4,2022.2.4,Win32,60.4924082,55756,,,,,,,,,,,,,,,,,,,,grappen,images/br_grappen.png,images/cb_grappen.png,,grappig,,,,,,,,,,,0.660185185,-0.497222222,1,0,0,grappig,0,59,59,12,1
,,,,,,2023-09-08_16h57.41.947,vbt_B2_day4,2022.2.4,Win32,60.4924082,55756,,,,,,,,,,,,,,,,,,,,,,,,,,,,,,,,,,,,,,,,,,,,,
