welcome_mouse.x,welcome_mouse.y,welcome_mouse.leftButton,welcome_mouse.midButton,welcome_mouse.rightButton,"ID",date,expName,psychopyVersion,OS,frameRate,participant,trainInstr_mouse.x,trainInstr_mouse.y,trainInstr_mouse.leftButton,trainInstr_mouse.midButton,trainInstr_mouse.rightButton,translation_key.keys,translation_key.corr,translation_key.rt,testResp,word_rsp.text,trWrd_mouse.x,trWrd_mouse.y,trWrd_mouse.leftButton,trWrd_mouse.midButton,trWrd_mouse.rightButton,train_loop.thisRepN,train_loop.thisTrialN,train_loop.thisN,train_loop.thisIndex,train_loop.ran,nlWrd,brWrd,cbWrd,test,mouse.x,mouse.y,mouse.leftButton,mouse.midButton,mouse.rightButton,testInstr_mouse.x,testInstr_mouse.y,testInstr_mouse.leftButton,testInstr_mouse.midButton,testInstr_mouse.rightButton,test_mouse.x,test_mouse.y,test_mouse.leftButton,test_mouse.midButton,test_mouse.rightButton,test_response.text,test_loop.thisRepN,test_loop.thisTrialN,test_loop.thisN,test_loop.thisIndex,test_loop.ran
-0.195370356,-0.264814843,1,0,0,55987,2023-09-30_10h44.50.879,vbt_B2_day4,2022.2.4,Win32,60.13229104,55987,,,,,,,,,,,,,,,,,,,,,,,,,,,,,,,,,,,,,,,,,,,,,
,,,,,55987,2023-09-30_10h44.50.879,vbt_B2_day4,2022.2.4,Win32,60.13229104,55987,-0.195370356,-0.264814843,1,0,0,,,,,,,,,,,,,,,,,,,,,,,,,,,,,,,,,,,,,,,,
,,,,,55987,2023-09-30_10h44.50.879,vbt_B2_day4,2022.2.4,Win32,60.13229104,55987,,,,,,down,0,9.7993,zingen ,,-0.251851824,-0.245370399,1,0,0,0,0,0,106,1,zingen,images/br_zingen.png,images/cb_zingen.png,1,,,,,,,,,,,,,,,,,,,,,
,,,,,55987,2023-09-30_10h44.50.879,vbt_B2_day4,2022.2.4,Win32,60.13229104,55987,,,,,,down,0,0.6709,,,-0.251851824,-0.244444444,1,0,0,0,1,1,102,1,legaal,images/br_legaal.png,images/cb_legaal.png,0,,,,,,,,,,,,,,,,,,,,,
,,,,,55987,2023-09-30_10h44.50.879,vbt_B2_day4,2022.2.4,Win32,60.13229104,55987,,,,,,down,0,0.1887,,,0.013888889,-0.127777778,1,0,0,0,2,2,143,1,hechten,images/br_hechten.png,images/cb_hechten.png,0,,,,,,,,,,,,,,,,,,,,,
,,,,,55987,2023-09-30_10h44.50.879,vbt_B2_day4,2022.2.4,Win32,60.13229104,55987,,,,,,down,0,1.7333,,,0.013888889,-0.127777778,1,0,0,0,3,3,10,1,leek,images/br_leek.png,images/cb_leek.png,0,,,,,,,,,,,,,,,,,,,,,
,,,,,55987,2023-09-30_10h44.50.879,vbt_B2_day4,2022.2.4,Win32,60.13229104,55987,,,,,,down,0,0.2617,,,0.415740797,-0.186111111,1,0,0,0,4,4,148,1,smullen,images/br_smullen.png,images/cb_smullen.png,0,,,,,,,,,,,,,,,,,,,,,
,,,,,55987,2023-09-30_10h44.50.879,vbt_B2_day4,2022.2.4,Win32,60.13229104,55987,,,,,,down,0,0.7993,,,0.415740797,-0.186111111,1,0,0,0,5,5,170,1,schatten,images/br_schatten.png,images/cb_schatten.png,0,,,,,,,,,,,,,,,,,,,,,
,,,,,55987,2023-09-30_10h44.50.879,vbt_B2_day4,2022.2.4,Win32,60.13229104,55987,,,,,,down,0,3.2344,wegen,,0.415740797,-0.186111111,1,0,0,0,6,6,64,1,wegen,images/br_wegen.png,images/cb_wegen.png,1,,,,,,,,,,,,,,,,,,,,,
,,,,,55987,2023-09-30_10h44.50.879,vbt_B2_day4,2022.2.4,Win32,60.13229104,55987,,,,,,down,0,0.5051,,,0.450925954,-0.309259288,1,0,0,0,7,7,189,1,aanraden,images/br_aanraden.png,images/cb_aanraden.png,0,,,,,,,,,,,,,,,,,,,,,
,,,,,55987,2023-09-30_10h44.50.879,vbt_B2_day4,2022.2.4,Win32,60.13229104,55987,,,,,,down,0,0.5804,,,0.450925954,-0.309259288,1,0,0,0,8,8,150,1,gegeven,images/br_gegeven.png,images/cb_gegeven.png,0,,,,,,,,,,,,,,,,,,,,,
,,,,,55987,2023-09-30_10h44.50.879,vbt_B2_day4,2022.2.4,Win32,60.13229104,55987,,,,,,down,0,0.4152,,,0.450925954,-0.309259288,1,0,0,0,9,9,155,1,gerucht,images/br_gerucht.png,images/cb_gerucht.png,0,,,,,,,,,,,,,,,,,,,,,
,,,,,55987,2023-09-30_10h44.50.879,vbt_B2_day4,2022.2.4,Win32,60.13229104,55987,,,,,,down,0,0.6715,,,0.450925954,-0.309259288,1,0,0,0,10,10,77,1,woede,images/br_woede.png,images/cb_woede.png,0,,,,,,,,,,,,,,,,,,,,,
,,,,,55987,2023-09-30_10h44.50.879,vbt_B2_day4,2022.2.4,Win32,60.13229104,55987,,,,,,down,0,7.5504,invloed,,0.450925954,-0.309259288,1,0,0,0,11,11,145,1,invloed,images/br_invloed.png,images/cb_invloed.png,1,,,,,,,,,,,,,,,,,,,,,
,,,,,55987,2023-09-30_10h44.50.879,vbt_B2_day4,2022.2.4,Win32,60.13229104,55987,,,,,,down,0,4.5194,jurk,,0.450925954,-0.309259288,1,0,0,0,12,12,24,1,jurk,images/br_jurk.png,images/cb_jurk.png,1,,,,,,,,,,,,,,,,,,,,,
,,,,,55987,2023-09-30_10h44.50.879,vbt_B2_day4,2022.2.4,Win32,60.13229104,55987,,,,,,down,0,0.6212,,,0.450925954,-0.309259288,1,0,0,0,13,13,111,1,ticket,images/br_ticket.png,images/cb_ticket.png,0,,,,,,,,,,,,,,,,,,,,,
,,,,,55987,2023-09-30_10h44.50.879,vbt_B2_day4,2022.2.4,Win32,60.13229104,55987,,,,,,down,0,0.624,,,0.450925954,-0.309259288,1,0,0,0,14,14,172,1,weigeren,images/br_weigeren.png,images/cb_weigeren.png,0,,,,,,,,,,,,,,,,,,,,,
,,,,,55987,2023-09-30_10h44.50.879,vbt_B2_day4,2022.2.4,Win32,60.13229104,55987,,,,,,down,0,0.1753,,,0.450925954,-0.309259288,1,0,0,0,15,15,120,1,klimmen,images/br_klimmen.png,images/cb_klimmen.png,0,,,,,,,,,,,,,,,,,,,,,
,,,,,55987,2023-09-30_10h44.50.879,vbt_B2_day4,2022.2.4,Win32,60.13229104,55987,,,,,,down,0,0.0107,,,0.450925954,-0.309259288,1,0,0,0,16,16,127,1,doodmoe,images/br_doodmoe.png,images/cb_doodmoe.png,0,,,,,,,,,,,,,,,,,,,,,
,,,,,55987,2023-09-30_10h44.50.879,vbt_B2_day4,2022.2.4,Win32,60.13229104,55987,,,,,,down,0,0.13,,,0.450925954,-0.309259288,1,0,0,0,17,17,117,1,kennis,images/br_kennis.png,images/cb_kennis.png,0,,,,,,,,,,,,,,,,,,,,,
,,,,,55987,2023-09-30_10h44.50.879,vbt_B2_day4,2022.2.4,Win32,60.13229104,55987,,,,,,down,0,0.6124,,,0.450925954,-0.309259288,1,0,0,0,18,18,182,1,bijkomen,images/br_bijkomen.png,images/cb_bijkomen.png,0,,,,,,,,,,,,,,,,,,,,,
,,,,,55987,2023-09-30_10h44.50.879,vbt_B2_day4,2022.2.4,Win32,60.13229104,55987,,,,,,down,0,0.482,,,0.450925954,-0.309259288,1,0,0,0,19,19,134,1,geliefd,images/br_geliefd.png,images/cb_geliefd.png,0,,,,,,,,,,,,,,,,,,,,,
,,,,,55987,2023-09-30_10h44.50.879,vbt_B2_day4,2022.2.4,Win32,60.13229104,55987,,,,,,down,0,0.3832,,,0.411111111,-0.268518575,0,0,1,0,20,20,162,1,uitdelen,images/br_uitdelen.png,images/cb_uitdelen.png,0,,,,,,,,,,,,,,,,,,,,,
,,,,,55987,2023-09-30_10h44.50.879,vbt_B2_day4,2022.2.4,Win32,60.13229104,55987,,,,,,down,0,0.1684,,,0.416666667,-0.277777778,1,0,0,0,21,21,109,1,totaal,images/br_totaal.png,images/cb_totaal.png,0,,,,,,,,,,,,,,,,,,,,,
,,,,,55987,2023-09-30_10h44.50.879,vbt_B2_day4,2022.2.4,Win32,60.13229104,55987,,,,,,down,0,0.0883,,,0.416666667,-0.277777778,1,0,0,0,22,22,74,1,graaf,images/br_graaf.png,images/cb_graaf.png,0,,,,,,,,,,,,,,,,,,,,,
,,,,,55987,2023-09-30_10h44.50.879,vbt_B2_day4,2022.2.4,Win32,60.13229104,55987,,,,,,down,0,0.3687,,,0.416666667,-0.277777778,1,0,0,0,23,23,142,1,snuiven,images/br_snuiven.png,images/cb_snuiven.png,0,,,,,,,,,,,,,,,,,,,,,
,,,,,55987,2023-09-30_10h44.50.879,vbt_B2_day4,2022.2.4,Win32,60.13229104,55987,,,,,,down,0,0.9547,,,0.416666667,-0.277777778,1,0,0,0,24,24,198,1,bedoelen,images/br_bedoelen.png,images/cb_bedoelen.png,0,,,,,,,,,,,,,,,,,,,,,
,,,,,55987,2023-09-30_10h44.50.879,vbt_B2_day4,2022.2.4,Win32,60.13229104,55987,,,,,,down,0,0.2278,,,0.416666667,-0.277777778,1,0,0,0,25,25,0,1,slak,images/br_slak.png,images/cb_slak.png,0,,,,,,,,,,,,,,,,,,,,,
,,,,,55987,2023-09-30_10h44.50.879,vbt_B2_day4,2022.2.4,Win32,60.13229104,55987,,,,,,down,0,0.3742,,,0.416666667,-0.277777778,1,0,0,0,26,26,98,1,kreeft,images/br_kreeft.png,images/cb_kreeft.png,0,,,,,,,,,,,,,,,,,,,,,
,,,,,55987,2023-09-30_10h44.50.879,vbt_B2_day4,2022.2.4,Win32,60.13229104,55987,,,,,,down,0,0.4102,,,0.416666667,-0.277777778,1,0,0,0,27,27,21,1,mist,images/br_mist.png,images/cb_mist.png,0,,,,,,,,,,,,,,,,,,,,,
,,,,,55987,2023-09-30_10h44.50.879,vbt_B2_day4,2022.2.4,Win32,60.13229104,55987,,,,,,down,0,0.2176,,,0.416666667,-0.277777778,1,0,0,0,28,28,71,1,bever,images/br_bever.png,images/cb_bever.png,0,,,,,,,,,,,,,,,,,,,,,
,,,,,55987,2023-09-30_10h44.50.879,vbt_B2_day4,2022.2.4,Win32,60.13229104,55987,,,,,,down,0,0.2912,,,0.416666667,-0.277777778,1,0,0,0,29,29,193,1,weeshuis,images/br_weeshuis.png,images/cb_weeshuis.png,0,,,,,,,,,,,,,,,,,,,,,
,,,,,55987,2023-09-30_10h44.50.879,vbt_B2_day4,2022.2.4,Win32,60.13229104,55987,,,,,,down,0,0.6002,,,0.416666667,-0.277777778,1,0,0,0,30,30,5,1,blad,images/br_blad.png,images/cb_blad.png,0,,,,,,,,,,,,,,,,,,,,,
,,,,,55987,2023-09-30_10h44.50.879,vbt_B2_day4,2022.2.4,Win32,60.13229104,55987,,,,,,down,0,0.4941,,,0.416666667,-0.277777778,1,0,0,0,31,31,112,1,lukken,images/br_lukken.png,images/cb_lukken.png,0,,,,,,,,,,,,,,,,,,,,,
,,,,,55987,2023-09-30_10h44.50.879,vbt_B2_day4,2022.2.4,Win32,60.13229104,55987,,,,,,down,0,0.0838,,,0.416666667,-0.277777778,1,0,0,0,32,32,57,1,steek,images/br_steek.png,images/cb_steek.png,0,,,,,,,,,,,,,,,,,,,,,
,,,,,55987,2023-09-30_10h44.50.879,vbt_B2_day4,2022.2.4,Win32,60.13229104,55987,,,,,,down,0,0.1484,,,0.416666667,-0.277777778,1,0,0,0,33,33,138,1,akkoord,images/br_akkoord.png,images/cb_akkoord.png,0,,,,,,,,,,,,,,,,,,,,,
,,,,,55987,2023-09-30_10h44.50.879,vbt_B2_day4,2022.2.4,Win32,60.13229104,55987,,,,,,down,0,0.3907,,,0.416666667,-0.277777778,1,0,0,0,34,34,43,1,klauw,images/br_klauw.png,images/cb_klauw.png,0,,,,,,,,,,,,,,,,,,,,,
,,,,,55987,2023-09-30_10h44.50.879,vbt_B2_day4,2022.2.4,Win32,60.13229104,55987,,,,,,down,0,0.2022,,,0.416666667,-0.277777778,1,0,0,0,35,35,124,1,bloeien,images/br_bloeien.png,images/cb_bloeien.png,0,,,,,,,,,,,,,,,,,,,,,
,,,,,55987,2023-09-30_10h44.50.879,vbt_B2_day4,2022.2.4,Win32,60.13229104,55987,,,,,,down,0,0.1032,,,0.416666667,-0.277777778,1,0,0,0,36,36,197,1,spanning,images/br_spanning.png,images/cb_spanning.png,0,,,,,,,,,,,,,,,,,,,,,
,,,,,55987,2023-09-30_10h44.50.879,vbt_B2_day4,2022.2.4,Win32,60.13229104,55987,,,,,,down,0,0.8859,,,0.416666667,-0.277777778,1,0,0,0,37,37,62,1,knaap,images/br_knaap.png,images/cb_knaap.png,0,,,,,,,,,,,,,,,,,,,,,
,,,,,55987,2023-09-30_10h44.50.879,vbt_B2_day4,2022.2.4,Win32,60.13229104,55987,,,,,,down,0,0.128,,,0.416666667,-0.277777778,1,0,0,0,38,38,126,1,kasteel,images/br_kasteel.png,images/cb_kasteel.png,0,,,,,,,,,,,,,,,,,,,,,
,,,,,55987,2023-09-30_10h44.50.879,vbt_B2_day4,2022.2.4,Win32,60.13229104,55987,,,,,,down,0,0.184,,,0.416666667,-0.277777778,1,0,0,0,39,39,45,1,piste,images/br_piste.png,images/cb_piste.png,0,,,,,,,,,,,,,,,,,,,,,
,,,,,55987,2023-09-30_10h44.50.879,vbt_B2_day4,2022.2.4,Win32,60.13229104,55987,,,,,,down,0,0.2922,,,0.416666667,-0.277777778,0,0,1,0,40,40,44,1,flits,images/br_flits.png,images/cb_flits.png,0,,,,,,,,,,,,,,,,,,,,,
,,,,,55987,2023-09-30_10h44.50.879,vbt_B2_day4,2022.2.4,Win32,60.13229104,55987,,,,,,down,0,0.5114,,,0.248148176,-0.350925954,1,0,0,0,41,41,180,1,openbaar,images/br_openbaar.png,images/cb_openbaar.png,0,,,,,,,,,,,,,,,,,,,,,
,,,,,55987,2023-09-30_10h44.50.879,vbt_B2_day4,2022.2.4,Win32,60.13229104,55987,,,,,,down,0,0.4908,,,0.248148176,-0.350925954,1,0,0,0,42,42,7,1,geld,images/br_geld.png,images/cb_geld.png,0,,,,,,,,,,,,,,,,,,,,,
,,,,,55987,2023-09-30_10h44.50.879,vbt_B2_day4,2022.2.4,Win32,60.13229104,55987,,,,,,down,0,0.4556,,,0.248148176,-0.350925954,1,0,0,0,43,43,49,1,laken,images/br_laken.png,images/cb_laken.png,0,,,,,,,,,,,,,,,,,,,,,
,,,,,55987,2023-09-30_10h44.50.879,vbt_B2_day4,2022.2.4,Win32,60.13229104,55987,,,,,,down,0,0.2307,,,0.248148176,-0.350925954,0,0,1,0,44,44,46,1,jagen,images/br_jagen.png,images/cb_jagen.png,0,,,,,,,,,,,,,,,,,,,,,
,,,,,55987,2023-09-30_10h44.50.879,vbt_B2_day4,2022.2.4,Win32,60.13229104,55987,,,,,,down,0,0.4273,,,0.240740797,-0.348148176,1,0,0,0,45,45,96,1,slagen,images/br_slagen.png,images/cb_slagen.png,0,,,,,,,,,,,,,,,,,,,,,
,,,,,55987,2023-09-30_10h44.50.879,vbt_B2_day4,2022.2.4,Win32,60.13229104,55987,,,,,,down,0,0.3005,,,0.240740797,-0.348148176,0,0,1,0,46,46,191,1,opheffen,images/br_opheffen.png,images/cb_opheffen.png,0,,,,,,,,,,,,,,,,,,,,,
,,,,,55987,2023-09-30_10h44.50.879,vbt_B2_day4,2022.2.4,Win32,60.13229104,55987,,,,,,down,0,0.2968,,,0.240740797,-0.348148176,1,0,0,0,47,47,118,1,vinger,images/br_vinger.png,images/cb_vinger.png,0,,,,,,,,,,,,,,,,,,,,,
,,,,,55987,2023-09-30_10h44.50.879,vbt_B2_day4,2022.2.4,Win32,60.13229104,55987,,,,,,down,0,0.5,,,0.240740797,-0.348148176,1,0,0,0,48,48,68,1,schat,images/br_schat.png,images/cb_schat.png,0,,,,,,,,,,,,,,,,,,,,,
,,,,,55987,2023-09-30_10h44.50.879,vbt_B2_day4,2022.2.4,Win32,60.13229104,55987,,,,,,down,0,1.4568,,,0.240740797,-0.348148176,1,0,0,0,49,49,190,1,goedkoop,images/br_goedkoop.png,images/cb_goedkoop.png,0,,,,,,,,,,,,,,,,,,,,,
,,,,,55987,2023-09-30_10h44.50.879,vbt_B2_day4,2022.2.4,Win32,60.13229104,55987,,,,,,down,0,0.5315,,,0.240740797,-0.348148176,0,0,1,0,50,50,32,1,palm,images/br_palm.png,images/cb_palm.png,0,,,,,,,,,,,,,,,,,,,,,
,,,,,55987,2023-09-30_10h44.50.879,vbt_B2_day4,2022.2.4,Win32,60.13229104,55987,,,,,,down,0,0.8989,,,0.240740797,-0.348148176,1,0,0,0,51,51,19,1,geit,images/br_geit.png,images/cb_geit.png,0,,,,,,,,,,,,,,,,,,,,,
,,,,,55987,2023-09-30_10h44.50.879,vbt_B2_day4,2022.2.4,Win32,60.13229104,55987,,,,,,down,0,0.488,,,0.240740797,-0.348148176,1,0,0,0,52,52,76,1,afval,images/br_afval.png,images/cb_afval.png,0,,,,,,,,,,,,,,,,,,,,,
,,,,,55987,2023-09-30_10h44.50.879,vbt_B2_day4,2022.2.4,Win32,60.13229104,55987,,,,,,down,0,0.0806,,,0.240740797,-0.348148176,1,0,0,0,53,53,188,1,strekken,images/br_strekken.png,images/cb_strekken.png,0,,,,,,,,,,,,,,,,,,,,,
,,,,,55987,2023-09-30_10h44.50.879,vbt_B2_day4,2022.2.4,Win32,60.13229104,55987,,,,,,down,0,0.0444,,,0.240740797,-0.348148176,1,0,0,0,54,54,183,1,getuigen,images/br_getuigen.png,images/cb_getuigen.png,0,,,,,,,,,,,,,,,,,,,,,
,,,,,55987,2023-09-30_10h44.50.879,vbt_B2_day4,2022.2.4,Win32,60.13229104,55987,,,,,,down,0,0.2015,,,0.240740797,-0.348148176,1,0,0,0,55,55,11,1,mode,images/br_mode.png,images/cb_mode.png,0,,,,,,,,,,,,,,,,,,,,,
,,,,,55987,2023-09-30_10h44.50.879,vbt_B2_day4,2022.2.4,Win32,60.13229104,55987,,,,,,down,0,0.3652,,,0.240740797,-0.348148176,1,0,0,0,56,56,139,1,stiekem,images/br_stiekem.png,images/cb_stiekem.png,0,,,,,,,,,,,,,,,,,,,,,
,,,,,55987,2023-09-30_10h44.50.879,vbt_B2_day4,2022.2.4,Win32,60.13229104,55987,,,,,,down,0,5.4487,voorraad,,0.240740797,-0.348148176,1,0,0,0,57,57,186,1,voorraad,images/br_voorraad.png,images/cb_voorraad.png,1,,,,,,,,,,,,,,,,,,,,,
,,,,,55987,2023-09-30_10h44.50.879,vbt_B2_day4,2022.2.4,Win32,60.13229104,55987,,,,,,down,0,0.5206,,,0.240740797,-0.348148176,1,0,0,0,58,58,78,1,leren,images/br_leren.png,images/cb_leren.png,0,,,,,,,,,,,,,,,,,,,,,
,,,,,55987,2023-09-30_10h44.50.879,vbt_B2_day4,2022.2.4,Win32,60.13229104,55987,,,,,,down,0,0.4298,,,0.240740797,-0.348148176,1,0,0,0,59,59,157,1,uitlaat,images/br_uitlaat.png,images/cb_uitlaat.png,0,,,,,,,,,,,,,,,,,,,,,
,,,,,55987,2023-09-30_10h44.50.879,vbt_B2_day4,2022.2.4,Win32,60.13229104,55987,,,,,,down,0,0.3243,,,0.240740797,-0.348148176,1,0,0,0,60,60,181,1,toegeven,images/br_toegeven.png,images/cb_toegeven.png,0,,,,,,,,,,,,,,,,,,,,,
,,,,,55987,2023-09-30_10h44.50.879,vbt_B2_day4,2022.2.4,Win32,60.13229104,55987,,,,,,down,0,0.284,,,0.240740797,-0.348148176,1,0,0,0,61,61,167,1,eenhoorn,images/br_eenhoorn.png,images/cb_eenhoorn.png,0,,,,,,,,,,,,,,,,,,,,,
,,,,,55987,2023-09-30_10h44.50.879,vbt_B2_day4,2022.2.4,Win32,60.13229104,55987,,,,,,down,0,0.5,,,0.240740797,-0.348148176,1,0,0,0,62,62,133,1,seizoen,images/br_seizoen.png,images/cb_seizoen.png,0,,,,,,,,,,,,,,,,,,,,,
,,,,,55987,2023-09-30_10h44.50.879,vbt_B2_day4,2022.2.4,Win32,60.13229104,55987,,,,,,down,0,0.0008,,,0.240740797,-0.348148176,1,0,0,0,63,63,152,1,afnemen,images/br_afnemen.png,images/cb_afnemen.png,0,,,,,,,,,,,,,,,,,,,,,
,,,,,55987,2023-09-30_10h44.50.879,vbt_B2_day4,2022.2.4,Win32,60.13229104,55987,,,,,,down,0,8.284,wijlen,,0.261111111,-0.400925954,1,0,0,0,64,64,105,1,wijlen,images/br_wijlen.png,images/cb_wijlen.png,1,,,,,,,,,,,,,,,,,,,,,
,,,,,55987,2023-09-30_10h44.50.879,vbt_B2_day4,2022.2.4,Win32,60.13229104,55987,,,,,,down,0,0.7572,,,0.261111111,-0.400925954,1,0,0,0,65,65,48,1,steel,images/br_steel.png,images/cb_steel.png,0,,,,,,,,,,,,,,,,,,,,,
,,,,,55987,2023-09-30_10h44.50.879,vbt_B2_day4,2022.2.4,Win32,60.13229104,55987,,,,,,down,0,0.0501,,,0.261111111,-0.400925954,1,0,0,0,66,66,4,1,moes,images/br_moes.png,images/cb_moes.png,0,,,,,,,,,,,,,,,,,,,,,
,,,,,55987,2023-09-30_10h44.50.879,vbt_B2_day4,2022.2.4,Win32,60.13229104,55987,,,,,,down,0,0.0111,,,0.261111111,-0.400925954,1,0,0,0,67,67,2,1,jaar,images/br_jaar.png,images/cb_jaar.png,0,,,,,,,,,,,,,,,,,,,,,
,,,,,55987,2023-09-30_10h44.50.879,vbt_B2_day4,2022.2.4,Win32,60.13229104,55987,,,,,,down,0,1.1448,,,0.261111111,-0.400925954,1,0,0,0,68,68,20,1,site,images/br_site.png,images/cb_site.png,0,,,,,,,,,,,,,,,,,,,,,
,,,,,55987,2023-09-30_10h44.50.879,vbt_B2_day4,2022.2.4,Win32,60.13229104,55987,,,,,,down,0,0.5729,,,0.261111111,-0.400925954,1,0,0,0,69,69,174,1,stemming,images/br_stemming.png,images/cb_stemming.png,0,,,,,,,,,,,,,,,,,,,,,
,,,,,55987,2023-09-30_10h44.50.879,vbt_B2_day4,2022.2.4,Win32,60.13229104,55987,,,,,,down,0,0.0925,,,0.261111111,-0.400925954,1,0,0,0,70,70,110,1,zuster,images/br_zuster.png,images/cb_zuster.png,0,,,,,,,,,,,,,,,,,,,,,
,,,,,55987,2023-09-30_10h44.50.879,vbt_B2_day4,2022.2.4,Win32,60.13229104,55987,,,,,,down,0,0.1862,,,0.261111111,-0.400925954,1,0,0,0,71,71,196,1,nakijken,images/br_nakijken.png,images/cb_nakijken.png,0,,,,,,,,,,,,,,,,,,,,,
,,,,,55987,2023-09-30_10h44.50.879,vbt_B2_day4,2022.2.4,Win32,60.13229104,55987,,,,,,down,0,0.3368,,,0.261111111,-0.400925954,1,0,0,0,72,72,88,1,boeien,images/br_boeien.png,images/cb_boeien.png,0,,,,,,,,,,,,,,,,,,,,,
,,,,,55987,2023-09-30_10h44.50.879,vbt_B2_day4,2022.2.4,Win32,60.13229104,55987,,,,,,down,0,0.233,,,0.261111111,-0.400925954,1,0,0,0,73,73,29,1,baas,images/br_baas.png,images/cb_baas.png,0,,,,,,,,,,,,,,,,,,,,,
,,,,,55987,2023-09-30_10h44.50.879,vbt_B2_day4,2022.2.4,Win32,60.13229104,55987,,,,,,down,0,0.2506,,,0.261111111,-0.400925954,1,0,0,0,74,74,58,1,tekst,images/br_tekst.png,images/cb_tekst.png,0,,,,,,,,,,,,,,,,,,,,,
,,,,,55987,2023-09-30_10h44.50.879,vbt_B2_day4,2022.2.4,Win32,60.13229104,55987,,,,,,down,0,2.2598,,,0.261111111,-0.400925954,1,0,0,0,75,75,50,1,stoom,images/br_stoom.png,images/cb_stoom.png,0,,,,,,,,,,,,,,,,,,,,,
,,,,,55987,2023-09-30_10h44.50.879,vbt_B2_day4,2022.2.4,Win32,60.13229104,55987,,,,,,down,0,0.1007,,,0.261111111,-0.400925954,1,0,0,0,76,76,94,1,oceaan,images/br_oceaan.png,images/cb_oceaan.png,0,,,,,,,,,,,,,,,,,,,,,
,,,,,55987,2023-09-30_10h44.50.879,vbt_B2_day4,2022.2.4,Win32,60.13229104,55987,,,,,,down,0,0.3812,,,0.261111111,-0.400925954,1,0,0,0,77,77,95,1,vreten,images/br_vreten.png,images/cb_vreten.png,0,,,,,,,,,,,,,,,,,,,,,
,,,,,55987,2023-09-30_10h44.50.879,vbt_B2_day4,2022.2.4,Win32,60.13229104,55987,,,,,,down,0,0.4743,,,0.261111111,-0.400925954,1,0,0,0,78,78,15,1,soda,images/br_soda.png,images/cb_soda.png,0,,,,,,,,,,,,,,,,,,,,,
,,,,,55987,2023-09-30_10h44.50.879,vbt_B2_day4,2022.2.4,Win32,60.13229104,55987,,,,,,down,0,0.0888,,,0.261111111,-0.400925954,1,0,0,0,79,79,165,1,feestdag,images/br_feestdag.png,images/cb_feestdag.png,0,,,,,,,,,,,,,,,,,,,,,
,,,,,55987,2023-09-30_10h44.50.879,vbt_B2_day4,2022.2.4,Win32,60.13229104,55987,,,,,,down,0,1.3916,,,0.261111111,-0.400925954,1,0,0,0,80,80,80,1,kanjer,images/br_kanjer.png,images/cb_kanjer.png,0,,,,,,,,,,,,,,,,,,,,,
,,,,,55987,2023-09-30_10h44.50.879,vbt_B2_day4,2022.2.4,Win32,60.13229104,55987,,,,,,down,0,0.1014,,,0.261111111,-0.400925954,1,0,0,0,81,81,119,1,liefje,images/br_liefje.png,images/cb_liefje.png,0,,,,,,,,,,,,,,,,,,,,,
,,,,,55987,2023-09-30_10h44.50.879,vbt_B2_day4,2022.2.4,Win32,60.13229104,55987,,,,,,down,0,0.0007,,,0.261111111,-0.400925954,0,0,1,0,82,82,99,1,koffie,images/br_koffie.png,images/cb_koffie.png,0,,,,,,,,,,,,,,,,,,,,,
,,,,,55987,2023-09-30_10h44.50.879,vbt_B2_day4,2022.2.4,Win32,60.13229104,55987,,,,,,down,0,0.5368,,,0.212963019,-0.395370399,1,0,0,0,83,83,130,1,keihard,images/br_keihard.png,images/cb_keihard.png,0,,,,,,,,,,,,,,,,,,,,,
,,,,,55987,2023-09-30_10h44.50.879,vbt_B2_day4,2022.2.4,Win32,60.13229104,55987,,,,,,down,0,0.7241,,,0.212963019,-0.395370399,1,0,0,0,84,84,70,1,ijdel,images/br_ijdel.png,images/cb_ijdel.png,0,,,,,,,,,,,,,,,,,,,,,
,,,,,55987,2023-09-30_10h44.50.879,vbt_B2_day4,2022.2.4,Win32,60.13229104,55987,,,,,,down,0,0.2826,,,0.212963019,-0.395370399,1,0,0,0,85,85,171,1,aarzelen,images/br_aarzelen.png,images/cb_aarzelen.png,0,,,,,,,,,,,,,,,,,,,,,
,,,,,55987,2023-09-30_10h44.50.879,vbt_B2_day4,2022.2.4,Win32,60.13229104,55987,,,,,,down,0,0.283,,,0.212963019,-0.395370399,1,0,0,0,86,86,164,1,anarchie,images/br_anarchie.png,images/cb_anarchie.png,0,,,,,,,,,,,,,,,,,,,,,
,,,,,55987,2023-09-30_10h44.50.879,vbt_B2_day4,2022.2.4,Win32,60.13229104,55987,,,,,,down,0,0.0555,,,0.212963019,-0.395370399,0,0,1,0,87,87,140,1,blijven,images/br_blijven.png,images/cb_blijven.png,0,,,,,,,,,,,,,,,,,,,,,
,,,,,55987,2023-09-30_10h44.50.879,vbt_B2_day4,2022.2.4,Win32,60.13229104,55987,,,,,,down,0,0.0439,,,0.212037065,-0.395370399,1,0,0,0,88,88,158,1,innemen,images/br_innemen.png,images/cb_innemen.png,0,,,,,,,,,,,,,,,,,,,,,
,,,,,55987,2023-09-30_10h44.50.879,vbt_B2_day4,2022.2.4,Win32,60.13229104,55987,,,,,,down,0,0.2076,,,0.212037065,-0.395370399,1,0,0,0,89,89,125,1,aanzien,images/br_aanzien.png,images/cb_aanzien.png,0,,,,,,,,,,,,,,,,,,,,,
,,,,,55987,2023-09-30_10h44.50.879,vbt_B2_day4,2022.2.4,Win32,60.13229104,55987,,,,,,down,0,0.1391,,,0.212037065,-0.395370399,1,0,0,0,90,90,103,1,joggen,images/br_joggen.png,images/cb_joggen.png,0,,,,,,,,,,,,,,,,,,,,,
,,,,,55987,2023-09-30_10h44.50.879,vbt_B2_day4,2022.2.4,Win32,60.13229104,55987,,,,,,down,0,0.5496,,,0.212037065,-0.395370399,1,0,0,0,91,91,3,1,mand,images/br_mand.png,images/cb_mand.png,0,,,,,,,,,,,,,,,,,,,,,
,,,,,55987,2023-09-30_10h44.50.879,vbt_B2_day4,2022.2.4,Win32,60.13229104,55987,,,,,,down,0,0.2993,,,0.212037065,-0.395370399,1,0,0,0,92,92,1,1,zaal,images/br_zaal.png,images/cb_zaal.png,0,,,,,,,,,,,,,,,,,,,,,
,,,,,55987,2023-09-30_10h44.50.879,vbt_B2_day4,2022.2.4,Win32,60.13229104,55987,,,,,,down,0,0.9343,,,0.212037065,-0.395370399,0,0,1,0,93,93,22,1,stof,images/br_stof.png,images/cb_stof.png,0,,,,,,,,,,,,,,,,,,,,,
,,,,,55987,2023-09-30_10h44.50.879,vbt_B2_day4,2022.2.4,Win32,60.13229104,55987,,,,,,down,0,0.4197,,,0.13148151,-0.375925954,1,0,0,0,94,94,86,1,woning,images/br_woning.png,images/cb_woning.png,0,,,,,,,,,,,,,,,,,,,,,
,,,,,55987,2023-09-30_10h44.50.879,vbt_B2_day4,2022.2.4,Win32,60.13229104,55987,,,,,,down,0,0.4533,,,0.129629686,-0.375925954,1,0,0,0,95,95,100,1,geduld,images/br_geduld.png,images/cb_geduld.png,0,,,,,,,,,,,,,,,,,,,,,
,,,,,55987,2023-09-30_10h44.50.879,vbt_B2_day4,2022.2.4,Win32,60.13229104,55987,,,,,,down,0,0.4749,,,0.129629686,-0.375925954,1,0,0,0,96,96,153,1,vervoer,images/br_vervoer.png,images/cb_vervoer.png,0,,,,,,,,,,,,,,,,,,,,,
,,,,,55987,2023-09-30_10h44.50.879,vbt_B2_day4,2022.2.4,Win32,60.13229104,55987,,,,,,down,0,1.6835,,,0.129629686,-0.375925954,1,0,0,0,97,97,81,1,dubbel,images/br_dubbel.png,images/cb_dubbel.png,0,,,,,,,,,,,,,,,,,,,,,
,,,,,55987,2023-09-30_10h44.50.879,vbt_B2_day4,2022.2.4,Win32,60.13229104,55987,,,,,,down,0,0.8999,,,0.129629686,-0.375925954,0,0,1,0,98,98,175,1,heengaan,images/br_heengaan.png,images/cb_heengaan.png,0,,,,,,,,,,,,,,,,,,,,,
,,,,,55987,2023-09-30_10h44.50.879,vbt_B2_day4,2022.2.4,Win32,60.13229104,55987,,,,,,down,0,9.0446,parel,,0.400925954,-0.241666667,1,0,0,0,99,99,65,1,parel,images/br_parel.png,images/cb_parel.png,1,,,,,,,,,,,,,,,,,,,,,
,,,,,55987,2023-09-30_10h44.50.879,vbt_B2_day4,2022.2.4,Win32,60.13229104,55987,,,,,,down,0,0.1131,,,0.400925954,-0.241666667,1,0,0,0,100,100,159,1,sufferd,images/br_sufferd.png,images/cb_sufferd.png,0,,,,,,,,,,,,,,,,,,,,,
,,,,,55987,2023-09-30_10h44.50.879,vbt_B2_day4,2022.2.4,Win32,60.13229104,55987,,,,,,down,0,0.3327,,,0.400925954,-0.241666667,1,0,0,0,101,101,149,1,redding,images/br_redding.png,images/cb_redding.png,0,,,,,,,,,,,,,,,,,,,,,
,,,,,55987,2023-09-30_10h44.50.879,vbt_B2_day4,2022.2.4,Win32,60.13229104,55987,,,,,,down,0,0.7676,,,0.400925954,-0.241666667,1,0,0,0,102,102,79,1,nodig,images/br_nodig.png,images/cb_nodig.png,0,,,,,,,,,,,,,,,,,,,,,
,,,,,55987,2023-09-30_10h44.50.879,vbt_B2_day4,2022.2.4,Win32,60.13229104,55987,,,,,,down,0,0.3189,,,0.400925954,-0.241666667,1,0,0,0,103,103,121,1,twijfel,images/br_twijfel.png,images/cb_twijfel.png,0,,,,,,,,,,,,,,,,,,,,,
,,,,,55987,2023-09-30_10h44.50.879,vbt_B2_day4,2022.2.4,Win32,60.13229104,55987,,,,,,down,0,0.1164,,,0.400925954,-0.241666667,0,0,1,0,104,104,113,1,koppen,images/br_koppen.png,images/cb_koppen.png,0,,,,,,,,,,,,,,,,,,,,,
,,,,,55987,2023-09-30_10h44.50.879,vbt_B2_day4,2022.2.4,Win32,60.13229104,55987,,,,,,down,0,0.7831,,,0.429629686,-0.089814843,0,0,1,0,105,105,89,1,slapen,images/br_slapen.png,images/cb_slapen.png,0,,,,,,,,,,,,,,,,,,,,,
,,,,,55987,2023-09-30_10h44.50.879,vbt_B2_day4,2022.2.4,Win32,60.13229104,55987,,,,,,down,0,0.2166,,,0.4,-0.05,1,0,0,0,106,106,173,1,apparaat,images/br_apparaat.png,images/cb_apparaat.png,0,,,,,,,,,,,,,,,,,,,,,
,,,,,55987,2023-09-30_10h44.50.879,vbt_B2_day4,2022.2.4,Win32,60.13229104,55987,,,,,,down,0,0.4172,,,0.4,-0.05,0,0,1,0,107,107,128,1,prikken,images/br_prikken.png,images/cb_prikken.png,0,,,,,,,,,,,,,,,,,,,,,
,,,,,55987,2023-09-30_10h44.50.879,vbt_B2_day4,2022.2.4,Win32,60.13229104,55987,,,,,,down,0,1.5843,plek,,-0.072222222,-0.283333333,1,0,0,0,108,108,25,1,plek,images/br_plek.png,images/cb_plek.png,1,,,,,,,,,,,,,,,,,,,,,
,,,,,55987,2023-09-30_10h44.50.879,vbt_B2_day4,2022.2.4,Win32,60.13229104,55987,,,,,,down,0,0.3104,,,0.542592706,-0.242592621,1,0,0,0,109,109,91,1,gezond,images/br_gezond.png,images/cb_gezond.png,0,,,,,,,,,,,,,,,,,,,,,
,,,,,55987,2023-09-30_10h44.50.879,vbt_B2_day4,2022.2.4,Win32,60.13229104,55987,,,,,,down,0,0.0499,,,0.542592706,-0.242592621,1,0,0,0,110,110,39,1,laag,images/br_laag.png,images/cb_laag.png,0,,,,,,,,,,,,,,,,,,,,,
,,,,,55987,2023-09-30_10h44.50.879,vbt_B2_day4,2022.2.4,Win32,60.13229104,55987,,,,,,down,0,0.1831,,,0.542592706,-0.242592621,0,0,1,0,111,111,6,1,diep,images/br_diep.png,images/cb_diep.png,0,,,,,,,,,,,,,,,,,,,,,
,,,,,55987,2023-09-30_10h44.50.879,vbt_B2_day4,2022.2.4,Win32,60.13229104,55987,,,,,,down,0,0.0339,,,0.442592621,-0.257407464,1,0,0,0,112,112,160,1,daarheen,images/br_daarheen.png,images/cb_daarheen.png,0,,,,,,,,,,,,,,,,,,,,,
,,,,,55987,2023-09-30_10h44.50.879,vbt_B2_day4,2022.2.4,Win32,60.13229104,55987,,,,,,down,0,0.3736,,,0.442592621,-0.257407464,1,0,0,0,113,113,154,1,aflopen,images/br_aflopen.png,images/cb_aflopen.png,0,,,,,,,,,,,,,,,,,,,,,
,,,,,55987,2023-09-30_10h44.50.879,vbt_B2_day4,2022.2.4,Win32,60.13229104,55987,,,,,,down,0,0.2004,,,0.442592621,-0.257407464,1,0,0,0,114,114,31,1,poes,images/br_poes.png,images/cb_poes.png,0,,,,,,,,,,,,,,,,,,,,,
,,,,,55987,2023-09-30_10h44.50.879,vbt_B2_day4,2022.2.4,Win32,60.13229104,55987,,,,,,down,0,0.4413,,,0.442592621,-0.257407464,1,0,0,0,115,115,61,1,groen,images/br_groen.png,images/cb_groen.png,0,,,,,,,,,,,,,,,,,,,,,
,,,,,55987,2023-09-30_10h44.50.879,vbt_B2_day4,2022.2.4,Win32,60.13229104,55987,,,,,,down,0,0.3022,,,0.442592621,-0.257407464,1,0,0,0,116,116,41,1,maken,images/br_maken.png,images/cb_maken.png,0,,,,,,,,,,,,,,,,,,,,,
,,,,,55987,2023-09-30_10h44.50.879,vbt_B2_day4,2022.2.4,Win32,60.13229104,55987,,,,,,down,0,3.7266,maling,,0.442592621,-0.257407464,1,0,0,0,117,117,107,1,maling,images/br_maling.png,images/cb_maling.png,1,,,,,,,,,,,,,,,,,,,,,
,,,,,55987,2023-09-30_10h44.50.879,vbt_B2_day4,2022.2.4,Win32,60.13229104,55987,,,,,,down,0,0.7251,,,0.442592621,-0.257407464,1,0,0,0,118,118,60,1,jasje,images/br_jasje.png,images/cb_jasje.png,0,,,,,,,,,,,,,,,,,,,,,
,,,,,55987,2023-09-30_10h44.50.879,vbt_B2_day4,2022.2.4,Win32,60.13229104,55987,,,,,,down,0,8.8177,komisch,,0.442592621,-0.257407464,1,0,0,0,119,119,147,1,komisch,images/br_komisch.png,images/cb_komisch.png,1,,,,,,,,,,,,,,,,,,,,,
,,,,,55987,2023-09-30_10h44.50.879,vbt_B2_day4,2022.2.4,Win32,60.13229104,55987,,,,,,down,0,0.7444,,,0.442592621,-0.257407464,1,0,0,0,120,120,192,1,schaamte,images/br_schaamte.png,images/cb_schaamte.png,0,,,,,,,,,,,,,,,,,,,,,
,,,,,55987,2023-09-30_10h44.50.879,vbt_B2_day4,2022.2.4,Win32,60.13229104,55987,,,,,,down,0,0.3677,,,0.442592621,-0.257407464,1,0,0,0,121,121,13,1,kaal,images/br_kaal.png,images/cb_kaal.png,0,,,,,,,,,,,,,,,,,,,,,
,,,,,55987,2023-09-30_10h44.50.879,vbt_B2_day4,2022.2.4,Win32,60.13229104,55987,,,,,,down,0,0.2376,,,0.442592621,-0.257407464,1,0,0,0,122,122,195,1,middelen,images/br_middelen.png,images/cb_middelen.png,0,,,,,,,,,,,,,,,,,,,,,
,,,,,55987,2023-09-30_10h44.50.879,vbt_B2_day4,2022.2.4,Win32,60.13229104,55987,,,,,,down,0,0.1472,,,0.442592621,-0.257407464,1,0,0,0,123,123,141,1,knielen,images/br_knielen.png,images/cb_knielen.png,0,,,,,,,,,,,,,,,,,,,,,
,,,,,55987,2023-09-30_10h44.50.879,vbt_B2_day4,2022.2.4,Win32,60.13229104,55987,,,,,,down,0,0.033,,,0.442592621,-0.257407464,1,0,0,0,124,124,194,1,driemaal,images/br_driemaal.png,images/cb_driemaal.png,0,,,,,,,,,,,,,,,,,,,,,
,,,,,55987,2023-09-30_10h44.50.879,vbt_B2_day4,2022.2.4,Win32,60.13229104,55987,,,,,,down,0,0.6144,,,0.442592621,-0.257407464,1,0,0,0,125,125,82,1,muziek,images/br_muziek.png,images/cb_muziek.png,0,,,,,,,,,,,,,,,,,,,,,
,,,,,55987,2023-09-30_10h44.50.879,vbt_B2_day4,2022.2.4,Win32,60.13229104,55987,,,,,,down,0,0.0944,,,0.442592621,-0.257407464,1,0,0,0,126,126,179,1,woestijn,images/br_woestijn.png,images/cb_woestijn.png,0,,,,,,,,,,,,,,,,,,,,,
,,,,,55987,2023-09-30_10h44.50.879,vbt_B2_day4,2022.2.4,Win32,60.13229104,55987,,,,,,down,0,1.6446,,,0.442592621,-0.257407464,1,0,0,0,127,127,75,1,snoep,images/br_snoep.png,images/cb_snoep.png,0,,,,,,,,,,,,,,,,,,,,,
,,,,,55987,2023-09-30_10h44.50.879,vbt_B2_day4,2022.2.4,Win32,60.13229104,55987,,,,,,down,0,0.2671,,,0.442592621,-0.257407464,0,0,1,0,128,128,131,1,opzicht,images/br_opzicht.png,images/cb_opzicht.png,0,,,,,,,,,,,,,,,,,,,,,
,,,,,55987,2023-09-30_10h44.50.879,vbt_B2_day4,2022.2.4,Win32,60.13229104,55987,,,,,,down,0,0.1653,,,0.427777778,-0.187962977,1,0,0,0,129,129,16,1,ziek,images/br_ziek.png,images/cb_ziek.png,0,,,,,,,,,,,,,,,,,,,,,
,,,,,55987,2023-09-30_10h44.50.879,vbt_B2_day4,2022.2.4,Win32,60.13229104,55987,,,,,,down,0,0.4011,,,0.427777778,-0.187962977,1,0,0,0,130,130,83,1,mening,images/br_mening.png,images/cb_mening.png,0,,,,,,,,,,,,,,,,,,,,,
,,,,,55987,2023-09-30_10h44.50.879,vbt_B2_day4,2022.2.4,Win32,60.13229104,55987,,,,,,down,0,0.3735,,,0.427777778,-0.187962977,1,0,0,0,131,131,177,1,maaltijd,images/br_maaltijd.png,images/cb_maaltijd.png,0,,,,,,,,,,,,,,,,,,,,,
,,,,,55987,2023-09-30_10h44.50.879,vbt_B2_day4,2022.2.4,Win32,60.13229104,55987,,,,,,down,0,0.2179,,,0.427777778,-0.187962977,1,0,0,0,132,132,53,1,baron,images/br_baron.png,images/cb_baron.png,0,,,,,,,,,,,,,,,,,,,,,
,,,,,55987,2023-09-30_10h44.50.879,vbt_B2_day4,2022.2.4,Win32,60.13229104,55987,,,,,,down,0,0.2889,,,0.427777778,-0.187962977,0,0,1,0,133,133,132,1,grappen,images/br_grappen.png,images/cb_grappen.png,0,,,,,,,,,,,,,,,,,,,,,
,,,,,55987,2023-09-30_10h44.50.879,vbt_B2_day4,2022.2.4,Win32,60.13229104,55987,,,,,,down,0,0.126,,,0.429629686,-0.123148176,1,0,0,0,134,134,12,1,kust,images/br_kust.png,images/cb_kust.png,0,,,,,,,,,,,,,,,,,,,,,
,,,,,55987,2023-09-30_10h44.50.879,vbt_B2_day4,2022.2.4,Win32,60.13229104,55987,,,,,,down,0,0.4341,,,0.429629686,-0.123148176,0,0,1,0,135,135,92,1,geheim,images/br_geheim.png,images/cb_geheim.png,0,,,,,,,,,,,,,,,,,,,,,
,,,,,55987,2023-09-30_10h44.50.879,vbt_B2_day4,2022.2.4,Win32,60.13229104,55987,,,,,,down,0,0.1269,,,0.440740797,-0.054629644,1,0,0,0,136,136,97,1,loyaal,images/br_loyaal.png,images/cb_loyaal.png,0,,,,,,,,,,,,,,,,,,,,,
,,,,,55987,2023-09-30_10h44.50.879,vbt_B2_day4,2022.2.4,Win32,60.13229104,55987,,,,,,down,0,0.6715,,,0.440740797,-0.054629644,0,0,1,0,137,137,166,1,strikken,images/br_strikken.png,images/cb_strikken.png,0,,,,,,,,,,,,,,,,,,,,,
,,,,,55987,2023-09-30_10h44.50.879,vbt_B2_day4,2022.2.4,Win32,60.13229104,55987,,,,,,down,0,0.0336,,,0.43148151,-0.284259288,0,0,1,0,138,138,87,1,toeval,images/br_toeval.png,images/cb_toeval.png,0,,,,,,,,,,,,,,,,,,,,,
,,,,,55987,2023-09-30_10h44.50.879,vbt_B2_day4,2022.2.4,Win32,60.13229104,55987,,,,,,down,0,0.1505,,,0.401851908,-0.117592621,1,0,0,0,139,139,14,1,rijp,images/br_rijp.png,images/cb_rijp.png,0,,,,,,,,,,,,,,,,,,,,,
,,,,,55987,2023-09-30_10h44.50.879,vbt_B2_day4,2022.2.4,Win32,60.13229104,55987,,,,,,down,0,1.3786,,,0.401851908,-0.117592621,1,0,0,0,140,140,36,1,vuur,images/br_vuur.png,images/cb_vuur.png,0,,,,,,,,,,,,,,,,,,,,,
,,,,,55987,2023-09-30_10h44.50.879,vbt_B2_day4,2022.2.4,Win32,60.13229104,55987,,,,,,down,0,2.1669,eetlust,,0.401851908,-0.117592621,1,0,0,0,141,141,144,1,eetlust,images/br_eetlust.png,images/cb_eetlust.png,1,,,,,,,,,,,,,,,,,,,,,
,,,,,55987,2023-09-30_10h44.50.879,vbt_B2_day4,2022.2.4,Win32,60.13229104,55987,,,,,,down,0,0.9458,,,0.401851908,-0.117592621,0,0,1,0,142,142,135,1,gedicht,images/br_gedicht.png,images/cb_gedicht.png,0,,,,,,,,,,,,,,,,,,,,,
,,,,,55987,2023-09-30_10h44.50.879,vbt_B2_day4,2022.2.4,Win32,60.13229104,55987,,,,,,down,0,1.3821,,,0.56203715,-0.243518575,1,0,0,0,143,143,136,1,waarbij,images/br_waarbij.png,images/cb_waarbij.png,0,,,,,,,,,,,,,,,,,,,,,
,,,,,55987,2023-09-30_10h44.50.879,vbt_B2_day4,2022.2.4,Win32,60.13229104,55987,,,,,,down,0,0.1644,,,0.56203715,-0.243518575,1,0,0,0,144,144,9,1,hier,images/br_hier.png,images/cb_hier.png,0,,,,,,,,,,,,,,,,,,,,,
,,,,,55987,2023-09-30_10h44.50.879,vbt_B2_day4,2022.2.4,Win32,60.13229104,55987,,,,,,down,0,0.4178,,,0.56203715,-0.243518575,0,0,1,0,145,145,52,1,wagon,images/br_wagon.png,images/cb_wagon.png,0,,,,,,,,,,,,,,,,,,,,,
,,,,,55987,2023-09-30_10h44.50.879,vbt_B2_day4,2022.2.4,Win32,60.13229104,55987,,,,,,down,0,2.3505,aandelen,,0.225925954,-0.280555556,1,0,0,0,146,146,184,1,aandelen,images/br_aandelen.png,images/cb_aandelen.png,1,,,,,,,,,,,,,,,,,,,,,
,,,,,55987,2023-09-30_10h44.50.879,vbt_B2_day4,2022.2.4,Win32,60.13229104,55987,,,,,,down,0,0.2331,,,0.528703732,-0.172222222,1,0,0,0,147,147,23,1,zout,images/br_zout.png,images/cb_zout.png,0,,,,,,,,,,,,,,,,,,,,,
,,,,,55987,2023-09-30_10h44.50.879,vbt_B2_day4,2022.2.4,Win32,60.13229104,55987,,,,,,down,0,0.1675,,,0.528703732,-0.172222222,1,0,0,0,148,148,56,1,traag,images/br_traag.png,images/cb_traag.png,0,,,,,,,,,,,,,,,,,,,,,
,,,,,55987,2023-09-30_10h44.50.879,vbt_B2_day4,2022.2.4,Win32,60.13229104,55987,,,,,,down,0,0.8774,dans,,0.528703732,-0.172222222,1,0,0,0,149,149,27,1,dans,images/br_dans.png,images/cb_dans.png,1,,,,,,,,,,,,,,,,,,,,,
,,,,,55987,2023-09-30_10h44.50.879,vbt_B2_day4,2022.2.4,Win32,60.13229104,55987,,,,,,down,0,0.2764,,,0.528703732,-0.172222222,0,0,1,0,150,150,59,1,kring,images/br_kring.png,images/cb_kring.png,0,,,,,,,,,,,,,,,,,,,,,
,,,,,55987,2023-09-30_10h44.50.879,vbt_B2_day4,2022.2.4,Win32,60.13229104,55987,,,,,,down,0,0.1692,,,0.476851908,-0.139814843,0,0,1,0,151,151,176,1,techniek,images/br_techniek.png,images/cb_techniek.png,0,,,,,,,,,,,,,,,,,,,,,
,,,,,55987,2023-09-30_10h44.50.879,vbt_B2_day4,2022.2.4,Win32,60.13229104,55987,,,,,,down,0,0.1349,,,0.476851908,-0.139814843,1,0,0,0,152,152,42,1,bleek,images/br_bleek.png,images/cb_bleek.png,0,,,,,,,,,,,,,,,,,,,,,
,,,,,55987,2023-09-30_10h44.50.879,vbt_B2_day4,2022.2.4,Win32,60.13229104,55987,,,,,,down,0,4.9755,,,0.476851908,-0.134259288,1,0,0,0,153,153,123,1,hiervan,images/br_hiervan.png,images/cb_hiervan.png,0,,,,,,,,,,,,,,,,,,,,,
,,,,,55987,2023-09-30_10h44.50.879,vbt_B2_day4,2022.2.4,Win32,60.13229104,55987,,,,,,down,0,0.0007,,,0.476851908,-0.134259288,1,0,0,0,154,154,115,1,kleren,images/br_kleren.png,images/cb_kleren.png,0,,,,,,,,,,,,,,,,,,,,,
,,,,,55987,2023-09-30_10h44.50.879,vbt_B2_day4,2022.2.4,Win32,60.13229104,55987,,,,,,down,0,0.0439,,,0.476851908,-0.134259288,1,0,0,0,155,155,37,1,mijn,images/br_mijn.png,images/cb_mijn.png,0,,,,,,,,,,,,,,,,,,,,,
,,,,,55987,2023-09-30_10h44.50.879,vbt_B2_day4,2022.2.4,Win32,60.13229104,55987,,,,,,down,0,1.3514,,,0.476851908,-0.134259288,1,0,0,0,156,156,55,1,praat,images/br_praat.png,images/cb_praat.png,0,,,,,,,,,,,,,,,,,,,,,
,,,,,55987,2023-09-30_10h44.50.879,vbt_B2_day4,2022.2.4,Win32,60.13229104,55987,,,,,,down,0,0.3219,,,0.476851908,-0.134259288,1,0,0,0,157,157,38,1,baai,images/br_baai.png,images/cb_baai.png,0,,,,,,,,,,,,,,,,,,,,,
,,,,,55987,2023-09-30_10h44.50.879,vbt_B2_day4,2022.2.4,Win32,60.13229104,55987,,,,,,down,0,0.0681,,,0.476851908,-0.134259288,1,0,0,0,158,158,8,1,knie,images/br_knie.png,images/cb_knie.png,0,,,,,,,,,,,,,,,,,,,,,
,,,,,55987,2023-09-30_10h44.50.879,vbt_B2_day4,2022.2.4,Win32,60.13229104,55987,,,,,,down,0,0.1503,,,0.476851908,-0.134259288,1,0,0,0,159,159,156,1,rechten,images/br_rechten.png,images/cb_rechten.png,0,,,,,,,,,,,,,,,,,,,,,
,,,,,55987,2023-09-30_10h44.50.879,vbt_B2_day4,2022.2.4,Win32,60.13229104,55987,,,,,,down,0,3.2507,lever,,0.476851908,-0.134259288,1,0,0,0,160,160,66,1,lever,images/br_lever.png,images/cb_lever.png,1,,,,,,,,,,,,,,,,,,,,,
,,,,,55987,2023-09-30_10h44.50.879,vbt_B2_day4,2022.2.4,Win32,60.13229104,55987,,,,,,down,0,0.9499,,,0.476851908,-0.134259288,1,0,0,0,161,161,69,1,waken,images/br_waken.png,images/cb_waken.png,0,,,,,,,,,,,,,,,,,,,,,
,,,,,55987,2023-09-30_10h44.50.879,vbt_B2_day4,2022.2.4,Win32,60.13229104,55987,,,,,,down,0,0.1176,,,0.476851908,-0.134259288,1,0,0,0,162,162,101,1,staren,images/br_staren.png,images/cb_staren.png,0,,,,,,,,,,,,,,,,,,,,,
,,,,,55987,2023-09-30_10h44.50.879,vbt_B2_day4,2022.2.4,Win32,60.13229104,55987,,,,,,down,0,0.6507,,,0.476851908,-0.134259288,1,0,0,0,163,163,34,1,vorm,images/br_vorm.png,images/cb_vorm.png,0,,,,,,,,,,,,,,,,,,,,,
,,,,,55987,2023-09-30_10h44.50.879,vbt_B2_day4,2022.2.4,Win32,60.13229104,55987,,,,,,down,0,0.4215,,,0.476851908,-0.134259288,1,0,0,0,164,164,17,1,taal,images/br_taal.png,images/cb_taal.png,0,,,,,,,,,,,,,,,,,,,,,
,,,,,55987,2023-09-30_10h44.50.879,vbt_B2_day4,2022.2.4,Win32,60.13229104,55987,,,,,,down,0,0.4612,,,0.476851908,-0.134259288,1,0,0,0,165,165,54,1,gebit,images/br_gebit.png,images/cb_gebit.png,0,,,,,,,,,,,,,,,,,,,,,
,,,,,55987,2023-09-30_10h44.50.879,vbt_B2_day4,2022.2.4,Win32,60.13229104,55987,,,,,,down,0,6.5669,mijnheer,,0.476851908,-0.134259288,1,0,0,0,166,166,185,1,mijnheer,images/br_mijnheer.png,images/cb_mijnheer.png,1,,,,,,,,,,,,,,,,,,,,,
,,,,,55987,2023-09-30_10h44.50.879,vbt_B2_day4,2022.2.4,Win32,60.13229104,55987,,,,,,down,0,1.2337,,,0.476851908,-0.134259288,1,0,0,0,167,167,85,1,heilig,images/br_heilig.png,images/cb_heilig.png,0,,,,,,,,,,,,,,,,,,,,,
,,,,,55987,2023-09-30_10h44.50.879,vbt_B2_day4,2022.2.4,Win32,60.13229104,55987,,,,,,down,0,0.2502,,,0.476851908,-0.134259288,0,0,1,0,168,168,73,1,volop,images/br_volop.png,images/cb_volop.png,0,,,,,,,,,,,,,,,,,,,,,
,,,,,55987,2023-09-30_10h44.50.879,vbt_B2_day4,2022.2.4,Win32,60.13229104,55987,,,,,,down,0,0.4002,,,0.444444444,-0.090740755,1,0,0,0,169,169,84,1,lokken,images/br_lokken.png,images/cb_lokken.png,0,,,,,,,,,,,,,,,,,,,,,
,,,,,55987,2023-09-30_10h44.50.879,vbt_B2_day4,2022.2.4,Win32,60.13229104,55987,,,,,,down,0,0.0008,,,0.444444444,-0.090740755,1,0,0,0,170,170,129,1,verhaal,images/br_verhaal.png,images/cb_verhaal.png,0,,,,,,,,,,,,,,,,,,,,,
,,,,,55987,2023-09-30_10h44.50.879,vbt_B2_day4,2022.2.4,Win32,60.13229104,55987,,,,,,down,0,0.0507,,,0.444444444,-0.090740755,1,0,0,0,171,171,168,1,bisschop,images/br_bisschop.png,images/cb_bisschop.png,0,,,,,,,,,,,,,,,,,,,,,
,,,,,55987,2023-09-30_10h44.50.879,vbt_B2_day4,2022.2.4,Win32,60.13229104,55987,,,,,,down,0,3.9339,zweven,,0.444444444,-0.090740755,1,0,0,0,172,172,104,1,zweven,images/br_zweven.png,images/cb_zweven.png,1,,,,,,,,,,,,,,,,,,,,,
,,,,,55987,2023-09-30_10h44.50.879,vbt_B2_day4,2022.2.4,Win32,60.13229104,55987,,,,,,down,0,0.0008,,,0.444444444,-0.090740755,1,0,0,0,173,173,169,1,oprotten,images/br_oprotten.png,images/cb_oprotten.png,0,,,,,,,,,,,,,,,,,,,,,
,,,,,55987,2023-09-30_10h44.50.879,vbt_B2_day4,2022.2.4,Win32,60.13229104,55987,,,,,,down,0,12.3338,opkijken,,0.444444444,-0.090740755,1,0,0,0,174,174,187,1,opkijken,images/br_opkijken.png,images/cb_opkijken.png,1,,,,,,,,,,,,,,,,,,,,,
,,,,,55987,2023-09-30_10h44.50.879,vbt_B2_day4,2022.2.4,Win32,60.13229104,55987,,,,,,down,0,0.5003,,,0.444444444,-0.090740755,1,0,0,0,175,175,151,1,aanzoek,images/br_aanzoek.png,images/cb_aanzoek.png,0,,,,,,,,,,,,,,,,,,,,,
,,,,,55987,2023-09-30_10h44.50.879,vbt_B2_day4,2022.2.4,Win32,60.13229104,55987,,,,,,down,0,0.4339,,,0.444444444,-0.090740755,1,0,0,0,176,176,116,1,besmet,images/br_besmet.png,images/cb_besmet.png,0,,,,,,,,,,,,,,,,,,,,,
,,,,,55987,2023-09-30_10h44.50.879,vbt_B2_day4,2022.2.4,Win32,60.13229104,55987,,,,,,down,0,0.1822,,,0.444444444,-0.090740755,1,0,0,0,177,177,35,1,lust,images/br_lust.png,images/cb_lust.png,0,,,,,,,,,,,,,,,,,,,,,
,,,,,55987,2023-09-30_10h44.50.879,vbt_B2_day4,2022.2.4,Win32,60.13229104,55987,,,,,,down,0,0.1836,,,0.440740797,-0.091666667,1,0,0,0,178,178,114,1,vullen,images/br_vullen.png,images/cb_vullen.png,0,,,,,,,,,,,,,,,,,,,,,
,,,,,55987,2023-09-30_10h44.50.879,vbt_B2_day4,2022.2.4,Win32,60.13229104,55987,,,,,,down,0,0.3006,,,0.440740797,-0.091666667,1,0,0,0,179,179,18,1,blik,images/br_blik.png,images/cb_blik.png,0,,,,,,,,,,,,,,,,,,,,,
,,,,,55987,2023-09-30_10h44.50.879,vbt_B2_day4,2022.2.4,Win32,60.13229104,55987,,,,,,down,0,0.0835,,,0.440740797,-0.091666667,1,0,0,0,180,180,33,1,vlek,images/br_vlek.png,images/cb_vlek.png,0,,,,,,,,,,,,,,,,,,,,,
,,,,,55987,2023-09-30_10h44.50.879,vbt_B2_day4,2022.2.4,Win32,60.13229104,55987,,,,,,down,0,0.3249,,,0.440740797,-0.091666667,1,0,0,0,181,181,47,1,kabel,images/br_kabel.png,images/cb_kabel.png,0,,,,,,,,,,,,,,,,,,,,,
,,,,,55987,2023-09-30_10h44.50.879,vbt_B2_day4,2022.2.4,Win32,60.13229104,55987,,,,,,down,0,0.1669,,,0.440740797,-0.091666667,1,0,0,0,182,182,51,1,samen,images/br_samen.png,images/cb_samen.png,0,,,,,,,,,,,,,,,,,,,,,
,,,,,55987,2023-09-30_10h44.50.879,vbt_B2_day4,2022.2.4,Win32,60.13229104,55987,,,,,,down,0,0.494,,,0.440740797,-0.091666667,1,0,0,0,183,183,28,1,stal,images/br_stal.png,images/cb_stal.png,0,,,,,,,,,,,,,,,,,,,,,
,,,,,55987,2023-09-30_10h44.50.879,vbt_B2_day4,2022.2.4,Win32,60.13229104,55987,,,,,,down,0,0.2836,,,0.440740797,-0.091666667,1,0,0,0,184,184,63,1,flirt,images/br_flirt.png,images/cb_flirt.png,0,,,,,,,,,,,,,,,,,,,,,
,,,,,55987,2023-09-30_10h44.50.879,vbt_B2_day4,2022.2.4,Win32,60.13229104,55987,,,,,,down,0,8.7014,opkomen,,0.440740797,-0.091666667,1,0,0,0,185,185,146,1,opkomen,images/br_opkomen.png,images/cb_opkomen.png,1,,,,,,,,,,,,,,,,,,,,,
,,,,,55987,2023-09-30_10h44.50.879,vbt_B2_day4,2022.2.4,Win32,60.13229104,55987,,,,,,down,0,0.668,,,0.440740797,-0.091666667,1,0,0,0,186,186,161,1,attentie,images/br_attentie.png,images/cb_attentie.png,0,,,,,,,,,,,,,,,,,,,,,
,,,,,55987,2023-09-30_10h44.50.879,vbt_B2_day4,2022.2.4,Win32,60.13229104,55987,,,,,,down,0,0.2497,,,0.440740797,-0.091666667,1,0,0,0,187,187,93,1,waarop,images/br_waarop.png,images/cb_waarop.png,0,,,,,,,,,,,,,,,,,,,,,
,,,,,55987,2023-09-30_10h44.50.879,vbt_B2_day4,2022.2.4,Win32,60.13229104,55987,,,,,,down,0,0.1658,,,0.440740797,-0.091666667,1,0,0,0,188,188,178,1,huisdier,images/br_huisdier.png,images/cb_huisdier.png,0,,,,,,,,,,,,,,,,,,,,,
,,,,,55987,2023-09-30_10h44.50.879,vbt_B2_day4,2022.2.4,Win32,60.13229104,55987,,,,,,down,0,0.3005,,,0.440740797,-0.091666667,1,0,0,0,189,189,199,1,beseffen,images/br_beseffen.png,images/cb_beseffen.png,0,,,,,,,,,,,,,,,,,,,,,
,,,,,55987,2023-09-30_10h44.50.879,vbt_B2_day4,2022.2.4,Win32,60.13229104,55987,,,,,,down,0,0.4625,,,0.440740797,-0.091666667,1,0,0,0,190,190,108,1,excuus,images/br_excuus.png,images/cb_excuus.png,0,,,,,,,,,,,,,,,,,,,,,
,,,,,55987,2023-09-30_10h44.50.879,vbt_B2_day4,2022.2.4,Win32,60.13229104,55987,,,,,,down,0,0.3438,,,0.440740797,-0.091666667,1,0,0,0,191,191,163,1,schuilen,images/br_schuilen.png,images/cb_schuilen.png,0,,,,,,,,,,,,,,,,,,,,,
,,,,,55987,2023-09-30_10h44.50.879,vbt_B2_day4,2022.2.4,Win32,60.13229104,55987,,,,,,down,0,0.3171,,,0.440740797,-0.091666667,1,0,0,0,192,192,72,1,strak,images/br_strak.png,images/cb_strak.png,0,,,,,,,,,,,,,,,,,,,,,
,,,,,55987,2023-09-30_10h44.50.879,vbt_B2_day4,2022.2.4,Win32,60.13229104,55987,,,,,,down,0,0.2832,,,0.440740797,-0.091666667,1,0,0,0,193,193,30,1,uien,images/br_uien.png,images/cb_uien.png,0,,,,,,,,,,,,,,,,,,,,,
,,,,,55987,2023-09-30_10h44.50.879,vbt_B2_day4,2022.2.4,Win32,60.13229104,55987,,,,,,down,0,0.7602,,,0.440740797,-0.091666667,1,0,0,0,194,194,90,1,geluid,images/br_geluid.png,images/cb_geluid.png,0,,,,,,,,,,,,,,,,,,,,,
,,,,,55987,2023-09-30_10h44.50.879,vbt_B2_day4,2022.2.4,Win32,60.13229104,55987,,,,,,down,0,0.0006,,,0.440740797,-0.091666667,1,0,0,0,195,195,40,1,schep,images/br_schep.png,images/cb_schep.png,0,,,,,,,,,,,,,,,,,,,,,
,,,,,55987,2023-09-30_10h44.50.879,vbt_B2_day4,2022.2.4,Win32,60.13229104,55987,,,,,,down,0,0.5183,,,0.440740797,-0.091666667,1,0,0,0,196,196,122,1,waarvan,images/br_waarvan.png,images/cb_waarvan.png,0,,,,,,,,,,,,,,,,,,,,,
,,,,,55987,2023-09-30_10h44.50.879,vbt_B2_day4,2022.2.4,Win32,60.13229104,55987,,,,,,down,0,3.8685,zwart,,0.440740797,-0.091666667,1,0,0,0,197,197,67,1,zwart,images/br_zwart.png,images/cb_zwart.png,1,,,,,,,,,,,,,,,,,,,,,
,,,,,55987,2023-09-30_10h44.50.879,vbt_B2_day4,2022.2.4,Win32,60.13229104,55987,,,,,,down,0,0.3667,,,0.440740797,-0.091666667,1,0,0,0,198,198,137,1,trekker,images/br_trekker.png,images/cb_trekker.png,0,,,,,,,,,,,,,,,,,,,,,
,,,,,55987,2023-09-30_10h44.50.879,vbt_B2_day4,2022.2.4,Win32,60.13229104,55987,,,,,,down,0,1.2394,leuk,,0.440740797,-0.091666667,1,0,0,0,199,199,26,1,leuk,images/br_leuk.png,images/cb_leuk.png,1,,,,,,,,,,,,,,,,,,,,,
,,,,,55987,2023-09-30_10h44.50.879,vbt_B2_day4,2022.2.4,Win32,60.13229104,55987,,,,,,,,,,,,,,,,,,,,,,,,,0.440740797,-0.091666667,1,0,0,,,,,,,,,,,,,,,,
,,,,,55987,2023-09-30_10h44.50.879,vbt_B2_day4,2022.2.4,Win32,60.13229104,55987,,,,,,,,,,,,,,,,,,,,,,,,,,,,,,0.325,-0.116666667,1,0,0,,,,,,,,,,,
,,,,,55987,2023-09-30_10h44.50.879,vbt_B2_day4,2022.2.4,Win32,60.13229104,55987,,,,,,,,,weigeren,,,,,,,,,,,,weigeren,images/br_weigeren.png,images/cb_weigeren.png,,,,,,,,,,,,0.325,-0.116666667,1,0,0,weigeren,0,0,0,16,1
,,,,,55987,2023-09-30_10h44.50.879,vbt_B2_day4,2022.2.4,Win32,60.13229104,55987,,,,,,,,,noodzaak,,,,,,,,,,,,noodzaak,images/br_noodzaak.png,images/cb_noodzaak.png,,,,,,,,,,,,0.329629686,-0.127777778,1,0,0,noodzaak,0,1,1,56,1
,,,,,55987,2023-09-30_10h44.50.879,vbt_B2_day4,2022.2.4,Win32,60.13229104,55987,,,,,,,,,rijp,,,,,,,,,,,,rijp,images/br_rijp.png,images/cb_rijp.png,,,,,,,,,,,,0.329629686,-0.127777778,1,0,0,rijp,0,2,2,2,1
,,,,,55987,2023-09-30_10h44.50.879,vbt_B2_day4,2022.2.4,Win32,60.13229104,55987,,,,,,,,,strok,,,,,,,,,,,,strok,images/br_strok.png,images/cb_strok.png,,,,,,,,,,,,0.329629686,-0.127777778,1,0,0,strok,0,3,3,25,1
,,,,,55987,2023-09-30_10h44.50.879,vbt_B2_day4,2022.2.4,Win32,60.13229104,55987,,,,,,,,,soda,,,,,,,,,,,,soda,images/br_soda.png,images/cb_soda.png,,,,,,,,,,,,0.329629686,-0.127777778,1,0,0,soda,0,4,4,3,1
,,,,,55987,2023-09-30_10h44.50.879,vbt_B2_day4,2022.2.4,Win32,60.13229104,55987,,,,,,,,,oceaan,,,,,,,,,,,,oceaan,images/br_oceaan.png,images/cb_oceaan.png,,,,,,,,,,,,0.329629686,-0.127777778,1,0,0,oceaan,0,5,5,10,1
,,,,,55987,2023-09-30_10h44.50.879,vbt_B2_day4,2022.2.4,Win32,60.13229104,55987,,,,,,,,,heengaan,,,,,,,,,,,,heengaan,images/br_heengaan.png,images/cb_heengaan.png,,,,,,,,,,,,0.329629686,-0.127777778,1,0,0,heengaan,0,6,6,19,1
,,,,,55987,2023-09-30_10h44.50.879,vbt_B2_day4,2022.2.4,Win32,60.13229104,55987,,,,,,,,,sche.....,,,,,,,,,,,,schenden,images/br_schenden.png,images/cb_schenden.png,,,,,,,,,,,,0.329629686,-0.127777778,1,0,0,sche.....,0,7,7,57,1
,,,,,55987,2023-09-30_10h44.50.879,vbt_B2_day4,2022.2.4,Win32,60.13229104,55987,,,,,,,,,gaaf,,,,,,,,,,,,gaaf,images/br_gaaf.png,images/cb_gaaf.png,,,,,,,,,,,,0.329629686,-0.127777778,1,0,0,gaaf,0,8,8,43,1
,,,,,55987,2023-09-30_10h44.50.879,vbt_B2_day4,2022.2.4,Win32,60.13229104,55987,,,,,,,,,drooie.,,,,,,,,,,,,drooien,images/br_drooien.png,images/cb_drooien.png,,,,,,,,,,,,0.329629686,-0.127777778,1,0,0,drooie.,0,9,9,32,1
,,,,,55987,2023-09-30_10h44.50.879,vbt_B2_day4,2022.2.4,Win32,60.13229104,55987,,,,,,,,,kurt,,,,,,,,,,,,kust,images/br_kust.png,images/cb_kust.png,,,,,,,,,,,,0.329629686,-0.127777778,1,0,0,kurt,0,10,10,0,1
,,,,,55987,2023-09-30_10h44.50.879,vbt_B2_day4,2022.2.4,Win32,60.13229104,55987,,,,,,,,,praat,,,,,,,,,,,,praat,images/br_praat.png,images/cb_praat.png,,,,,,,,,,,,0.329629686,-0.127777778,1,0,0,praat,0,11,11,7,1
,,,,,55987,2023-09-30_10h44.50.879,vbt_B2_day4,2022.2.4,Win32,60.13229104,55987,,,,,,,,,pijnli..,,,,,,,,,,,,pijnlijk,images/br_pijnlijk.png,images/cb_pijnlijk.png,,,,,,,,,,,,0.329629686,-0.127777778,1,0,0,pijnli..,0,12,12,58,1
,,,,,55987,2023-09-30_10h44.50.879,vbt_B2_day4,2022.2.4,Win32,60.13229104,55987,,,,,,,,,seizoon,,,,,,,,,,,,seizoon,images/br_seizoon.png,images/cb_seizoon.png,,,,,,,,,,,,0.329629686,-0.127777778,1,0,0,seizoon,0,13,13,33,1
,,,,,55987,2023-09-30_10h44.50.879,vbt_B2_day4,2022.2.4,Win32,60.13229104,55987,,,,,,,,,midden,,,,,,,,,,,,midden,images/br_midden.png,images/cb_midden.png,,,,,,,,,,,,0.329629686,-0.127777778,1,0,0,midden,0,14,14,50,1
,,,,,55987,2023-09-30_10h44.50.879,vbt_B2_day4,2022.2.4,Win32,60.13229104,55987,,,,,,,,,kaal,,,,,,,,,,,,kaal,images/br_kaal.png,images/cb_kaal.png,,,,,,,,,,,,0.329629686,-0.127777778,1,0,0,kaal,0,15,15,1,1
,,,,,55987,2023-09-30_10h44.50.879,vbt_B2_day4,2022.2.4,Win32,60.13229104,55987,,,,,,,,,sulbon,,,,,,,,,,,,sulbon,images/br_sulbon.png,images/cb_sulbon.png,,,,,,,,,,,,0.329629686,-0.127777778,1,0,0,sulbon,0,16,16,31,1
,,,,,55987,2023-09-30_10h44.50.879,vbt_B2_day4,2022.2.4,Win32,60.13229104,55987,,,,,,,,,grappen,,,,,,,,,,,,grappen,images/br_grappen.png,images/cb_grappen.png,,,,,,,,,,,,0.329629686,-0.127777778,1,0,0,grappen,0,17,17,12,1
,,,,,55987,2023-09-30_10h44.50.879,vbt_B2_day4,2022.2.4,Win32,60.13229104,55987,,,,,,,,,aanzaag,,,,,,,,,,,,aanzwaag,images/br_aanzwaag.png,images/cb_aanzwaag.png,,,,,,,,,,,,0.329629686,-0.127777778,1,0,0,aanzaag,0,18,18,38,1
,,,,,55987,2023-09-30_10h44.50.879,vbt_B2_day4,2022.2.4,Win32,60.13229104,55987,,,,,,,,,opruimen,,,,,,,,,,,,opruimen,images/br_opruimen.png,images/cb_opruimen.png,,,,,,,,,,,,0.329629686,-0.127777778,1,0,0,opruimen,0,19,19,59,1
,,,,,55987,2023-09-30_10h44.50.879,vbt_B2_day4,2022.2.4,Win32,60.13229104,55987,,,,,,,,,beschu..,,,,,,,,,,,,bisschap,images/br_bisschap.png,images/cb_bisschap.png,,,,,,,,,,,,0.329629686,-0.127777778,1,0,0,beschu..,0,20,20,36,1
,,,,,55987,2023-09-30_10h44.50.879,vbt_B2_day4,2022.2.4,Win32,60.13229104,55987,,,,,,,,,vreten,,,,,,,,,,,,vreten,images/br_vreten.png,images/cb_vreten.png,,,,,,,,,,,,0.329629686,-0.127777778,1,0,0,vreten,0,21,21,11,1
,,,,,55987,2023-09-30_10h44.50.879,vbt_B2_day4,2022.2.4,Win32,60.13229104,55987,,,,,,,,,dalen,,,,,,,,,,,,dalen,images/br_dalen.png,images/cb_dalen.png,,,,,,,,,,,,0.329629686,-0.127777778,1,0,0,dalen,0,22,22,46,1
,,,,,55987,2023-09-30_10h44.50.879,vbt_B2_day4,2022.2.4,Win32,60.13229104,55987,,,,,,,,,bruin,,,,,,,,,,,,bruin,images/br_bruin.png,images/cb_bruin.png,,,,,,,,,,,,0.329629686,-0.127777778,1,0,0,bruin,0,23,23,45,1
,,,,,55987,2023-09-30_10h44.50.879,vbt_B2_day4,2022.2.4,Win32,60.13229104,55987,,,,,,,,,pittig,,,,,,,,,,,,pittig,images/br_pittig.png,images/cb_pittig.png,,,,,,,,,,,,0.025925954,-0.242592621,1,0,0,pittig,0,24,24,51,1
,,,,,55987,2023-09-30_10h44.50.879,vbt_B2_day4,2022.2.4,Win32,60.13229104,55987,,,,,,,,,eerst,,,,,,,,,,,,eerst,images/br_eerst.png,images/cb_eerst.png,,,,,,,,,,,,0.360185242,-0.065740755,1,0,0,eerst,0,25,25,47,1
,,,,,55987,2023-09-30_10h44.50.879,vbt_B2_day4,2022.2.4,Win32,60.13229104,55987,,,,,,,,,dozijn,,,,,,,,,,,,dozijn,images/br_dozijn.png,images/cb_dozijn.png,,,,,,,,,,,,0.360185242,-0.065740755,1,0,0,dozijn,0,26,26,48,1
,,,,,55987,2023-09-30_10h44.50.879,vbt_B2_day4,2022.2.4,Win32,60.13229104,55987,,,,,,,,,warel,,,,,,,,,,,,warel,images/br_warel.png,images/cb_warel.png,,,,,,,,,,,,0.360185242,-0.065740755,1,0,0,warel,0,27,27,26,1
,,,,,55987,2023-09-30_10h44.50.879,vbt_B2_day4,2022.2.4,Win32,60.13229104,55987,,,,,,,,,flippen,,,,,,,,,,,,flippen,images/br_flippen.png,images/cb_flippen.png,,,,,,,,,,,,0.360185242,-0.065740755,1,0,0,flippen,0,28,28,54,1
,,,,,55987,2023-09-30_10h44.50.879,vbt_B2_day4,2022.2.4,Win32,60.13229104,55987,,,,,,,,,geheim,,,,,,,,,,,,geheim,images/br_geheim.png,images/cb_geheim.png,,,,,,,,,,,,0.360185242,-0.065740755,1,0,0,geheim,0,29,29,8,1
,,,,,55987,2023-09-30_10h44.50.879,vbt_B2_day4,2022.2.4,Win32,60.13229104,55987,,,,,,,,,toevol,,,,,,,,,,,,toevol,images/br_toevol.png,images/cb_toevol.png,,,,,,,,,,,,0.360185242,-0.065740755,1,0,0,toevol,0,30,30,29,1
,,,,,55987,2023-09-30_10h44.50.879,vbt_B2_day4,2022.2.4,Win32,60.13229104,55987,,,,,,,,,getocht,,,,,,,,,,,,getucht,images/br_getucht.png,images/cb_getucht.png,,,,,,,,,,,,0.360185242,-0.065740755,1,0,0,getocht,0,31,31,35,1
,,,,,55987,2023-09-30_10h44.50.879,vbt_B2_day4,2022.2.4,Win32,60.13229104,55987,,,,,,,,,waaro.,,,,,,,,,,,,waarop,images/br_waarop.png,images/cb_waarop.png,,,,,,,,,,,,0.360185242,-0.065740755,1,0,0,waaro.,0,32,32,9,1
,,,,,55987,2023-09-30_10h44.50.879,vbt_B2_day4,2022.2.4,Win32,60.13229104,55987,,,,,,,,,gedicht,,,,,,,,,,,,gedicht,images/br_gedicht.png,images/cb_gedicht.png,,,,,,,,,,,,0.360185242,-0.065740755,1,0,0,gedicht,0,33,33,15,1
,,,,,55987,2023-09-30_10h44.50.879,vbt_B2_day4,2022.2.4,Win32,60.13229104,55987,,,,,,,,,stemming,,,,,,,,,,,,stemming,images/br_stemming.png,images/cb_stemming.png,,,,,,,,,,,,0.360185242,-0.065740755,1,0,0,stemming,0,34,34,18,1
,,,,,55987,2023-09-30_10h44.50.879,vbt_B2_day4,2022.2.4,Win32,60.13229104,55987,,,,,,,,,suck..,,,,,,,,,,,,tucket,images/br_tucket.png,images/cb_tucket.png,,,,,,,,,,,,0.360185242,-0.065740755,1,0,0,suck..,0,35,35,30,1
,,,,,55987,2023-09-30_10h44.50.879,vbt_B2_day4,2022.2.4,Win32,60.13229104,55987,,,,,,,,,steen,,,,,,,,,,,,steen,images/br_steen.png,images/cb_steen.png,,,,,,,,,,,,0.360185242,-0.065740755,1,0,0,steen,0,36,36,44,1
,,,,,55987,2023-09-30_10h44.50.879,vbt_B2_day4,2022.2.4,Win32,60.13229104,55987,,,,,,,,,ezel,,,,,,,,,,,,ezel,images/br_ezel.png,images/cb_ezel.png,,,,,,,,,,,,0.360185242,-0.065740755,1,0,0,ezel,0,37,37,42,1
,,,,,55987,2023-09-30_10h44.50.879,vbt_B2_day4,2022.2.4,Win32,60.13229104,55987,,,,,,,,,zaalred.,,,,,,,,,,,,zaalrijk,images/br_zaalrijk.png,images/cb_zaalrijk.png,,,,,,,,,,,,0.360185242,-0.065740755,1,0,0,zaalred.,0,38,38,37,1
,,,,,55987,2023-09-30_10h44.50.879,vbt_B2_day4,2022.2.4,Win32,60.13229104,55987,,,,,,,,,zwek,,,,,,,,,,,,zwek,images/br_zwek.png,images/cb_zwek.png,,,,,,,,,,,,0.325925954,0.009259245,1,0,0,zwek,0,39,39,20,1
,,,,,55987,2023-09-30_10h44.50.879,vbt_B2_day4,2022.2.4,Win32,60.13229104,55987,,,,,,,,,opkicht,,,,,,,,,,,,opkicht,images/br_opkicht.png,images/cb_opkicht.png,,,,,,,,,,,,0.325925954,0.009259245,1,0,0,opkicht,0,40,40,34,1
,,,,,55987,2023-09-30_10h44.50.879,vbt_B2_day4,2022.2.4,Win32,60.13229104,55987,,,,,,,,,wag...,,,,,,,,,,,,wagon,images/br_wagon.png,images/cb_wagon.png,,,,,,,,,,,,0.325925954,0.009259245,1,0,0,wag...,0,41,41,4,1
,,,,,55987,2023-09-30_10h44.50.879,vbt_B2_day4,2022.2.4,Win32,60.13229104,55987,,,,,,,,,gaan,,,,,,,,,,,,gaan,images/br_gaan.png,images/cb_gaan.png,,,,,,,,,,,,0.325925954,0.009259245,1,0,0,gaan,0,42,42,41,1
,,,,,55987,2023-09-30_10h44.50.879,vbt_B2_day4,2022.2.4,Win32,60.13229104,55987,,,,,,,,,drummer,,,,,,,,,,,,drummer,images/br_drummer.png,images/cb_drummer.png,,,,,,,,,,,,0.378703732,-0.236111111,1,0,0,drummer,0,43,43,53,1
,,,,,55987,2023-09-30_10h44.50.879,vbt_B2_day4,2022.2.4,Win32,60.13229104,55987,,,,,,,,,haza,,,,,,,,,,,,haza,images/br_haza.png,images/cb_haza.png,,,,,,,,,,,,0.378703732,-0.236111111,1,0,0,haza,0,44,44,21,1
,,,,,55987,2023-09-30_10h44.50.879,vbt_B2_day4,2022.2.4,Win32,60.13229104,55987,,,,,,,,,snee,,,,,,,,,,,,snee,images/br_snee.png,images/cb_snee.png,,,,,,,,,,,,0.378703732,-0.236111111,1,0,0,snee,0,45,45,40,1
,,,,,55987,2023-09-30_10h44.50.879,vbt_B2_day4,2022.2.4,Win32,60.13229104,55987,,,,,,,,,fran,,,,,,,,,,,,fran,images/br_fran.png,images/cb_fran.png,,,,,,,,,,,,0.378703732,-0.236111111,1,0,0,fran,0,46,46,22,1
,,,,,55987,2023-09-30_10h44.50.879,vbt_B2_day4,2022.2.4,Win32,60.13229104,55987,,,,,,,,,gebit,,,,,,,,,,,,gebit,images/br_gebit.png,images/cb_gebit.png,,,,,,,,,,,,0.378703732,-0.236111111,1,0,0,gebit,0,47,47,6,1
,,,,,55987,2023-09-30_10h44.50.879,vbt_B2_day4,2022.2.4,Win32,60.13229104,55987,,,,,,,,,paalb...,,,,,,,,,,,,paalbaak,images/br_paalbaak.png,images/cb_paalbaak.png,,,,,,,,,,,,0.378703732,-0.236111111,1,0,0,paalb...,0,48,48,39,1
,,,,,55987,2023-09-30_10h44.50.879,vbt_B2_day4,2022.2.4,Win32,60.13229104,55987,,,,,,,,,seizoen,,,,,,,,,,,,seizoen,images/br_seizoen.png,images/cb_seizoen.png,,,,,,,,,,,,0.378703732,-0.236111111,1,0,0,seizoen,0,49,49,13,1
,,,,,55987,2023-09-30_10h44.50.879,vbt_B2_day4,2022.2.4,Win32,60.13229104,55987,,,,,,,,,gebog,,,,,,,,,,,,gebog,images/br_gebog.png,images/cb_gebog.png,,,,,,,,,,,,0.378703732,-0.236111111,1,0,0,gebog,0,50,50,24,1
,,,,,55987,2023-09-30_10h44.50.879,vbt_B2_day4,2022.2.4,Win32,60.13229104,55987,,,,,,,,,schotel,,,,,,,,,,,,schotel,images/br_schotel.png,images/cb_schotel.png,,,,,,,,,,,,0.378703732,-0.236111111,1,0,0,schotel,0,51,51,52,1
,,,,,55987,2023-09-30_10h44.50.879,vbt_B2_day4,2022.2.4,Win32,60.13229104,55987,,,,,,,,,geif,,,,,,,,,,,,gijf,images/br_gijf.png,images/cb_gijf.png,,,,,,,,,,,,0.378703732,-0.236111111,1,0,0,geif,0,52,52,23,1
,,,,,55987,2023-09-30_10h44.50.879,vbt_B2_day4,2022.2.4,Win32,60.13229104,55987,,,,,,,,,lappen,,,,,,,,,,,,lappen,images/br_lappen.png,images/cb_lappen.png,,,,,,,,,,,,0.378703732,-0.236111111,1,0,0,lappen,0,53,53,49,1
,,,,,55987,2023-09-30_10h44.50.879,vbt_B2_day4,2022.2.4,Win32,60.13229104,55987,,,,,,,,,mekst,,,,,,,,,,,,mekst,images/br_mekst.png,images/cb_mekst.png,,,,,,,,,,,,0.45,-0.269444444,1,0,0,mekst,0,54,54,27,1
,,,,,55987,2023-09-30_10h44.50.879,vbt_B2_day4,2022.2.4,Win32,60.13229104,55987,,,,,,,,,geliefd,,,,,,,,,,,,geliefd,images/br_geliefd.png,images/cb_geliefd.png,,,,,,,,,,,,0.534259372,-0.137962977,1,0,0,geliefd,0,55,55,14,1
,,,,,55987,2023-09-30_10h44.50.879,vbt_B2_day4,2022.2.4,Win32,60.13229104,55987,,,,,,,,,appartaat,,,,,,,,,,,,apparaat,images/br_apparaat.png,images/cb_apparaat.png,,,,,,,,,,,,0.534259372,-0.137962977,1,0,0,appartaat,0,56,56,17,1
,,,,,55987,2023-09-30_10h44.50.879,vbt_B2_day4,2022.2.4,Win32,60.13229104,55987,,,,,,,,,baron,,,,,,,,,,,,baron,images/br_baron.png,images/cb_baron.png,,,,,,,,,,,,0.547222222,-0.226851908,1,0,0,baron,0,57,57,5,1
,,,,,55987,2023-09-30_10h44.50.879,vbt_B2_day4,2022.2.4,Win32,60.13229104,55987,,,,,,,,,broodje,,,,,,,,,,,,broodje,images/br_broodje.png,images/cb_broodje.png,,,,,,,,,,,,0.547222222,-0.226851908,1,0,0,broodje,0,58,58,55,1
,,,,,55987,2023-09-30_10h44.50.879,vbt_B2_day4,2022.2.4,Win32,60.13229104,55987,,,,,,,,,wozin.,,,,,,,,,,,,wozing,images/br_wozing.png,images/cb_wozing.png,,,,,,,,,,,,0.547222222,-0.226851908,1,0,0,wozin.,0,59,59,28,1
,,,,,55987,2023-09-30_10h44.50.879,vbt_B2_day4,2022.2.4,Win32,60.13229104,55987,,,,,,,,,,,,,,,,,,,,,,,,,,,,,,,,,,,,,,,,,,,,,
