welcome_mouse.x,welcome_mouse.y,welcome_mouse.leftButton,welcome_mouse.midButton,welcome_mouse.rightButton,"ID",date,expName,psychopyVersion,OS,frameRate,trainInstr_mouse.x,trainInstr_mouse.y,trainInstr_mouse.leftButton,trainInstr_mouse.midButton,trainInstr_mouse.rightButton,translation_key.keys,translation_key.corr,translation_key.rt,word_rsp.text,trWrd_mouse.x,trWrd_mouse.y,trWrd_mouse.leftButton,trWrd_mouse.midButton,trWrd_mouse.rightButton,train_loop.thisRepN,train_loop.thisTrialN,train_loop.thisN,train_loop.thisIndex,train_loop.ran,nlWrd,brWrd,cbWrd,test,testResp,mouse.x,mouse.y,mouse.leftButton,mouse.midButton,mouse.rightButton,testInstr_mouse.x,testInstr_mouse.y,testInstr_mouse.leftButton,testInstr_mouse.midButton,testInstr_mouse.rightButton,test_mouse.x,test_mouse.y,test_mouse.leftButton,test_mouse.midButton,test_mouse.rightButton,test_response.text,test_loop.thisRepN,test_loop.thisTrialN,test_loop.thisN,test_loop.thisIndex,test_loop.ran
0.269444444,-0.266666667,1,0,0,00102,2023-11-13_13h37.06.809,vbt_B2_day4,2022.2.4,Win32,60.0024001,,,,,,,,,,,,,,,,,,,,,,,,,,,,,,,,,,,,,,,,,,,,,
,,,,,00102,2023-11-13_13h37.06.809,vbt_B2_day4,2022.2.4,Win32,60.0024001,0.290740741,-0.25462963,1,0,0,,,,,,,,,,,,,,,,,,,,,,,,,,,,,,,,,,,,,,,,
,,,,,00102,2023-11-13_13h37.06.809,vbt_B2_day4,2022.2.4,Win32,60.0024001,,,,,,down,0,1.5835,,0.138888889,-0.025,1,0,0,0,0,0,71,1,bever,images/br_bever.png,images/cb_bever.png,0,,,,,,,,,,,,,,,,,,,,,,
,,,,,00102,2023-11-13_13h37.06.809,vbt_B2_day4,2022.2.4,Win32,60.0024001,,,,,,down,0,4.2853,,0.171296296,-0.043518519,1,0,0,0,1,1,46,1,jagen,images/br_jagen.png,images/cb_jagen.png,0,,,,,,,,,,,,,,,,,,,,,,
,,,,,00102,2023-11-13_13h37.06.809,vbt_B2_day4,2022.2.4,Win32,60.0024001,,,,,,down,0,1.7317,,0.214814815,-0.058333333,1,0,0,0,2,2,160,1,daarheen,images/br_daarheen.png,images/cb_daarheen.png,0,,,,,,,,,,,,,,,,,,,,,,
,,,,,00102,2023-11-13_13h37.06.809,vbt_B2_day4,2022.2.4,Win32,60.0024001,,,,,,down,0,2.8549,,0.210185185,-0.05,1,0,0,0,3,3,141,1,knielen,images/br_knielen.png,images/cb_knielen.png,0,,,,,,,,,,,,,,,,,,,,,,
,,,,,00102,2023-11-13_13h37.06.809,vbt_B2_day4,2022.2.4,Win32,60.0024001,,,,,,down,0,0.4176,,-0.022222222,-0.077777778,1,0,0,0,4,4,1,1,zaal,images/br_zaal.png,images/cb_zaal.png,0,,,,,,,,,,,,,,,,,,,,,,
,,,,,00102,2023-11-13_13h37.06.809,vbt_B2_day4,2022.2.4,Win32,60.0024001,,,,,,down,0,1.4825,,0.148148148,-0.086111111,1,0,0,0,5,5,86,1,woning,images/br_woning.png,images/cb_woning.png,0,,,,,,,,,,,,,,,,,,,,,,
,,,,,00102,2023-11-13_13h37.06.809,vbt_B2_day4,2022.2.4,Win32,60.0024001,,,,,,down,0,0.3246,,0.1,-0.059259259,1,0,0,0,6,6,55,1,praat,images/br_praat.png,images/cb_praat.png,0,,,,,,,,,,,,,,,,,,,,,,
,,,,,00102,2023-11-13_13h37.06.809,vbt_B2_day4,2022.2.4,Win32,60.0024001,,,,,,down,0,1.71,,0.143518519,-0.049074074,1,0,0,0,7,7,117,1,kennis,images/br_kennis.png,images/cb_kennis.png,0,,,,,,,,,,,,,,,,,,,,,,
,,,,,00102,2023-11-13_13h37.06.809,vbt_B2_day4,2022.2.4,Win32,60.0024001,,,,,,down,0,6.725,,-0.152777778,-0.461111111,1,0,0,0,8,8,134,1,geliefd,images/br_geliefd.png,images/cb_geliefd.png,0,,,,,,,,,,,,,,,,,,,,,,
,,,,,00102,2023-11-13_13h37.06.809,vbt_B2_day4,2022.2.4,Win32,60.0024001,,,,,,down,0,3.9188,,0.139814815,-0.010185185,1,0,0,0,9,9,154,1,aflopen,images/br_aflopen.png,images/cb_aflopen.png,0,,,,,,,,,,,,,,,,,,,,,,
,,,,,00102,2023-11-13_13h37.06.809,vbt_B2_day4,2022.2.4,Win32,60.0024001,,,,,,down,0,1.0078,,0.172222222,-0.040740741,1,0,0,0,10,10,195,1,middelen,images/br_middelen.png,images/cb_middelen.png,0,,,,,,,,,,,,,,,,,,,,,,
,,,,,00102,2023-11-13_13h37.06.809,vbt_B2_day4,2022.2.4,Win32,60.0024001,,,,,,down,0,2.297,,0.17037037,-0.030555556,1,0,0,0,11,11,78,1,leren,images/br_leren.png,images/cb_leren.png,0,,,,,,,,,,,,,,,,,,,,,,
,,,,,00102,2023-11-13_13h37.06.809,vbt_B2_day4,2022.2.4,Win32,60.0024001,,,,,,down,0,1.4498,,0.187962963,-0.027777778,1,0,0,0,12,12,65,1,parel,images/br_parel.png,images/cb_parel.png,1,parel,,,,,,,,,,,,,,,,,,,,,
,,,,,00102,2023-11-13_13h37.06.809,vbt_B2_day4,2022.2.4,Win32,60.0024001,,,,,,down,0,0.8684,,0.102777778,-0.010185185,1,0,0,0,13,13,34,1,vorm,images/br_vorm.png,images/cb_vorm.png,0,,,,,,,,,,,,,,,,,,,,,,
,,,,,00102,2023-11-13_13h37.06.809,vbt_B2_day4,2022.2.4,Win32,60.0024001,,,,,,down,0,0.5171,,-0.247222222,0.011111111,1,0,0,0,14,14,194,1,driemaal,images/br_driemaal.png,images/cb_driemaal.png,0,,,,,,,,,,,,,,,,,,,,,,
,,,,,00102,2023-11-13_13h37.06.809,vbt_B2_day4,2022.2.4,Win32,60.0024001,,,,,,down,0,0.3164,,-0.247222222,0.011111111,1,0,0,0,15,15,190,1,goedkoop,images/br_goedkoop.png,images/cb_goedkoop.png,0,,,,,,,,,,,,,,,,,,,,,,
,,,,,00102,2023-11-13_13h37.06.809,vbt_B2_day4,2022.2.4,Win32,60.0024001,,,,,,down,0,12.1781,,-0.276851852,-0.001851852,1,0,0,0,16,16,145,1,invloed,images/br_invloed.png,images/cb_invloed.png,1,invloed,,,,,,,,,,,,,,,,,,,,,
,,,,,00102,2023-11-13_13h37.06.809,vbt_B2_day4,2022.2.4,Win32,60.0024001,,,,,,down,0,7.3203,,0.143518519,-0.022222222,1,0,0,0,17,17,111,1,ticket,images/br_ticket.png,images/cb_ticket.png,0,,,,,,,,,,,,,,,,,,,,,,
,,,,,00102,2023-11-13_13h37.06.809,vbt_B2_day4,2022.2.4,Win32,60.0024001,,,,,,down,0,2.4507,,0.2,-0.082407407,1,0,0,0,18,18,188,1,strekken,images/br_strekken.png,images/cb_strekken.png,0,,,,,,,,,,,,,,,,,,,,,,
,,,,,00102,2023-11-13_13h37.06.809,vbt_B2_day4,2022.2.4,Win32,60.0024001,,,,,,down,0,0.1842,,-0.110185185,-0.038888889,1,0,0,0,19,19,112,1,lukken,images/br_lukken.png,images/cb_lukken.png,0,,,,,,,,,,,,,,,,,,,,,,
,,,,,00102,2023-11-13_13h37.06.809,vbt_B2_day4,2022.2.4,Win32,60.0024001,,,,,,down,0,3.0328,,-0.141666667,-0.016666667,1,0,0,0,20,20,169,1,oprotten,images/br_oprotten.png,images/cb_oprotten.png,0,,,,,,,,,,,,,,,,,,,,,,
,,,,,00102,2023-11-13_13h37.06.809,vbt_B2_day4,2022.2.4,Win32,60.0024001,,,,,,down,0,0.1693,,-0.139814815,-0.012962963,1,0,0,0,21,21,23,1,zout,images/br_zout.png,images/cb_zout.png,0,,,,,,,,,,,,,,,,,,,,,,
,,,,,00102,2023-11-13_13h37.06.809,vbt_B2_day4,2022.2.4,Win32,60.0024001,,,,,,down,0,1.1866,,-0.138888889,-0.012962963,1,0,0,0,22,22,192,1,schaamte,images/br_schaamte.png,images/cb_schaamte.png,0,,,,,,,,,,,,,,,,,,,,,,
,,,,,00102,2023-11-13_13h37.06.809,vbt_B2_day4,2022.2.4,Win32,60.0024001,,,,,,down,0,6.5981,,-0.678703704,-0.499074074,1,0,0,0,23,23,161,1,attentie,images/br_attentie.png,images/cb_attentie.png,0,,,,,,,,,,,,,,,,,,,,,,
,,,,,00102,2023-11-13_13h37.06.809,vbt_B2_day4,2022.2.4,Win32,60.0024001,,,,,,down,0,3.8071,,-0.168518519,-0.011111111,1,0,0,0,24,24,148,1,smullen,images/br_smullen.png,images/cb_smullen.png,0,,,,,,,,,,,,,,,,,,,,,,
,,,,,00102,2023-11-13_13h37.06.809,vbt_B2_day4,2022.2.4,Win32,60.0024001,,,,,,down,0,7.9186,,-0.002777778,0.067592593,1,0,0,0,25,25,102,1,legaal,images/br_legaal.png,images/cb_legaal.png,0,,,,,,,,,,,,,,,,,,,,,,
,,,,,00102,2023-11-13_13h37.06.809,vbt_B2_day4,2022.2.4,Win32,60.0024001,,,,,,down,0,0.1747,,0.087962963,0.026851852,1,0,0,0,26,26,18,1,blik,images/br_blik.png,images/cb_blik.png,0,,,,,,,,,,,,,,,,,,,,,,
,,,,,00102,2023-11-13_13h37.06.809,vbt_B2_day4,2022.2.4,Win32,60.0024001,,,,,,down,0,1.6859,,0.244444444,-0.067592593,1,0,0,0,27,27,129,1,verhaal,images/br_verhaal.png,images/cb_verhaal.png,0,,,,,,,,,,,,,,,,,,,,,,
,,,,,00102,2023-11-13_13h37.06.809,vbt_B2_day4,2022.2.4,Win32,60.0024001,,,,,,down,0,2.5521,,0.171296296,-0.096296296,1,0,0,0,28,28,183,1,getuigen,images/br_getuigen.png,images/cb_getuigen.png,0,,,,,,,,,,,,,,,,,,,,,,
,,,,,00102,2023-11-13_13h37.06.809,vbt_B2_day4,2022.2.4,Win32,60.0024001,,,,,,down,0,9.6869,,0.074074074,-0.001851852,1,0,0,0,29,29,70,1,ijdel,images/br_ijdel.png,images/cb_ijdel.png,0,,,,,,,,,,,,,,,,,,,,,,
,,,,,00102,2023-11-13_13h37.06.809,vbt_B2_day4,2022.2.4,Win32,60.0024001,,,,,,down,0,4.4188,,0.057407407,-0.056481481,1,0,0,0,30,30,49,1,laken,images/br_laken.png,images/cb_laken.png,0,,,,,,,,,,,,,,,,,,,,,,
,,,,,00102,2023-11-13_13h37.06.809,vbt_B2_day4,2022.2.4,Win32,60.0024001,,,,,,down,0,8.1402,,0.12037037,-0.037962963,1,0,0,0,31,31,180,1,openbaar,images/br_openbaar.png,images/cb_openbaar.png,0,,,,,,,,,,,,,,,,,,,,,,
,,,,,00102,2023-11-13_13h37.06.809,vbt_B2_day4,2022.2.4,Win32,60.0024001,,,,,,down,0,1.4542,,0.099074074,-0.024074074,1,0,0,0,32,32,99,1,koffie,images/br_koffie.png,images/cb_koffie.png,0,,,,,,,,,,,,,,,,,,,,,,
,,,,,00102,2023-11-13_13h37.06.809,vbt_B2_day4,2022.2.4,Win32,60.0024001,,,,,,down,0,0.6408,,0.018518519,-0.098148148,1,0,0,0,33,33,17,1,taal,images/br_taal.png,images/cb_taal.png,0,,,,,,,,,,,,,,,,,,,,,,
,,,,,00102,2023-11-13_13h37.06.809,vbt_B2_day4,2022.2.4,Win32,60.0024001,,,,,,down,0,4.7576,,-0.024074074,-0.092592593,1,0,0,0,34,34,184,1,aandelen,images/br_aandelen.png,images/cb_aandelen.png,1,aandelen,,,,,,,,,,,,,,,,,,,,,
,,,,,00102,2023-11-13_13h37.06.809,vbt_B2_day4,2022.2.4,Win32,60.0024001,,,,,,down,0,1.5255,,-0.012962963,-0.07962963,1,0,0,0,35,35,153,1,vervoer,images/br_vervoer.png,images/cb_vervoer.png,0,,,,,,,,,,,,,,,,,,,,,,
,,,,,00102,2023-11-13_13h37.06.809,vbt_B2_day4,2022.2.4,Win32,60.0024001,,,,,,down,0,0.4334,,0.04537037,-0.097222222,1,0,0,0,36,36,42,1,bleek,images/br_bleek.png,images/cb_bleek.png,0,,,,,,,,,,,,,,,,,,,,,,
,,,,,00102,2023-11-13_13h37.06.809,vbt_B2_day4,2022.2.4,Win32,60.0024001,,,,,,down,0,3.251,,0.2,-0.085185185,1,0,0,0,37,37,170,1,schatten,images/br_schatten.png,images/cb_schatten.png,0,,,,,,,,,,,,,,,,,,,,,,
,,,,,00102,2023-11-13_13h37.06.809,vbt_B2_day4,2022.2.4,Win32,60.0024001,,,,,,down,0,0.6671,,0.161111111,-0.071296296,1,0,0,0,38,38,181,1,toegeven,images/br_toegeven.png,images/cb_toegeven.png,0,,,,,,,,,,,,,,,,,,,,,,
,,,,,00102,2023-11-13_13h37.06.809,vbt_B2_day4,2022.2.4,Win32,60.0024001,,,,,,down,0,3.8537,,0.076851852,-0.005555556,1,0,0,0,39,39,60,1,jasje,images/br_jasje.png,images/cb_jasje.png,0,,,,,,,,,,,,,,,,,,,,,,
,,,,,00102,2023-11-13_13h37.06.809,vbt_B2_day4,2022.2.4,Win32,60.0024001,,,,,,down,0,2.2468,,0.132407407,-0.060185185,1,0,0,0,40,40,110,1,zuster,images/br_zuster.png,images/cb_zuster.png,0,,,,,,,,,,,,,,,,,,,,,,
,,,,,00102,2023-11-13_13h37.06.809,vbt_B2_day4,2022.2.4,Win32,60.0024001,,,,,,down,0,0.3925,,0.12962963,-0.052777778,1,0,0,0,41,41,56,1,traag,images/br_traag.png,images/cb_traag.png,0,,,,,,,,,,,,,,,,,,,,,,
,,,,,00102,2023-11-13_13h37.06.809,vbt_B2_day4,2022.2.4,Win32,60.0024001,,,,,,down,0,2.7738,,0.199074074,-0.053703704,1,0,0,0,42,42,167,1,eenhoorn,images/br_eenhoorn.png,images/cb_eenhoorn.png,0,,,,,,,,,,,,,,,,,,,,,,
,,,,,00102,2023-11-13_13h37.06.809,vbt_B2_day4,2022.2.4,Win32,60.0024001,,,,,,down,0,7.4591,,0.131481481,-0.053703704,1,0,0,0,43,43,162,1,uitdelen,images/br_uitdelen.png,images/cb_uitdelen.png,0,,,,,,,,,,,,,,,,,,,,,,
,,,,,00102,2023-11-13_13h37.06.809,vbt_B2_day4,2022.2.4,Win32,60.0024001,,,,,,down,0,0.6119,,-0.035185185,-0.1,1,0,0,0,44,44,31,1,poes,images/br_poes.png,images/cb_poes.png,0,,,,,,,,,,,,,,,,,,,,,,
,,,,,00102,2023-11-13_13h37.06.809,vbt_B2_day4,2022.2.4,Win32,60.0024001,,,,,,down,0,6.2781,,0.030555556,-0.127777778,1,0,0,0,45,45,108,1,excuus,images/br_excuus.png,images/cb_excuus.png,0,,,,,,,,,,,,,,,,,,,,,,
,,,,,00102,2023-11-13_13h37.06.809,vbt_B2_day4,2022.2.4,Win32,60.0024001,,,,,,down,0,0.3871,,0.122222222,-0.116666667,1,0,0,0,46,46,93,1,waarop,images/br_waarop.png,images/cb_waarop.png,0,,,,,,,,,,,,,,,,,,,,,,
,,,,,00102,2023-11-13_13h37.06.809,vbt_B2_day4,2022.2.4,Win32,60.0024001,,,,,,down,0,3.2171,,0.162962963,-0.066666667,1,0,0,0,47,47,175,1,heengaan,images/br_heengaan.png,images/cb_heengaan.png,0,,,,,,,,,,,,,,,,,,,,,,
,,,,,00102,2023-11-13_13h37.06.809,vbt_B2_day4,2022.2.4,Win32,60.0024001,,,,,,down,0,2.2914,,0.087037037,-0.00462963,1,0,0,0,48,48,186,1,voorraad,images/br_voorraad.png,images/cb_voorraad.png,1,voorraad,,,,,,,,,,,,,,,,,,,,,
,,,,,00102,2023-11-13_13h37.06.809,vbt_B2_day4,2022.2.4,Win32,60.0024001,,,,,,down,0,2.0138,,0.12962963,-0.026851852,1,0,0,0,49,49,89,1,slapen,images/br_slapen.png,images/cb_slapen.png,0,,,,,,,,,,,,,,,,,,,,,,
,,,,,00102,2023-11-13_13h37.06.809,vbt_B2_day4,2022.2.4,Win32,60.0024001,,,,,,down,0,3.4533,,0.027777778,-0.210185185,1,0,0,0,50,50,172,1,weigeren,images/br_weigeren.png,images/cb_weigeren.png,0,,,,,,,,,,,,,,,,,,,,,,
,,,,,00102,2023-11-13_13h37.06.809,vbt_B2_day4,2022.2.4,Win32,60.0024001,,,,,,down,0,0.4897,,0.062037037,-0.10462963,1,0,0,0,51,51,29,1,baas,images/br_baas.png,images/cb_baas.png,0,,,,,,,,,,,,,,,,,,,,,,
,,,,,00102,2023-11-13_13h37.06.809,vbt_B2_day4,2022.2.4,Win32,60.0024001,,,,,,down,0,5.8821,,0.15,-0.091666667,1,0,0,0,52,52,138,1,akkoord,images/br_akkoord.png,images/cb_akkoord.png,0,,,,,,,,,,,,,,,,,,,,,,
,,,,,00102,2023-11-13_13h37.06.809,vbt_B2_day4,2022.2.4,Win32,60.0024001,,,,,,down,0,0.6236,,0.152777778,-0.053703704,1,0,0,0,53,53,12,1,kust,images/br_kust.png,images/cb_kust.png,0,,,,,,,,,,,,,,,,,,,,,,
,,,,,00102,2023-11-13_13h37.06.809,vbt_B2_day4,2022.2.4,Win32,60.0024001,,,,,,down,0,3.8198,,-0.222222222,0.006481481,1,0,0,0,54,54,143,1,hechten,images/br_hechten.png,images/cb_hechten.png,0,,,,,,,,,,,,,,,,,,,,,,
,,,,,00102,2023-11-13_13h37.06.809,vbt_B2_day4,2022.2.4,Win32,60.0024001,,,,,,down,0,1.8973,,0.102777778,-0.037962963,1,0,0,0,55,55,115,1,kleren,images/br_kleren.png,images/cb_kleren.png,0,,,,,,,,,,,,,,,,,,,,,,
,,,,,00102,2023-11-13_13h37.06.809,vbt_B2_day4,2022.2.4,Win32,60.0024001,,,,,,down,0,6.9018,,0.219444444,-0.032407407,1,0,0,0,56,56,136,1,waarbij,images/br_waarbij.png,images/cb_waarbij.png,0,,,,,,,,,,,,,,,,,,,,,,
,,,,,00102,2023-11-13_13h37.06.809,vbt_B2_day4,2022.2.4,Win32,60.0024001,,,,,,down,0,2.0502,,0.237037037,-0.067592593,1,0,0,0,57,57,127,1,doodmoe,images/br_doodmoe.png,images/cb_doodmoe.png,0,,,,,,,,,,,,,,,,,,,,,,
,,,,,00102,2023-11-13_13h37.06.809,vbt_B2_day4,2022.2.4,Win32,60.0024001,,,,,,down,0,1.8891,,0.106481481,-0.017592593,1,0,0,0,58,58,81,1,dubbel,images/br_dubbel.png,images/cb_dubbel.png,0,,,,,,,,,,,,,,,,,,,,,,
,,,,,00102,2023-11-13_13h37.06.809,vbt_B2_day4,2022.2.4,Win32,60.0024001,,,,,,down,0,0.3914,,0.005555556,-0.051851852,1,0,0,0,59,59,39,1,laag,images/br_laag.png,images/cb_laag.png,0,,,,,,,,,,,,,,,,,,,,,,
,,,,,00102,2023-11-13_13h37.06.809,vbt_B2_day4,2022.2.4,Win32,60.0024001,,,,,,down,0,1.4192,,-0.162037037,-0.037962963,1,0,0,0,60,60,106,1,zingen,images/br_zingen.png,images/cb_zingen.png,1,zingen,,,,,,,,,,,,,,,,,,,,,
,,,,,00102,2023-11-13_13h37.06.809,vbt_B2_day4,2022.2.4,Win32,60.0024001,,,,,,down,0,1.4329,,0.2,-0.307407407,1,0,0,0,61,61,68,1,schat,images/br_schat.png,images/cb_schat.png,0,,,,,,,,,,,,,,,,,,,,,,
,,,,,00102,2023-11-13_13h37.06.809,vbt_B2_day4,2022.2.4,Win32,60.0024001,,,,,,down,0,9.7894,,0.087962963,-0.144444444,1,0,0,0,62,62,94,1,oceaan,images/br_oceaan.png,images/cb_oceaan.png,0,,,,,,,,,,,,,,,,,,,,,,
,,,,,00102,2023-11-13_13h37.06.809,vbt_B2_day4,2022.2.4,Win32,60.0024001,,,,,,down,0,0.5334,,0.066666667,-0.050925926,1,0,0,0,63,63,84,1,lokken,images/br_lokken.png,images/cb_lokken.png,0,,,,,,,,,,,,,,,,,,,,,,
,,,,,00102,2023-11-13_13h37.06.809,vbt_B2_day4,2022.2.4,Win32,60.0024001,,,,,,down,0,1.4051,,0.212962963,-0.058333333,1,0,0,0,64,64,100,1,geduld,images/br_geduld.png,images/cb_geduld.png,0,,,,,,,,,,,,,,,,,,,,,,
,,,,,00102,2023-11-13_13h37.06.809,vbt_B2_day4,2022.2.4,Win32,60.0024001,,,,,,down,0,0.744,,-0.183333333,-0.019444444,1,0,0,0,65,65,96,1,slagen,images/br_slagen.png,images/cb_slagen.png,0,,,,,,,,,,,,,,,,,,,,,,
,,,,,00102,2023-11-13_13h37.06.809,vbt_B2_day4,2022.2.4,Win32,60.0024001,,,,,,down,0,1.5222,,0.126851852,-0.049074074,1,0,0,0,66,66,59,1,kring,images/br_kring.png,images/cb_kring.png,0,,,,,,,,,,,,,,,,,,,,,,
,,,,,00102,2023-11-13_13h37.06.809,vbt_B2_day4,2022.2.4,Win32,60.0024001,,,,,,down,0,12.4298,,0.153703704,-0.073148148,1,0,0,0,67,67,185,1,mijnheer,images/br_mijnheer.png,images/cb_mijnheer.png,1,mijnheer,,,,,,,,,,,,,,,,,,,,,
,,,,,00102,2023-11-13_13h37.06.809,vbt_B2_day4,2022.2.4,Win32,60.0024001,,,,,,down,0,1.5879,,-0.125,-0.034259259,1,0,0,0,68,68,79,1,nodig,images/br_nodig.png,images/cb_nodig.png,0,,,,,,,,,,,,,,,,,,,,,,
,,,,,00102,2023-11-13_13h37.06.809,vbt_B2_day4,2022.2.4,Win32,60.0024001,,,,,,down,0,0.8972,,0.063888889,-0.061111111,1,0,0,0,69,69,132,1,grappen,images/br_grappen.png,images/cb_grappen.png,0,,,,,,,,,,,,,,,,,,,,,,
,,,,,00102,2023-11-13_13h37.06.809,vbt_B2_day4,2022.2.4,Win32,60.0024001,,,,,,down,0,9.4335,,0.263888889,-0.206481481,1,0,0,0,70,70,66,1,lever,images/br_lever.png,images/cb_lever.png,1,lever,,,,,,,,,,,,,,,,,,,,,
,,,,,00102,2023-11-13_13h37.06.809,vbt_B2_day4,2022.2.4,Win32,60.0024001,,,,,,down,0,5.8474,,0.04537037,-0.012037037,1,0,0,0,71,71,14,1,rijp,images/br_rijp.png,images/cb_rijp.png,0,,,,,,,,,,,,,,,,,,,,,,
,,,,,00102,2023-11-13_13h37.06.809,vbt_B2_day4,2022.2.4,Win32,60.0024001,,,,,,down,0,0.0498,,0.162962963,-0.038888889,1,0,0,0,72,72,32,1,palm,images/br_palm.png,images/cb_palm.png,0,,,,,,,,,,,,,,,,,,,,,,
,,,,,00102,2023-11-13_13h37.06.809,vbt_B2_day4,2022.2.4,Win32,60.0024001,,,,,,down,0,3.6541,,0.167592593,-0.074074074,1,0,0,0,73,73,163,1,schuilen,images/br_schuilen.png,images/cb_schuilen.png,0,,,,,,,,,,,,,,,,,,,,,,
,,,,,00102,2023-11-13_13h37.06.809,vbt_B2_day4,2022.2.4,Win32,60.0024001,,,,,,down,0,0.017,,0.207407407,-0.046296296,1,0,0,0,74,74,150,1,gegeven,images/br_gegeven.png,images/cb_gegeven.png,0,,,,,,,,,,,,,,,,,,,,,,
,,,,,00102,2023-11-13_13h37.06.809,vbt_B2_day4,2022.2.4,Win32,60.0024001,,,,,,down,0,0.0698,,0.105555556,-0.04537037,1,0,0,0,75,75,118,1,vinger,images/br_vinger.png,images/cb_vinger.png,0,,,,,,,,,,,,,,,,,,,,,,
,,,,,00102,2023-11-13_13h37.06.809,vbt_B2_day4,2022.2.4,Win32,60.0024001,,,,,,down,0,0.3999,,0.073148148,-0.032407407,1,0,0,0,76,76,50,1,stoom,images/br_stoom.png,images/cb_stoom.png,0,,,,,,,,,,,,,,,,,,,,,,
,,,,,00102,2023-11-13_13h37.06.809,vbt_B2_day4,2022.2.4,Win32,60.0024001,,,,,,down,0,0.7808,,0.174074074,-0.074074074,1,0,0,0,77,77,91,1,gezond,images/br_gezond.png,images/cb_gezond.png,0,,,,,,,,,,,,,,,,,,,,,,
,,,,,00102,2023-11-13_13h37.06.809,vbt_B2_day4,2022.2.4,Win32,60.0024001,,,,,,down,0,0.3205,,0.156481481,-0.025,1,0,0,0,78,78,74,1,graaf,images/br_graaf.png,images/cb_graaf.png,0,,,,,,,,,,,,,,,,,,,,,,
,,,,,00102,2023-11-13_13h37.06.809,vbt_B2_day4,2022.2.4,Win32,60.0024001,,,,,,down,0,0.1003,,0.112962963,-0.044444444,1,0,0,0,79,79,11,1,mode,images/br_mode.png,images/cb_mode.png,0,,,,,,,,,,,,,,,,,,,,,,
,,,,,00102,2023-11-13_13h37.06.809,vbt_B2_day4,2022.2.4,Win32,60.0024001,,,,,,down,0,0.0337,,0.086111111,-0.126851852,1,0,0,0,80,80,35,1,lust,images/br_lust.png,images/cb_lust.png,0,,,,,,,,,,,,,,,,,,,,,,
,,,,,00102,2023-11-13_13h37.06.809,vbt_B2_day4,2022.2.4,Win32,60.0024001,,,,,,down,0,1.1532,,0.084259259,-0.125925926,1,0,0,0,81,81,107,1,maling,images/br_maling.png,images/cb_maling.png,1,maling,,,,,,,,,,,,,,,,,,,,,
,,,,,00102,2023-11-13_13h37.06.809,vbt_B2_day4,2022.2.4,Win32,60.0024001,,,,,,down,0,2.0827,,0.076851852,-0.052777778,1,0,0,0,82,82,47,1,kabel,images/br_kabel.png,images/cb_kabel.png,0,,,,,,,,,,,,,,,,,,,,,,
,,,,,00102,2023-11-13_13h37.06.809,vbt_B2_day4,2022.2.4,Win32,60.0024001,,,,,,down,0,3.5165,,0.009259259,-0.003703704,1,0,0,0,83,83,97,1,loyaal,images/br_loyaal.png,images/cb_loyaal.png,0,,,,,,,,,,,,,,,,,,,,,,
,,,,,00102,2023-11-13_13h37.06.809,vbt_B2_day4,2022.2.4,Win32,60.0024001,,,,,,down,0,0.602,,-0.087962963,-0.000925926,1,0,0,0,84,84,72,1,strak,images/br_strak.png,images/cb_strak.png,0,,,,,,,,,,,,,,,,,,,,,,
,,,,,00102,2023-11-13_13h37.06.809,vbt_B2_day4,2022.2.4,Win32,60.0024001,,,,,,down,0,1.8832,,0.102777778,-0.076851852,1,0,0,0,85,85,174,1,stemming,images/br_stemming.png,images/cb_stemming.png,0,,,,,,,,,,,,,,,,,,,,,,
,,,,,00102,2023-11-13_13h37.06.809,vbt_B2_day4,2022.2.4,Win32,60.0024001,,,,,,down,0,0.433,,-0.031481481,-0.066666667,1,0,0,0,86,86,13,1,kaal,images/br_kaal.png,images/cb_kaal.png,0,,,,,,,,,,,,,,,,,,,,,,
,,,,,00102,2023-11-13_13h37.06.809,vbt_B2_day4,2022.2.4,Win32,60.0024001,,,,,,down,0,1.154,,0.131481481,-0.077777778,1,0,0,0,87,87,92,1,geheim,images/br_geheim.png,images/cb_geheim.png,0,,,,,,,,,,,,,,,,,,,,,,
,,,,,00102,2023-11-13_13h37.06.809,vbt_B2_day4,2022.2.4,Win32,60.0024001,,,,,,down,0,1.1876,,0.05462963,-0.115740741,1,0,0,0,88,88,67,1,zwart,images/br_zwart.png,images/cb_zwart.png,1,zwart,,,,,,,,,,,,,,,,,,,,,
,,,,,00102,2023-11-13_13h37.06.809,vbt_B2_day4,2022.2.4,Win32,60.0024001,,,,,,down,0,4.1299,,0.022222222,-0.007407407,1,0,0,0,89,89,58,1,tekst,images/br_tekst.png,images/cb_tekst.png,0,,,,,,,,,,,,,,,,,,,,,,
,,,,,00102,2023-11-13_13h37.06.809,vbt_B2_day4,2022.2.4,Win32,60.0024001,,,,,,down,0,0.4669,,-0.038888889,-0.061111111,1,0,0,0,90,90,28,1,stal,images/br_stal.png,images/cb_stal.png,0,,,,,,,,,,,,,,,,,,,,,,
,,,,,00102,2023-11-13_13h37.06.809,vbt_B2_day4,2022.2.4,Win32,60.0024001,,,,,,down,0,0.7722,,-0.011111111,-0.085185185,1,0,0,0,91,91,82,1,muziek,images/br_muziek.png,images/cb_muziek.png,0,,,,,,,,,,,,,,,,,,,,,,
,,,,,00102,2023-11-13_13h37.06.809,vbt_B2_day4,2022.2.4,Win32,60.0024001,,,,,,down,0,1.816,,-0.075,-0.103703704,1,0,0,0,92,92,24,1,jurk,images/br_jurk.png,images/cb_jurk.png,1,jurk,,,,,,,,,,,,,,,,,,,,,
,,,,,00102,2023-11-13_13h37.06.809,vbt_B2_day4,2022.2.4,Win32,60.0024001,,,,,,down,0,3.5224,,0.048148148,0,1,0,0,0,93,93,15,1,soda,images/br_soda.png,images/cb_soda.png,0,,,,,,,,,,,,,,,,,,,,,,
,,,,,00102,2023-11-13_13h37.06.809,vbt_B2_day4,2022.2.4,Win32,60.0024001,,,,,,down,0,1.8019,,0.125925926,-0.037037037,1,0,0,0,94,94,30,1,uien,images/br_uien.png,images/cb_uien.png,0,,,,,,,,,,,,,,,,,,,,,,
,,,,,00102,2023-11-13_13h37.06.809,vbt_B2_day4,2022.2.4,Win32,60.0024001,,,,,,down,0,0.8978,,0.42962963,-0.126851852,1,0,0,0,95,95,199,1,beseffen,images/br_beseffen.png,images/cb_beseffen.png,0,,,,,,,,,,,,,,,,,,,,,,
,,,,,00102,2023-11-13_13h37.06.809,vbt_B2_day4,2022.2.4,Win32,60.0024001,,,,,,down,0,0.5305,,0.400925926,-0.047222222,1,0,0,0,96,96,114,1,vullen,images/br_vullen.png,images/cb_vullen.png,0,,,,,,,,,,,,,,,,,,,,,,
,,,,,00102,2023-11-13_13h37.06.809,vbt_B2_day4,2022.2.4,Win32,60.0024001,,,,,,down,0,2.3613,,0.242592593,-0.032407407,1,0,0,0,97,97,159,1,sufferd,images/br_sufferd.png,images/cb_sufferd.png,0,,,,,,,,,,,,,,,,,,,,,,
,,,,,00102,2023-11-13_13h37.06.809,vbt_B2_day4,2022.2.4,Win32,60.0024001,,,,,,down,0,3.129,,0.15462963,0.012962963,1,0,0,0,98,98,85,1,heilig,images/br_heilig.png,images/cb_heilig.png,0,,,,,,,,,,,,,,,,,,,,,,
,,,,,00102,2023-11-13_13h37.06.809,vbt_B2_day4,2022.2.4,Win32,60.0024001,,,,,,down,0,0.7526,,-0.015740741,-0.110185185,1,0,0,0,99,99,51,1,samen,images/br_samen.png,images/cb_samen.png,0,,,,,,,,,,,,,,,,,,,,,,
,,,,,00102,2023-11-13_13h37.06.809,vbt_B2_day4,2022.2.4,Win32,60.0024001,,,,,,down,0,2.516,,0.076851852,-0.027777778,1,0,0,0,100,100,44,1,flits,images/br_flits.png,images/cb_flits.png,0,,,,,,,,,,,,,,,,,,,,,,
,,,,,00102,2023-11-13_13h37.06.809,vbt_B2_day4,2022.2.4,Win32,60.0024001,,,,,,down,0,1.0026,,-0.00462963,-0.04537037,1,0,0,0,101,101,2,1,jaar,images/br_jaar.png,images/cb_jaar.png,0,,,,,,,,,,,,,,,,,,,,,,
,,,,,00102,2023-11-13_13h37.06.809,vbt_B2_day4,2022.2.4,Win32,60.0024001,,,,,,down,0,3.8499,,0.19537037,-0.088888889,1,0,0,0,102,102,173,1,apparaat,images/br_apparaat.png,images/cb_apparaat.png,0,,,,,,,,,,,,,,,,,,,,,,
,,,,,00102,2023-11-13_13h37.06.809,vbt_B2_day4,2022.2.4,Win32,60.0024001,,,,,,down,0,2.0201,,-0.201851852,-0.059259259,1,0,0,0,103,103,37,1,mijn,images/br_mijn.png,images/cb_mijn.png,0,,,,,,,,,,,,,,,,,,,,,,
,,,,,00102,2023-11-13_13h37.06.809,vbt_B2_day4,2022.2.4,Win32,60.0024001,,,,,,down,0,0.1683,,-0.096296296,0.144444444,1,0,0,0,104,104,133,1,seizoen,images/br_seizoen.png,images/cb_seizoen.png,0,,,,,,,,,,,,,,,,,,,,,,
,,,,,00102,2023-11-13_13h37.06.809,vbt_B2_day4,2022.2.4,Win32,60.0024001,,,,,,down,0,0.609,,0.1,0.007407407,1,0,0,0,105,105,22,1,stof,images/br_stof.png,images/cb_stof.png,0,,,,,,,,,,,,,,,,,,,,,,
,,,,,00102,2023-11-13_13h37.06.809,vbt_B2_day4,2022.2.4,Win32,60.0024001,,,,,,down,0,2.1539,,0.176851852,-0.035185185,1,0,0,0,106,106,164,1,anarchie,images/br_anarchie.png,images/cb_anarchie.png,0,,,,,,,,,,,,,,,,,,,,,,
,,,,,00102,2023-11-13_13h37.06.809,vbt_B2_day4,2022.2.4,Win32,60.0024001,,,,,,down,0,7.2066,,0.201851852,-0.016666667,1,0,0,0,107,107,196,1,nakijken,images/br_nakijken.png,images/cb_nakijken.png,0,,,,,,,,,,,,,,,,,,,,,,
,,,,,00102,2023-11-13_13h37.06.809,vbt_B2_day4,2022.2.4,Win32,60.0024001,,,,,,down,0,1.0722,,-0.04537037,0.036111111,1,0,0,0,108,108,3,1,mand,images/br_mand.png,images/cb_mand.png,0,,,,,,,,,,,,,,,,,,,,,,
,,,,,00102,2023-11-13_13h37.06.809,vbt_B2_day4,2022.2.4,Win32,60.0024001,,,,,,down,0,0.8096,,0.003703704,-0.060185185,1,0,0,0,109,109,36,1,vuur,images/br_vuur.png,images/cb_vuur.png,0,,,,,,,,,,,,,,,,,,,,,,
,,,,,00102,2023-11-13_13h37.06.809,vbt_B2_day4,2022.2.4,Win32,60.0024001,,,,,,down,0,0.7203,,0.073148148,-0.053703704,1,0,0,0,110,110,21,1,mist,images/br_mist.png,images/cb_mist.png,0,,,,,,,,,,,,,,,,,,,,,,
,,,,,00102,2023-11-13_13h37.06.809,vbt_B2_day4,2022.2.4,Win32,60.0024001,,,,,,down,0,0.1949,,0.080555556,-0.074074074,1,0,0,0,111,111,73,1,volop,images/br_volop.png,images/cb_volop.png,0,,,,,,,,,,,,,,,,,,,,,,
,,,,,00102,2023-11-13_13h37.06.809,vbt_B2_day4,2022.2.4,Win32,60.0024001,,,,,,down,0,3.9178,,0.241666667,-0.028703704,1,0,0,0,112,112,168,1,bisschop,images/br_bisschop.png,images/cb_bisschop.png,0,,,,,,,,,,,,,,,,,,,,,,
,,,,,00102,2023-11-13_13h37.06.809,vbt_B2_day4,2022.2.4,Win32,60.0024001,,,,,,down,0,2.9349,,0.151851852,-0.05462963,1,0,0,0,113,113,116,1,besmet,images/br_besmet.png,images/cb_besmet.png,0,,,,,,,,,,,,,,,,,,,,,,
,,,,,00102,2023-11-13_13h37.06.809,vbt_B2_day4,2022.2.4,Win32,60.0024001,,,,,,down,0,2.075,,-0.206481481,-0.014814815,1,0,0,0,114,114,119,1,liefje,images/br_liefje.png,images/cb_liefje.png,0,,,,,,,,,,,,,,,,,,,,,,
,,,,,00102,2023-11-13_13h37.06.809,vbt_B2_day4,2022.2.4,Win32,60.0024001,,,,,,down,0,2.5991,,0.065740741,-0.07962963,1,0,0,0,115,115,109,1,totaal,images/br_totaal.png,images/cb_totaal.png,0,,,,,,,,,,,,,,,,,,,,,,
,,,,,00102,2023-11-13_13h37.06.809,vbt_B2_day4,2022.2.4,Win32,60.0024001,,,,,,down,0,0.5506,,0.05462963,-0.090740741,1,0,0,0,116,116,6,1,diep,images/br_diep.png,images/cb_diep.png,0,,,,,,,,,,,,,,,,,,,,,,
,,,,,00102,2023-11-13_13h37.06.809,vbt_B2_day4,2022.2.4,Win32,60.0024001,,,,,,down,0,0.564,,0.05,-0.096296296,1,0,0,0,117,117,77,1,woede,images/br_woede.png,images/cb_woede.png,0,,,,,,,,,,,,,,,,,,,,,,
,,,,,00102,2023-11-13_13h37.06.809,vbt_B2_day4,2022.2.4,Win32,60.0024001,,,,,,down,0,4.8536,,0.089814815,-0.04537037,1,0,0,0,118,118,80,1,kanjer,images/br_kanjer.png,images/cb_kanjer.png,0,,,,,,,,,,,,,,,,,,,,,,
,,,,,00102,2023-11-13_13h37.06.809,vbt_B2_day4,2022.2.4,Win32,60.0024001,,,,,,down,0,1.0499,,0.082407407,-0.060185185,1,0,0,0,119,119,152,1,afnemen,images/br_afnemen.png,images/cb_afnemen.png,0,,,,,,,,,,,,,,,,,,,,,,
,,,,,00102,2023-11-13_13h37.06.809,vbt_B2_day4,2022.2.4,Win32,60.0024001,,,,,,down,0,0.6105,,0.063888889,-0.088888889,1,0,0,0,120,120,158,1,innemen,images/br_innemen.png,images/cb_innemen.png,0,,,,,,,,,,,,,,,,,,,,,,
,,,,,00102,2023-11-13_13h37.06.809,vbt_B2_day4,2022.2.4,Win32,60.0024001,,,,,,down,0,1.2093,,0.059259259,-0.09537037,1,0,0,0,121,121,40,1,schep,images/br_schep.png,images/cb_schep.png,0,,,,,,,,,,,,,,,,,,,,,,
,,,,,00102,2023-11-13_13h37.06.809,vbt_B2_day4,2022.2.4,Win32,60.0024001,,,,,,down,0,1.689,,0.051851852,-0.102777778,1,0,0,0,122,122,45,1,piste,images/br_piste.png,images/cb_piste.png,0,,,,,,,,,,,,,,,,,,,,,,
,,,,,00102,2023-11-13_13h37.06.809,vbt_B2_day4,2022.2.4,Win32,60.0024001,,,,,,down,0,1.5721,,0.048148148,-0.112037037,1,0,0,0,123,123,198,1,bedoelen,images/br_bedoelen.png,images/cb_bedoelen.png,0,,,,,,,,,,,,,,,,,,,,,,
,,,,,00102,2023-11-13_13h37.06.809,vbt_B2_day4,2022.2.4,Win32,60.0024001,,,,,,down,0,7.199,,0.168518519,-0.102777778,1,0,0,0,124,124,179,1,woestijn,images/br_woestijn.png,images/cb_woestijn.png,0,,,,,,,,,,,,,,,,,,,,,,
,,,,,00102,2023-11-13_13h37.06.809,vbt_B2_day4,2022.2.4,Win32,60.0024001,,,,,,down,0,0.4334,,0.024074074,-0.101851852,1,0,0,0,125,125,0,1,slak,images/br_slak.png,images/cb_slak.png,0,,,,,,,,,,,,,,,,,,,,,,
,,,,,00102,2023-11-13_13h37.06.809,vbt_B2_day4,2022.2.4,Win32,60.0024001,,,,,,down,0,0.542,,0.007407407,-0.014814815,1,0,0,0,126,126,8,1,knie,images/br_knie.png,images/cb_knie.png,0,,,,,,,,,,,,,,,,,,,,,,
,,,,,00102,2023-11-13_13h37.06.809,vbt_B2_day4,2022.2.4,Win32,60.0024001,,,,,,down,0,0.0674,,-0.034259259,-0.046296296,1,0,0,0,127,127,16,1,ziek,images/br_ziek.png,images/cb_ziek.png,0,,,,,,,,,,,,,,,,,,,,,,
,,,,,00102,2023-11-13_13h37.06.809,vbt_B2_day4,2022.2.4,Win32,60.0024001,,,,,,down,0,1.1898,,0.12037037,-0.026851852,1,0,0,0,128,128,54,1,gebit,images/br_gebit.png,images/cb_gebit.png,0,,,,,,,,,,,,,,,,,,,,,,
,,,,,00102,2023-11-13_13h37.06.809,vbt_B2_day4,2022.2.4,Win32,60.0024001,,,,,,down,0,0.357,,0.037962963,-0.118518519,1,0,0,0,129,129,75,1,snoep,images/br_snoep.png,images/cb_snoep.png,0,,,,,,,,,,,,,,,,,,,,,,
,,,,,00102,2023-11-13_13h37.06.809,vbt_B2_day4,2022.2.4,Win32,60.0024001,,,,,,down,0,3.8698,,-0.122222222,0.002777778,1,0,0,0,130,130,178,1,huisdier,images/br_huisdier.png,images/cb_huisdier.png,0,,,,,,,,,,,,,,,,,,,,,,
,,,,,00102,2023-11-13_13h37.06.809,vbt_B2_day4,2022.2.4,Win32,60.0024001,,,,,,down,0,1.8299,,0.100925926,-0.060185185,1,0,0,0,131,131,101,1,staren,images/br_staren.png,images/cb_staren.png,0,,,,,,,,,,,,,,,,,,,,,,
,,,,,00102,2023-11-13_13h37.06.809,vbt_B2_day4,2022.2.4,Win32,60.0024001,,,,,,down,0,1.0034,,0.055555556,-0.057407407,1,0,0,0,132,132,123,1,hiervan,images/br_hiervan.png,images/cb_hiervan.png,0,,,,,,,,,,,,,,,,,,,,,,
,,,,,00102,2023-11-13_13h37.06.809,vbt_B2_day4,2022.2.4,Win32,60.0024001,,,,,,down,0,2.0704,,-0.240740741,0.000925926,1,0,0,0,133,133,64,1,wegen,images/br_wegen.png,images/cb_wegen.png,1,wegen,,,,,,,,,,,,,,,,,,,,,
,,,,,00102,2023-11-13_13h37.06.809,vbt_B2_day4,2022.2.4,Win32,60.0024001,,,,,,down,0,2.2173,,-0.221296296,0.005555556,1,0,0,0,134,134,25,1,plek,images/br_plek.png,images/cb_plek.png,1,plek,,,,,,,,,,,,,,,,,,,,,
,,,,,00102,2023-11-13_13h37.06.809,vbt_B2_day4,2022.2.4,Win32,60.0024001,,,,,,down,0,2.9661,,-0.199074074,-0.040740741,1,0,0,0,135,135,26,1,leuk,images/br_leuk.png,images/cb_leuk.png,1,leuk,,,,,,,,,,,,,,,,,,,,,
,,,,,00102,2023-11-13_13h37.06.809,vbt_B2_day4,2022.2.4,Win32,60.0024001,,,,,,down,0,0.4833,,-0.108333333,-0.07962963,1,0,0,0,136,136,126,1,kasteel,images/br_kasteel.png,images/cb_kasteel.png,0,,,,,,,,,,,,,,,,,,,,,,
,,,,,00102,2023-11-13_13h37.06.809,vbt_B2_day4,2022.2.4,Win32,60.0024001,,,,,,down,0,10.9133,,0.001851852,0.081481481,1,0,0,0,137,137,144,1,eetlust,images/br_eetlust.png,images/cb_eetlust.png,1,eetlust,,,,,,,,,,,,,,,,,,,,,
,,,,,00102,2023-11-13_13h37.06.809,vbt_B2_day4,2022.2.4,Win32,60.0024001,,,,,,down,0,5.8448,,0.242592593,0.00462963,1,0,0,0,138,138,193,1,weeshuis,images/br_weeshuis.png,images/cb_weeshuis.png,0,,,,,,,,,,,,,,,,,,,,,,
,,,,,00102,2023-11-13_13h37.06.809,vbt_B2_day4,2022.2.4,Win32,60.0024001,,,,,,down,0,0.6335,,0.080555556,-0.010185185,1,0,0,0,139,139,5,1,blad,images/br_blad.png,images/cb_blad.png,0,,,,,,,,,,,,,,,,,,,,,,
,,,,,00102,2023-11-13_13h37.06.809,vbt_B2_day4,2022.2.4,Win32,60.0024001,,,,,,down,0,0.917,,0.110185185,-0.001851852,1,0,0,0,140,140,63,1,flirt,images/br_flirt.png,images/cb_flirt.png,0,,,,,,,,,,,,,,,,,,,,,,
,,,,,00102,2023-11-13_13h37.06.809,vbt_B2_day4,2022.2.4,Win32,60.0024001,,,,,,down,0,2.3961,,0.108333333,-0.005555556,1,0,0,0,141,141,146,1,opkomen,images/br_opkomen.png,images/cb_opkomen.png,1,opkomen,,,,,,,,,,,,,,,,,,,,,
,,,,,00102,2023-11-13_13h37.06.809,vbt_B2_day4,2022.2.4,Win32,60.0024001,,,,,,down,0,1.441,,0.199074074,-0.019444444,1,0,0,0,142,142,122,1,waarvan,images/br_waarvan.png,images/cb_waarvan.png,0,,,,,,,,,,,,,,,,,,,,,,
,,,,,00102,2023-11-13_13h37.06.809,vbt_B2_day4,2022.2.4,Win32,60.0024001,,,,,,down,0,2.9995,,0.078703704,-0.012037037,1,0,0,0,143,143,87,1,toeval,images/br_toeval.png,images/cb_toeval.png,0,,,,,,,,,,,,,,,,,,,,,,
,,,,,00102,2023-11-13_13h37.06.809,vbt_B2_day4,2022.2.4,Win32,60.0024001,,,,,,down,0,6.5208,,0.097222222,-0.023148148,1,0,0,0,144,144,187,1,opkijken,images/br_opkijken.png,images/cb_opkijken.png,1,opkijken,,,,,,,,,,,,,,,,,,,,,
,,,,,00102,2023-11-13_13h37.06.809,vbt_B2_day4,2022.2.4,Win32,60.0024001,,,,,,down,0,2.2528,,0.137037037,-0.044444444,1,0,0,0,145,145,137,1,trekker,images/br_trekker.png,images/cb_trekker.png,0,,,,,,,,,,,,,,,,,,,,,,
,,,,,00102,2023-11-13_13h37.06.809,vbt_B2_day4,2022.2.4,Win32,60.0024001,,,,,,down,0,0.7056,,0.137962963,-0.026851852,1,0,0,0,146,146,69,1,waken,images/br_waken.png,images/cb_waken.png,0,,,,,,,,,,,,,,,,,,,,,,
,,,,,00102,2023-11-13_13h37.06.809,vbt_B2_day4,2022.2.4,Win32,60.0024001,,,,,,down,0,1.7827,,0.060185185,-0.034259259,1,0,0,0,147,147,33,1,vlek,images/br_vlek.png,images/cb_vlek.png,0,,,,,,,,,,,,,,,,,,,,,,
,,,,,00102,2023-11-13_13h37.06.809,vbt_B2_day4,2022.2.4,Win32,60.0024001,,,,,,down,0,2.5684,,0.202777778,-0.037962963,1,0,0,0,148,148,121,1,twijfel,images/br_twijfel.png,images/cb_twijfel.png,0,,,,,,,,,,,,,,,,,,,,,,
,,,,,00102,2023-11-13_13h37.06.809,vbt_B2_day4,2022.2.4,Win32,60.0024001,,,,,,down,0,0.9404,,0.002777778,0.001851852,1,0,0,0,149,149,48,1,steel,images/br_steel.png,images/cb_steel.png,0,,,,,,,,,,,,,,,,,,,,,,
,,,,,00102,2023-11-13_13h37.06.809,vbt_B2_day4,2022.2.4,Win32,60.0024001,,,,,,down,0,0.9539,,0.188888889,-0.001851852,1,0,0,0,150,150,61,1,groen,images/br_groen.png,images/cb_groen.png,0,,,,,,,,,,,,,,,,,,,,,,
,,,,,00102,2023-11-13_13h37.06.809,vbt_B2_day4,2022.2.4,Win32,60.0024001,,,,,,down,0,1.1404,,0.210185185,0.021296296,1,0,0,0,151,151,90,1,geluid,images/br_geluid.png,images/cb_geluid.png,0,,,,,,,,,,,,,,,,,,,,,,
,,,,,00102,2023-11-13_13h37.06.809,vbt_B2_day4,2022.2.4,Win32,60.0024001,,,,,,down,0,0.2168,,0.094444444,-0.023148148,1,0,0,0,152,152,128,1,prikken,images/br_prikken.png,images/cb_prikken.png,0,,,,,,,,,,,,,,,,,,,,,,
,,,,,00102,2023-11-13_13h37.06.809,vbt_B2_day4,2022.2.4,Win32,60.0024001,,,,,,down,0,1.9658,,0.158333333,-0.033333333,1,0,0,0,153,153,95,1,vreten,images/br_vreten.png,images/cb_vreten.png,0,,,,,,,,,,,,,,,,,,,,,,
,,,,,00102,2023-11-13_13h37.06.809,vbt_B2_day4,2022.2.4,Win32,60.0024001,,,,,,down,0,0.5065,,0.10462963,0.012962963,1,0,0,0,154,154,9,1,hier,images/br_hier.png,images/cb_hier.png,0,,,,,,,,,,,,,,,,,,,,,,
,,,,,00102,2023-11-13_13h37.06.809,vbt_B2_day4,2022.2.4,Win32,60.0024001,,,,,,down,0,1.2689,,0.081481481,0.007407407,1,0,0,0,155,155,7,1,geld,images/br_geld.png,images/cb_geld.png,0,,,,,,,,,,,,,,,,,,,,,,
,,,,,00102,2023-11-13_13h37.06.809,vbt_B2_day4,2022.2.4,Win32,60.0024001,,,,,,down,0,0.1177,,-0.128703704,-0.058333333,1,0,0,0,156,156,113,1,koppen,images/br_koppen.png,images/cb_koppen.png,0,,,,,,,,,,,,,,,,,,,,,,
,,,,,00102,2023-11-13_13h37.06.809,vbt_B2_day4,2022.2.4,Win32,60.0024001,,,,,,down,0,0.1197,,-0.127777778,-0.060185185,1,0,0,0,157,157,62,1,knaap,images/br_knaap.png,images/cb_knaap.png,0,,,,,,,,,,,,,,,,,,,,,,
,,,,,00102,2023-11-13_13h37.06.809,vbt_B2_day4,2022.2.4,Win32,60.0024001,,,,,,down,0,1.0388,,-0.127777778,-0.063888889,1,0,0,0,158,158,19,1,geit,images/br_geit.png,images/cb_geit.png,0,,,,,,,,,,,,,,,,,,,,,,
,,,,,00102,2023-11-13_13h37.06.809,vbt_B2_day4,2022.2.4,Win32,60.0024001,,,,,,down,0,0.0551,,-0.127777778,-0.063888889,1,0,0,0,159,159,38,1,baai,images/br_baai.png,images/cb_baai.png,0,,,,,,,,,,,,,,,,,,,,,,
,,,,,00102,2023-11-13_13h37.06.809,vbt_B2_day4,2022.2.4,Win32,60.0024001,,,,,,down,0,0.7336,,-0.127777778,-0.063888889,1,0,0,0,160,160,41,1,maken,images/br_maken.png,images/cb_maken.png,0,,,,,,,,,,,,,,,,,,,,,,
,,,,,00102,2023-11-13_13h37.06.809,vbt_B2_day4,2022.2.4,Win32,60.0024001,,,,,,down,0,4.3322,,-0.099074074,-0.087962963,1,0,0,0,161,161,135,1,gedicht,images/br_gedicht.png,images/cb_gedicht.png,0,,,,,,,,,,,,,,,,,,,,,,
,,,,,00102,2023-11-13_13h37.06.809,vbt_B2_day4,2022.2.4,Win32,60.0024001,,,,,,down,0,3.1073,,0.069444444,0.348148148,1,0,0,0,162,162,103,1,joggen,images/br_joggen.png,images/cb_joggen.png,0,,,,,,,,,,,,,,,,,,,,,,
,,,,,00102,2023-11-13_13h37.06.809,vbt_B2_day4,2022.2.4,Win32,60.0024001,,,,,,down,0,4.9489,,0.168518519,-0.048148148,1,0,0,0,163,163,131,1,opzicht,images/br_opzicht.png,images/cb_opzicht.png,0,,,,,,,,,,,,,,,,,,,,,,
,,,,,00102,2023-11-13_13h37.06.809,vbt_B2_day4,2022.2.4,Win32,60.0024001,,,,,,down,0,1.3589,,0.165740741,-0.115740741,1,0,0,0,164,164,149,1,redding,images/br_redding.png,images/cb_redding.png,0,,,,,,,,,,,,,,,,,,,,,,
,,,,,00102,2023-11-13_13h37.06.809,vbt_B2_day4,2022.2.4,Win32,60.0024001,,,,,,down,0,0.5506,,0.163888889,-0.115740741,1,0,0,0,165,165,171,1,aarzelen,images/br_aarzelen.png,images/cb_aarzelen.png,0,,,,,,,,,,,,,,,,,,,,,,
,,,,,00102,2023-11-13_13h37.06.809,vbt_B2_day4,2022.2.4,Win32,60.0024001,,,,,,down,0,1.0256,,0.163888889,-0.115740741,1,0,0,0,166,166,53,1,baron,images/br_baron.png,images/cb_baron.png,0,,,,,,,,,,,,,,,,,,,,,,
,,,,,00102,2023-11-13_13h37.06.809,vbt_B2_day4,2022.2.4,Win32,60.0024001,,,,,,down,0,2.1705,,0.176851852,-0.117592593,1,0,0,0,167,167,151,1,aanzoek,images/br_aanzoek.png,images/cb_aanzoek.png,0,,,,,,,,,,,,,,,,,,,,,,
,,,,,00102,2023-11-13_13h37.06.809,vbt_B2_day4,2022.2.4,Win32,60.0024001,,,,,,down,0,1.5191,,0.14537037,-0.053703704,1,0,0,0,168,168,140,1,blijven,images/br_blijven.png,images/cb_blijven.png,0,,,,,,,,,,,,,,,,,,,,,,
,,,,,00102,2023-11-13_13h37.06.809,vbt_B2_day4,2022.2.4,Win32,60.0024001,,,,,,down,0,1.6805,,0.157407407,-0.02962963,1,0,0,0,169,169,157,1,uitlaat,images/br_uitlaat.png,images/cb_uitlaat.png,0,,,,,,,,,,,,,,,,,,,,,,
,,,,,00102,2023-11-13_13h37.06.809,vbt_B2_day4,2022.2.4,Win32,60.0024001,,,,,,down,0,0.0685,,0.203703704,-0.02037037,1,0,0,0,170,170,182,1,bijkomen,images/br_bijkomen.png,images/cb_bijkomen.png,0,,,,,,,,,,,,,,,,,,,,,,
,,,,,00102,2023-11-13_13h37.06.809,vbt_B2_day4,2022.2.4,Win32,60.0024001,,,,,,down,0,6.9564,,0.213888889,-0.000925926,1,0,0,0,171,171,165,1,feestdag,images/br_feestdag.png,images/cb_feestdag.png,0,,,,,,,,,,,,,,,,,,,,,,
,,,,,00102,2023-11-13_13h37.06.809,vbt_B2_day4,2022.2.4,Win32,60.0024001,,,,,,down,0,2.67,,0.078703704,-0.030555556,1,0,0,0,172,172,43,1,klauw,images/br_klauw.png,images/cb_klauw.png,0,,,,,,,,,,,,,,,,,,,,,,
,,,,,00102,2023-11-13_13h37.06.809,vbt_B2_day4,2022.2.4,Win32,60.0024001,,,,,,down,0,0.3121,,0.074074074,-0.02962963,1,0,0,0,173,173,155,1,gerucht,images/br_gerucht.png,images/cb_gerucht.png,0,,,,,,,,,,,,,,,,,,,,,,
,,,,,00102,2023-11-13_13h37.06.809,vbt_B2_day4,2022.2.4,Win32,60.0024001,,,,,,down,0,0.4405,,-0.150925926,-0.041666667,1,0,0,0,174,174,98,1,kreeft,images/br_kreeft.png,images/cb_kreeft.png,0,,,,,,,,,,,,,,,,,,,,,,
,,,,,00102,2023-11-13_13h37.06.809,vbt_B2_day4,2022.2.4,Win32,60.0024001,,,,,,down,0,0.7499,,-0.164814815,-0.071296296,1,0,0,0,175,175,156,1,rechten,images/br_rechten.png,images/cb_rechten.png,0,,,,,,,,,,,,,,,,,,,,,,
,,,,,00102,2023-11-13_13h37.06.809,vbt_B2_day4,2022.2.4,Win32,60.0024001,,,,,,down,0,2.1362,,-0.162037037,-0.092592593,1,0,0,0,176,176,189,1,aanraden,images/br_aanraden.png,images/cb_aanraden.png,0,,,,,,,,,,,,,,,,,,,,,,
,,,,,00102,2023-11-13_13h37.06.809,vbt_B2_day4,2022.2.4,Win32,60.0024001,,,,,,down,0,0.9696,,0.005555556,-0.047222222,1,0,0,0,177,177,10,1,leek,images/br_leek.png,images/cb_leek.png,0,,,,,,,,,,,,,,,,,,,,,,
,,,,,00102,2023-11-13_13h37.06.809,vbt_B2_day4,2022.2.4,Win32,60.0024001,,,,,,down,0,1.0089,,0.255555556,-0.028703704,1,0,0,0,178,178,142,1,snuiven,images/br_snuiven.png,images/cb_snuiven.png,0,,,,,,,,,,,,,,,,,,,,,,
,,,,,00102,2023-11-13_13h37.06.809,vbt_B2_day4,2022.2.4,Win32,60.0024001,,,,,,down,0,2.2187,,0.091666667,0.022222222,1,0,0,0,179,179,125,1,aanzien,images/br_aanzien.png,images/cb_aanzien.png,0,,,,,,,,,,,,,,,,,,,,,,
,,,,,00102,2023-11-13_13h37.06.809,vbt_B2_day4,2022.2.4,Win32,60.0024001,,,,,,down,0,2.1141,,0.008333333,-0.010185185,1,0,0,0,180,180,166,1,strikken,images/br_strikken.png,images/cb_strikken.png,0,,,,,,,,,,,,,,,,,,,,,,
,,,,,00102,2023-11-13_13h37.06.809,vbt_B2_day4,2022.2.4,Win32,60.0024001,,,,,,down,0,2.6192,,-0.04537037,-0.025925926,1,0,0,0,181,181,20,1,site,images/br_site.png,images/cb_site.png,0,,,,,,,,,,,,,,,,,,,,,,
,,,,,00102,2023-11-13_13h37.06.809,vbt_B2_day4,2022.2.4,Win32,60.0024001,,,,,,down,0,0.4002,,-0.052777778,0.014814815,1,0,0,0,182,182,57,1,steek,images/br_steek.png,images/cb_steek.png,0,,,,,,,,,,,,,,,,,,,,,,
,,,,,00102,2023-11-13_13h37.06.809,vbt_B2_day4,2022.2.4,Win32,60.0024001,,,,,,down,0,0.0339,,-0.144444444,-0.016666667,1,0,0,0,183,183,76,1,afval,images/br_afval.png,images/cb_afval.png,0,,,,,,,,,,,,,,,,,,,,,,
,,,,,00102,2023-11-13_13h37.06.809,vbt_B2_day4,2022.2.4,Win32,60.0024001,,,,,,down,0,2.6915,,-0.124074074,0.012962963,1,0,0,0,184,184,104,1,zweven,images/br_zweven.png,images/cb_zweven.png,1,zwever,,,,,,,,,,,,,,,,,,,,,
,,,,,00102,2023-11-13_13h37.06.809,vbt_B2_day4,2022.2.4,Win32,60.0024001,,,,,,down,0,0.2368,,-0.125,0.015740741,1,0,0,0,185,185,197,1,spanning,images/br_spanning.png,images/cb_spanning.png,0,,,,,,,,,,,,,,,,,,,,,,
,,,,,00102,2023-11-13_13h37.06.809,vbt_B2_day4,2022.2.4,Win32,60.0024001,,,,,,down,0,2.9284,,0.112962963,-0.001851852,1,0,0,0,186,186,191,1,opheffen,images/br_opheffen.png,images/cb_opheffen.png,0,,,,,,,,,,,,,,,,,,,,,,
,,,,,00102,2023-11-13_13h37.06.809,vbt_B2_day4,2022.2.4,Win32,60.0024001,,,,,,down,0,0.5609,,0.052777778,-0.002777778,1,0,0,0,187,187,4,1,moes,images/br_moes.png,images/cb_moes.png,0,,,,,,,,,,,,,,,,,,,,,,
,,,,,00102,2023-11-13_13h37.06.809,vbt_B2_day4,2022.2.4,Win32,60.0024001,,,,,,down,0,1.2002,,0.00462963,0.081481481,1,0,0,0,188,188,139,1,stiekem,images/br_stiekem.png,images/cb_stiekem.png,0,,,,,,,,,,,,,,,,,,,,,,
,,,,,00102,2023-11-13_13h37.06.809,vbt_B2_day4,2022.2.4,Win32,60.0024001,,,,,,down,0,0.0005,,-0.007407407,0.085185185,1,0,0,0,189,189,177,1,maaltijd,images/br_maaltijd.png,images/cb_maaltijd.png,0,,,,,,,,,,,,,,,,,,,,,,
,,,,,00102,2023-11-13_13h37.06.809,vbt_B2_day4,2022.2.4,Win32,60.0024001,,,,,,down,0,0.5674,,0.136111111,0.063888889,1,0,0,0,190,190,176,1,techniek,images/br_techniek.png,images/cb_techniek.png,0,,,,,,,,,,,,,,,,,,,,,,
,,,,,00102,2023-11-13_13h37.06.809,vbt_B2_day4,2022.2.4,Win32,60.0024001,,,,,,down,0,4.9416,,0.02962963,-0.003703704,1,0,0,0,191,191,120,1,klimmen,images/br_klimmen.png,images/cb_klimmen.png,0,,,,,,,,,,,,,,,,,,,,,,
,,,,,00102,2023-11-13_13h37.06.809,vbt_B2_day4,2022.2.4,Win32,60.0024001,,,,,,down,0,4.5472,,0.281481481,-0.076851852,1,0,0,0,192,192,88,1,boeien,images/br_boeien.png,images/cb_boeien.png,0,,,,,,,,,,,,,,,,,,,,,,
,,,,,00102,2023-11-13_13h37.06.809,vbt_B2_day4,2022.2.4,Win32,60.0024001,,,,,,down,0,1.9768,,0.247222222,-0.051851852,1,0,0,0,193,193,83,1,mening,images/br_mening.png,images/cb_mening.png,0,,,,,,,,,,,,,,,,,,,,,,
,,,,,00102,2023-11-13_13h37.06.809,vbt_B2_day4,2022.2.4,Win32,60.0024001,,,,,,down,0,2.1164,,0.216666667,-0.053703704,1,0,0,0,194,194,27,1,dans,images/br_dans.png,images/cb_dans.png,1,dans,,,,,,,,,,,,,,,,,,,,,
,,,,,00102,2023-11-13_13h37.06.809,vbt_B2_day4,2022.2.4,Win32,60.0024001,,,,,,down,0,0.5338,,-0.10462963,-0.012962963,1,0,0,0,195,195,52,1,wagon,images/br_wagon.png,images/cb_wagon.png,0,,,,,,,,,,,,,,,,,,,,,,
,,,,,00102,2023-11-13_13h37.06.809,vbt_B2_day4,2022.2.4,Win32,60.0024001,,,,,,down,0,0.6366,,-0.111111111,-0.013888889,1,0,0,0,196,196,124,1,bloeien,images/br_bloeien.png,images/cb_bloeien.png,0,,,,,,,,,,,,,,,,,,,,,,
,,,,,00102,2023-11-13_13h37.06.809,vbt_B2_day4,2022.2.4,Win32,60.0024001,,,,,,down,0,5.1554,,-0.118518519,-0.02962963,0,1,0,0,197,197,130,1,keihard,images/br_keihard.png,images/cb_keihard.png,0,,,,,,,,,,,,,,,,,,,,,,
,,,,,00102,2023-11-13_13h37.06.809,vbt_B2_day4,2022.2.4,Win32,60.0024001,,,,,,down,0,8.7998,,0.372222222,-0.15,1,0,0,0,198,198,147,1,komisch,images/br_komisch.png,images/cb_komisch.png,1,komisch,,,,,,,,,,,,,,,,,,,,,
,,,,,00102,2023-11-13_13h37.06.809,vbt_B2_day4,2022.2.4,Win32,60.0024001,,,,,,down,0,3.0872,,0.213888889,0.139814815,1,0,0,0,199,199,105,1,wijlen,images/br_wijlen.png,images/cb_wijlen.png,1,wijlen,,,,,,,,,,,,,,,,,,,,,
,,,,,00102,2023-11-13_13h37.06.809,vbt_B2_day4,2022.2.4,Win32,60.0024001,,,,,,,,,,,,,,,,,,,,,,,,,0.020942408,-0.040314136,1,0,0,,,,,,,,,,,,,,,,
,,,,,00102,2023-11-13_13h37.06.809,vbt_B2_day4,2022.2.4,Win32,60.0024001,,,,,,,,,,,,,,,,,,,,,,,,,,,,,,-0.172774869,-0.064397906,1,0,0,,,,,,,,,,,
,,,,,00102,2023-11-13_13h37.06.809,vbt_B2_day4,2022.2.4,Win32,60.0024001,,,,,,,,,,,,,,,,,,,,broodje,images/br_broodje.png,images/cb_broodje.png,,broo'',,,,,,,,,,,0.122513089,-0.037172775,1,0,0,broo'',0,0,0,55,1
,,,,,00102,2023-11-13_13h37.06.809,vbt_B2_day4,2022.2.4,Win32,60.0024001,,,,,,,,,,,,,,,,,,,,zwek,images/br_zwek.png,images/cb_zwek.png,,zwek,,,,,,,,,,,0.092146597,-0.019371728,1,0,0,zwek,0,1,1,20,1
,,,,,00102,2023-11-13_13h37.06.809,vbt_B2_day4,2022.2.4,Win32,60.0024001,,,,,,,,,,,,,,,,,,,,paalbaak,images/br_paalbaak.png,images/cb_paalbaak.png,,paalbak,,,,,,,,,,,-0.013612565,-0.037172775,1,0,0,paalbak,0,2,2,39,1
,,,,,00102,2023-11-13_13h37.06.809,vbt_B2_day4,2022.2.4,Win32,60.0024001,,,,,,,,,,,,,,,,,,,,geliefd,images/br_geliefd.png,images/cb_geliefd.png,,geliefd,,,,,,,,,,,0.059685864,-0.022513089,1,0,0,geliefd,0,3,3,14,1
,,,,,00102,2023-11-13_13h37.06.809,vbt_B2_day4,2022.2.4,Win32,60.0024001,,,,,,,,,,,,,,,,,,,,gedicht,images/br_gedicht.png,images/cb_gedicht.png,,gedicht,,,,,,,,,,,0.183246073,-0.045549738,1,0,0,gedicht,0,4,4,15,1
,,,,,00102,2023-11-13_13h37.06.809,vbt_B2_day4,2022.2.4,Win32,60.0024001,,,,,,,,,,,,,,,,,,,,flippen,images/br_flippen.png,images/cb_flippen.png,,flippen,,,,,,,,,,,0.264921466,-0.17434555,1,0,0,flippen,0,5,5,54,1
,,,,,00102,2023-11-13_13h37.06.809,vbt_B2_day4,2022.2.4,Win32,60.0024001,,,,,,,,,,,,,,,,,,,,lappen,images/br_lappen.png,images/cb_lappen.png,,lappen,,,,,,,,,,,-0.14973822,-0.036125654,1,0,0,lappen,0,6,6,49,1
,,,,,00102,2023-11-13_13h37.06.809,vbt_B2_day4,2022.2.4,Win32,60.0024001,,,,,,,,,,,,,,,,,,,,bisschap,images/br_bisschap.png,images/cb_bisschap.png,,bisschop,,,,,,,,,,,0.216753927,-0.041361257,1,0,0,bisschop,0,7,7,36,1
,,,,,00102,2023-11-13_13h37.06.809,vbt_B2_day4,2022.2.4,Win32,60.0024001,,,,,,,,,,,,,,,,,,,,aanzwaag,images/br_aanzwaag.png,images/cb_aanzwaag.png,,aanzwaag,,,,,,,,,,,0.236649215,-0.021465969,1,0,0,aanzwaag,0,8,8,38,1
,,,,,00102,2023-11-13_13h37.06.809,vbt_B2_day4,2022.2.4,Win32,60.0024001,,,,,,,,,,,,,,,,,,,,wagon,images/br_wagon.png,images/cb_wagon.png,,wagon,,,,,,,,,,,0.145549738,-0.023560209,1,0,0,wagon,0,9,9,4,1
,,,,,00102,2023-11-13_13h37.06.809,vbt_B2_day4,2022.2.4,Win32,60.0024001,,,,,,,,,,,,,,,,,,,,drummer,images/br_drummer.png,images/cb_drummer.png,,drummen,,,,,,,,,,,0.211518325,-0.081151832,1,0,0,drummen,0,10,10,53,1
,,,,,00102,2023-11-13_13h37.06.809,vbt_B2_day4,2022.2.4,Win32,60.0024001,,,,,,,,,,,,,,,,,,,,drooien,images/br_drooien.png,images/cb_drooien.png,,drooien,,,,,,,,,,,0.119371728,-0.00052356,1,0,0,drooien,0,11,11,32,1
,,,,,00102,2023-11-13_13h37.06.809,vbt_B2_day4,2022.2.4,Win32,60.0024001,,,,,,,,,,,,,,,,,,,,grappen,images/br_grappen.png,images/cb_grappen.png,,grappen,,,,,,,,,,,0.234554974,-0.042408377,1,0,0,grappen,0,12,12,12,1
,,,,,00102,2023-11-13_13h37.06.809,vbt_B2_day4,2022.2.4,Win32,60.0024001,,,,,,,,,,,,,,,,,,,,weigeren,images/br_weigeren.png,images/cb_weigeren.png,,weigeren,,,,,,,,,,,0.280628272,-0.063350785,1,0,0,weigeren,0,13,13,16,1
,,,,,00102,2023-11-13_13h37.06.809,vbt_B2_day4,2022.2.4,Win32,60.0024001,,,,,,,,,,,,,,,,,,,,gaan,images/br_gaan.png,images/cb_gaan.png,,gaan,,,,,,,,,,,0.094240838,-0.013089005,1,0,0,gaan,0,14,14,41,1
,,,,,00102,2023-11-13_13h37.06.809,vbt_B2_day4,2022.2.4,Win32,60.0024001,,,,,,,,,,,,,,,,,,,,soda,images/br_soda.png,images/cb_soda.png,,soda,,,,,,,,,,,0.157068063,-0.041361257,1,0,0,soda,0,15,15,3,1
,,,,,00102,2023-11-13_13h37.06.809,vbt_B2_day4,2022.2.4,Win32,60.0024001,,,,,,,,,,,,,,,,,,,,steen,images/br_steen.png,images/cb_steen.png,,steen,,,,,,,,,,,0.123560209,0.013089005,1,0,0,steen,0,16,16,44,1
,,,,,00102,2023-11-13_13h37.06.809,vbt_B2_day4,2022.2.4,Win32,60.0024001,,,,,,,,,,,,,,,,,,,,praat,images/br_praat.png,images/cb_praat.png,,praat,,,,,,,,,,,0.115183246,-0.013089005,1,0,0,praat,0,17,17,7,1
,,,,,00102,2023-11-13_13h37.06.809,vbt_B2_day4,2022.2.4,Win32,60.0024001,,,,,,,,,,,,,,,,,,,,ezel,images/br_ezel.png,images/cb_ezel.png,,ezel,,,,,,,,,,,0.080628272,-0.037172775,1,0,0,ezel,0,18,18,42,1
,,,,,00102,2023-11-13_13h37.06.809,vbt_B2_day4,2022.2.4,Win32,60.0024001,,,,,,,,,,,,,,,,,,,,kaal,images/br_kaal.png,images/cb_kaal.png,,kaal,,,,,,,,,,,0.140314136,-0.1,1,0,0,kaal,0,19,19,1,1
,,,,,00102,2023-11-13_13h37.06.809,vbt_B2_day4,2022.2.4,Win32,60.0024001,,,,,,,,,,,,,,,,,,,,gebit,images/br_gebit.png,images/cb_gebit.png,,gebit,,,,,,,,,,,0.143455497,-0.004712042,1,0,0,gebit,0,20,20,6,1
,,,,,00102,2023-11-13_13h37.06.809,vbt_B2_day4,2022.2.4,Win32,60.0024001,,,,,,,,,,,,,,,,,,,,vreten,images/br_vreten.png,images/cb_vreten.png,,vreten,,,,,,,,,,,0.020942408,-0.022513089,1,0,0,vreten,0,21,21,11,1
,,,,,00102,2023-11-13_13h37.06.809,vbt_B2_day4,2022.2.4,Win32,60.0024001,,,,,,,,,,,,,,,,,,,,zaalrijk,images/br_zaalrijk.png,images/cb_zaalrijk.png,,waalrijk,,,,,,,,,,,0.246073298,-0.030890052,1,0,0,waalrijk,0,22,22,37,1
,,,,,00102,2023-11-13_13h37.06.809,vbt_B2_day4,2022.2.4,Win32,60.0024001,,,,,,,,,,,,,,,,,,,,schenden,images/br_schenden.png,images/cb_schenden.png,,schenden,,,,,,,,,,,0.146596859,0.022513089,1,0,0,schenden,0,23,23,57,1
,,,,,00102,2023-11-13_13h37.06.809,vbt_B2_day4,2022.2.4,Win32,60.0024001,,,,,,,,,,,,,,,,,,,,oceaan,images/br_oceaan.png,images/cb_oceaan.png,,oceaan,,,,,,,,,,,-0.112041885,0.023560209,1,0,0,oceaan,0,24,24,10,1
,,,,,00102,2023-11-13_13h37.06.809,vbt_B2_day4,2022.2.4,Win32,60.0024001,,,,,,,,,,,,,,,,,,,,gebog,images/br_gebog.png,images/cb_gebog.png,,gebog,,,,,,,,,,,-0.018848168,-0.20052356,1,0,0,gebog,0,25,25,24,1
,,,,,00102,2023-11-13_13h37.06.809,vbt_B2_day4,2022.2.4,Win32,60.0024001,,,,,,,,,,,,,,,,,,,,opkicht,images/br_opkicht.png,images/cb_opkicht.png,,opkicht,,,,,,,,,,,0.135078534,0.001570681,1,0,0,opkicht,0,26,26,34,1
,,,,,00102,2023-11-13_13h37.06.809,vbt_B2_day4,2022.2.4,Win32,60.0024001,,,,,,,,,,,,,,,,,,,,geheim,images/br_geheim.png,images/cb_geheim.png,,geheim,,,,,,,,,,,0.145549738,0.001570681,1,0,0,geheim,0,27,27,8,1
,,,,,00102,2023-11-13_13h37.06.809,vbt_B2_day4,2022.2.4,Win32,60.0024001,,,,,,,,,,,,,,,,,,,,toevol,images/br_toevol.png,images/cb_toevol.png,,toevol,,,,,,,,,,,0.160209424,-0.019371728,1,0,0,toevol,0,28,28,29,1
,,,,,00102,2023-11-13_13h37.06.809,vbt_B2_day4,2022.2.4,Win32,60.0024001,,,,,,,,,,,,,,,,,,,,pijnlijk,images/br_pijnlijk.png,images/cb_pijnlijk.png,,pij'',,,,,,,,,,,-0.080628272,-0.048691099,1,0,0,pij'',0,29,29,58,1
,,,,,00102,2023-11-13_13h37.06.809,vbt_B2_day4,2022.2.4,Win32,60.0024001,,,,,,,,,,,,,,,,,,,,dalen,images/br_dalen.png,images/cb_dalen.png,,dalen,,,,,,,,,,,0.138219895,-0.068586387,1,0,0,dalen,0,30,30,46,1
,,,,,00102,2023-11-13_13h37.06.809,vbt_B2_day4,2022.2.4,Win32,60.0024001,,,,,,,,,,,,,,,,,,,,heengaan,images/br_heengaan.png,images/cb_heengaan.png,,heengaan,,,,,,,,,,,0.192670157,-0.021465969,1,0,0,heengaan,0,31,31,19,1
,,,,,00102,2023-11-13_13h37.06.809,vbt_B2_day4,2022.2.4,Win32,60.0024001,,,,,,,,,,,,,,,,,,,,stemming,images/br_stemming.png,images/cb_stemming.png,,stemming,,,,,,,,,,,0.270157068,-0.021465969,1,0,0,stemming,0,32,32,18,1
,,,,,00102,2023-11-13_13h37.06.809,vbt_B2_day4,2022.2.4,Win32,60.0024001,,,,,,,,,,,,,,,,,,,,strok,images/br_strok.png,images/cb_strok.png,,strok,,,,,,,,,,,0.144502618,-0.028795812,1,0,0,strok,0,33,33,25,1
,,,,,00102,2023-11-13_13h37.06.809,vbt_B2_day4,2022.2.4,Win32,60.0024001,,,,,,,,,,,,,,,,,,,,gijf,images/br_gijf.png,images/cb_gijf.png,,gijf,,,,,,,,,,,-0.114136126,-0.028795812,1,0,0,gijf,0,34,34,23,1
,,,,,00102,2023-11-13_13h37.06.809,vbt_B2_day4,2022.2.4,Win32,60.0024001,,,,,,,,,,,,,,,,,,,,wozing,images/br_wozing.png,images/cb_wozing.png,,woz'',,,,,,,,,,,-0.023036649,-0.001570681,1,0,0,woz'',0,35,35,28,1
,,,,,00102,2023-11-13_13h37.06.809,vbt_B2_day4,2022.2.4,Win32,60.0024001,,,,,,,,,,,,,,,,,,,,warel,images/br_warel.png,images/cb_warel.png,,warel,,,,,,,,,,,0.127748691,-0.037172775,1,0,0,warel,0,36,36,26,1
,,,,,00102,2023-11-13_13h37.06.809,vbt_B2_day4,2022.2.4,Win32,60.0024001,,,,,,,,,,,,,,,,,,,,rijp,images/br_rijp.png,images/cb_rijp.png,,rijp,,,,,,,,,,,0.114136126,-0.014136126,1,0,0,rijp,0,37,37,2,1
,,,,,00102,2023-11-13_13h37.06.809,vbt_B2_day4,2022.2.4,Win32,60.0024001,,,,,,,,,,,,,,,,,,,,getucht,images/br_getucht.png,images/cb_getucht.png,,getui',,,,,,,,,,,0.193717277,-0.090575916,1,0,0,getui',0,38,38,35,1
,,,,,00102,2023-11-13_13h37.06.809,vbt_B2_day4,2022.2.4,Win32,60.0024001,,,,,,,,,,,,,,,,,,,,mekst,images/br_mekst.png,images/cb_mekst.png,,mekst,,,,,,,,,,,0.144502618,-0.016230366,1,0,0,mekst,0,39,39,27,1
,,,,,00102,2023-11-13_13h37.06.809,vbt_B2_day4,2022.2.4,Win32,60.0024001,,,,,,,,,,,,,,,,,,,,tucket,images/br_tucket.png,images/cb_tucket.png,,sucken,,,,,,,,,,,0.156020942,-0.007853403,1,0,0,sucken,0,40,40,30,1
,,,,,00102,2023-11-13_13h37.06.809,vbt_B2_day4,2022.2.4,Win32,60.0024001,,,,,,,,,,,,,,,,,,,,noodzaak,images/br_noodzaak.png,images/cb_noodzaak.png,,noodzaak,,,,,,,,,,,0.033507853,-0.020418848,1,0,0,noodzaak,0,41,41,56,1
,,,,,00102,2023-11-13_13h37.06.809,vbt_B2_day4,2022.2.4,Win32,60.0024001,,,,,,,,,,,,,,,,,,,,gaaf,images/br_gaaf.png,images/cb_gaaf.png,,gaaf,,,,,,,,,,,0.081675393,-0.00052356,1,0,0,gaaf,0,42,42,43,1
,,,,,00102,2023-11-13_13h37.06.809,vbt_B2_day4,2022.2.4,Win32,60.0024001,,,,,,,,,,,,,,,,,,,,pittig,images/br_pittig.png,images/cb_pittig.png,,pittig,,,,,,,,,,,0.185340314,-0.003664921,1,0,0,pittig,0,43,43,51,1
,,,,,00102,2023-11-13_13h37.06.809,vbt_B2_day4,2022.2.4,Win32,60.0024001,,,,,,,,,,,,,,,,,,,,haza,images/br_haza.png,images/cb_haza.png,,haza,,,,,,,,,,,0.036649215,-0.014136126,1,0,0,haza,0,44,44,21,1
,,,,,00102,2023-11-13_13h37.06.809,vbt_B2_day4,2022.2.4,Win32,60.0024001,,,,,,,,,,,,,,,,,,,,dozijn,images/br_dozijn.png,images/cb_dozijn.png,,dozijn,,,,,,,,,,,-0.262827225,0.154450262,1,0,0,dozijn,0,45,45,48,1
,,,,,00102,2023-11-13_13h37.06.809,vbt_B2_day4,2022.2.4,Win32,60.0024001,,,,,,,,,,,,,,,,,,,,eerst,images/br_eerst.png,images/cb_eerst.png,,eerst,,,,,,,,,,,0.143455497,-0.052879581,1,0,0,eerst,0,46,46,47,1
,,,,,00102,2023-11-13_13h37.06.809,vbt_B2_day4,2022.2.4,Win32,60.0024001,,,,,,,,,,,,,,,,,,,,apparaat,images/br_apparaat.png,images/cb_apparaat.png,,apparaat,,,,,,,,,,,0.112041885,-0.041361257,1,0,0,apparaat,0,47,47,17,1
,,,,,00102,2023-11-13_13h37.06.809,vbt_B2_day4,2022.2.4,Win32,60.0024001,,,,,,,,,,,,,,,,,,,,sulbon,images/br_sulbon.png,images/cb_sulbon.png,,sulb',,,,,,,,,,,0.017801047,-0.019371728,1,0,0,sulb',0,48,48,31,1
,,,,,00102,2023-11-13_13h37.06.809,vbt_B2_day4,2022.2.4,Win32,60.0024001,,,,,,,,,,,,,,,,,,,,fran,images/br_fran.png,images/cb_fran.png,,fran,,,,,,,,,,,0.118324607,-0.038219895,1,0,0,fran,0,49,49,22,1
,,,,,00102,2023-11-13_13h37.06.809,vbt_B2_day4,2022.2.4,Win32,60.0024001,,,,,,,,,,,,,,,,,,,,kust,images/br_kust.png,images/cb_kust.png,,kust,,,,,,,,,,,0.252356021,-0.07486911,1,0,0,kust,0,50,50,0,1
,,,,,00102,2023-11-13_13h37.06.809,vbt_B2_day4,2022.2.4,Win32,60.0024001,,,,,,,,,,,,,,,,,,,,midden,images/br_midden.png,images/cb_midden.png,,midden,,,,,,,,,,,0.183246073,-0.009947644,1,0,0,midden,0,51,51,50,1
,,,,,00102,2023-11-13_13h37.06.809,vbt_B2_day4,2022.2.4,Win32,60.0024001,,,,,,,,,,,,,,,,,,,,snee,images/br_snee.png,images/cb_snee.png,,snee,,,,,,,,,,,0.058638743,-0.010994764,1,0,0,snee,0,52,52,40,1
,,,,,00102,2023-11-13_13h37.06.809,vbt_B2_day4,2022.2.4,Win32,60.0024001,,,,,,,,,,,,,,,,,,,,opruimen,images/br_opruimen.png,images/cb_opruimen.png,,opruimen,,,,,,,,,,,0.203141361,-0.066492147,1,0,0,opruimen,0,53,53,59,1
,,,,,00102,2023-11-13_13h37.06.809,vbt_B2_day4,2022.2.4,Win32,60.0024001,,,,,,,,,,,,,,,,,,,,seizoen,images/br_seizoen.png,images/cb_seizoen.png,,seizoen,,,,,,,,,,,0.194764398,-0.009947644,1,0,0,seizoen,0,54,54,13,1
,,,,,00102,2023-11-13_13h37.06.809,vbt_B2_day4,2022.2.4,Win32,60.0024001,,,,,,,,,,,,,,,,,,,,waarop,images/br_waarop.png,images/cb_waarop.png,,waarop,,,,,,,,,,,0.183246073,-0.030890052,1,0,0,waarop,0,55,55,9,1
,,,,,00102,2023-11-13_13h37.06.809,vbt_B2_day4,2022.2.4,Win32,60.0024001,,,,,,,,,,,,,,,,,,,,schotel,images/br_schotel.png,images/cb_schotel.png,,schotel,,,,,,,,,,,0.14973822,-0.013089005,1,0,0,schotel,0,56,56,52,1
,,,,,00102,2023-11-13_13h37.06.809,vbt_B2_day4,2022.2.4,Win32,60.0024001,,,,,,,,,,,,,,,,,,,,baron,images/br_baron.png,images/cb_baron.png,,baron,,,,,,,,,,,0.07434555,-0.034031414,1,0,0,baron,0,57,57,5,1
,,,,,00102,2023-11-13_13h37.06.809,vbt_B2_day4,2022.2.4,Win32,60.0024001,,,,,,,,,,,,,,,,,,,,seizoon,images/br_seizoon.png,images/cb_seizoon.png,,seizoon,,,,,,,,,,,0.478534031,-0.023560209,1,0,0,seizoon,0,58,58,33,1
,,,,,00102,2023-11-13_13h37.06.809,vbt_B2_day4,2022.2.4,Win32,60.0024001,,,,,,,,,,,,,,,,,,,,bruin,images/br_bruin.png,images/cb_bruin.png,,bereuk,,,,,,,,,,,0.14973822,-0.027748691,1,0,0,bereuk,0,59,59,45,1
,,,,,00102,2023-11-13_13h37.06.809,vbt_B2_day4,2022.2.4,Win32,60.0024001,,,,,,,,,,,,,,,,,,,,,,,,,,,,,,,,,,,,,,,,,,,,,
