welcome_mouse.x,welcome_mouse.y,welcome_mouse.leftButton,welcome_mouse.midButton,welcome_mouse.rightButton,"ID",date,expName,psychopyVersion,OS,frameRate,trainInstr_mouse.x,trainInstr_mouse.y,trainInstr_mouse.leftButton,trainInstr_mouse.midButton,trainInstr_mouse.rightButton,translation_key.keys,translation_key.corr,translation_key.rt,word_rsp.text,trWrd_mouse.x,trWrd_mouse.y,trWrd_mouse.leftButton,trWrd_mouse.midButton,trWrd_mouse.rightButton,train_loop.thisRepN,train_loop.thisTrialN,train_loop.thisN,train_loop.thisIndex,train_loop.ran,nlWrd,brWrd,cbWrd,test,testResp,mouse.x,mouse.y,mouse.leftButton,mouse.midButton,mouse.rightButton,testInstr_mouse.x,testInstr_mouse.y,testInstr_mouse.leftButton,testInstr_mouse.midButton,testInstr_mouse.rightButton,test_mouse.x,test_mouse.y,test_mouse.leftButton,test_mouse.midButton,test_mouse.rightButton,test_response.text,test_loop.thisRepN,test_loop.thisTrialN,test_loop.thisN,test_loop.thisIndex,test_loop.ran
-0.166666667,-0.251851894,1,0,0,00113,2023-12-14_16h08.27.448,vbt_B2_day4,2022.2.4,Win32,60.43026348,,,,,,,,,,,,,,,,,,,,,,,,,,,,,,,,,,,,,,,,,,,,,
,,,,,00113,2023-12-14_16h08.27.448,vbt_B2_day4,2022.2.4,Win32,60.43026348,-0.166666667,-0.251851894,1,0,0,,,,,,,,,,,,,,,,,,,,,,,,,,,,,,,,,,,,,,,,
,,,,,00113,2023-12-14_16h08.27.448,vbt_B2_day4,2022.2.4,Win32,60.43026348,,,,,,down,0,2.9161,,-0.166666667,-0.251851894,1,0,0,0,0,0,61,1,groen,images/br_groen.png,images/cb_groen.png,0,,,,,,,,,,,,,,,,,,,,,,
,,,,,00113,2023-12-14_16h08.27.448,vbt_B2_day4,2022.2.4,Win32,60.43026348,,,,,,down,0,1.3362,,-0.166666667,-0.251851894,1,0,0,0,1,1,78,1,leren,images/br_leren.png,images/cb_leren.png,0,,,,,,,,,,,,,,,,,,,,,,
,,,,,00113,2023-12-14_16h08.27.448,vbt_B2_day4,2022.2.4,Win32,60.43026348,,,,,,down,0,1.8479,,-0.166666667,-0.251851894,1,0,0,0,2,2,144,1,eetlust,images/br_eetlust.png,images/cb_eetlust.png,1,eetlust,,,,,,,,,,,,,,,,,,,,,
,,,,,00113,2023-12-14_16h08.27.448,vbt_B2_day4,2022.2.4,Win32,60.43026348,,,,,,down,0,1.2185,,-0.166666667,-0.251851894,1,0,0,0,3,3,58,1,tekst,images/br_tekst.png,images/cb_tekst.png,0,,,,,,,,,,,,,,,,,,,,,,
,,,,,00113,2023-12-14_16h08.27.448,vbt_B2_day4,2022.2.4,Win32,60.43026348,,,,,,down,0,0.8097,,-0.166666667,-0.251851894,1,0,0,0,4,4,45,1,piste,images/br_piste.png,images/cb_piste.png,0,,,,,,,,,,,,,,,,,,,,,,
,,,,,00113,2023-12-14_16h08.27.448,vbt_B2_day4,2022.2.4,Win32,60.43026348,,,,,,down,0,0.8065,,-0.166666667,-0.251851894,1,0,0,0,5,5,91,1,gezond,images/br_gezond.png,images/cb_gezond.png,0,,,,,,,,,,,,,,,,,,,,,,
,,,,,00113,2023-12-14_16h08.27.448,vbt_B2_day4,2022.2.4,Win32,60.43026348,,,,,,down,0,1.0847,,-0.166666667,-0.251851894,1,0,0,0,6,6,132,1,grappen,images/br_grappen.png,images/cb_grappen.png,0,,,,,,,,,,,,,,,,,,,,,,
,,,,,00113,2023-12-14_16h08.27.448,vbt_B2_day4,2022.2.4,Win32,60.43026348,,,,,,down,0,4.2639,,-0.166666667,-0.251851894,1,0,0,0,7,7,67,1,zwart,images/br_zwart.png,images/cb_zwart.png,1,zwart,,,,,,,,,,,,,,,,,,,,,
,,,,,00113,2023-12-14_16h08.27.448,vbt_B2_day4,2022.2.4,Win32,60.43026348,,,,,,down,0,3.4139,,-0.166666667,-0.251851894,1,0,0,0,8,8,111,1,ticket,images/br_ticket.png,images/cb_ticket.png,0,,,,,,,,,,,,,,,,,,,,,,
,,,,,00113,2023-12-14_16h08.27.448,vbt_B2_day4,2022.2.4,Win32,60.43026348,,,,,,down,0,3.7219,,-0.166666667,-0.251851894,1,0,0,0,9,9,90,1,geluid,images/br_geluid.png,images/cb_geluid.png,0,,,,,,,,,,,,,,,,,,,,,,
,,,,,00113,2023-12-14_16h08.27.448,vbt_B2_day4,2022.2.4,Win32,60.43026348,,,,,,down,0,1.4493,,-0.166666667,-0.251851894,1,0,0,0,10,10,134,1,geliefd,images/br_geliefd.png,images/cb_geliefd.png,0,,,,,,,,,,,,,,,,,,,,,,
,,,,,00113,2023-12-14_16h08.27.448,vbt_B2_day4,2022.2.4,Win32,60.43026348,,,,,,down,0,0.39,,-0.166666667,-0.251851894,1,0,0,0,11,11,65,1,parel,images/br_parel.png,images/cb_parel.png,1,parel,,,,,,,,,,,,,,,,,,,,,
,,,,,00113,2023-12-14_16h08.27.448,vbt_B2_day4,2022.2.4,Win32,60.43026348,,,,,,down,0,8.6356,,-0.166666667,-0.251851894,1,0,0,0,12,12,121,1,twijfel,images/br_twijfel.png,images/cb_twijfel.png,0,,,,,,,,,,,,,,,,,,,,,,
,,,,,00113,2023-12-14_16h08.27.448,vbt_B2_day4,2022.2.4,Win32,60.43026348,,,,,,down,0,3.0148,,-0.166666667,-0.251851894,1,0,0,0,13,13,119,1,liefje,images/br_liefje.png,images/cb_liefje.png,0,,,,,,,,,,,,,,,,,,,,,,
,,,,,00113,2023-12-14_16h08.27.448,vbt_B2_day4,2022.2.4,Win32,60.43026348,,,,,,down,0,6.3126,,-0.166666667,-0.251851894,1,0,0,0,14,14,176,1,techniek,images/br_techniek.png,images/cb_techniek.png,0,,,,,,,,,,,,,,,,,,,,,,
,,,,,00113,2023-12-14_16h08.27.448,vbt_B2_day4,2022.2.4,Win32,60.43026348,,,,,,down,0,0.1545,,-0.166666667,-0.251851894,1,0,0,0,15,15,130,1,keihard,images/br_keihard.png,images/cb_keihard.png,0,,,,,,,,,,,,,,,,,,,,,,
,,,,,00113,2023-12-14_16h08.27.448,vbt_B2_day4,2022.2.4,Win32,60.43026348,,,,,,down,0,0.9855,,-0.166666667,-0.251851894,1,0,0,0,16,16,118,1,vinger,images/br_vinger.png,images/cb_vinger.png,0,,,,,,,,,,,,,,,,,,,,,,
,,,,,00113,2023-12-14_16h08.27.448,vbt_B2_day4,2022.2.4,Win32,60.43026348,,,,,,down,0,0.7667,,-0.166666667,-0.251851894,1,0,0,0,17,17,82,1,muziek,images/br_muziek.png,images/cb_muziek.png,0,,,,,,,,,,,,,,,,,,,,,,
,,,,,00113,2023-12-14_16h08.27.448,vbt_B2_day4,2022.2.4,Win32,60.43026348,,,,,,down,0,0.5511,,-0.166666667,-0.251851894,1,0,0,0,18,18,139,1,stiekem,images/br_stiekem.png,images/cb_stiekem.png,0,,,,,,,,,,,,,,,,,,,,,,
,,,,,00113,2023-12-14_16h08.27.448,vbt_B2_day4,2022.2.4,Win32,60.43026348,,,,,,down,0,1.6663,,-0.166666667,-0.251851894,1,0,0,0,19,19,23,1,zout,images/br_zout.png,images/cb_zout.png,0,,,,,,,,,,,,,,,,,,,,,,
,,,,,00113,2023-12-14_16h08.27.448,vbt_B2_day4,2022.2.4,Win32,60.43026348,,,,,,down,0,0.0746,,-0.166666667,-0.251851894,1,0,0,0,20,20,115,1,kleren,images/br_kleren.png,images/cb_kleren.png,0,,,,,,,,,,,,,,,,,,,,,,
,,,,,00113,2023-12-14_16h08.27.448,vbt_B2_day4,2022.2.4,Win32,60.43026348,,,,,,down,0,3.3696,,-0.166666667,-0.251851894,1,0,0,0,21,21,98,1,kreeft,images/br_kreeft.png,images/cb_kreeft.png,0,,,,,,,,,,,,,,,,,,,,,,
,,,,,00113,2023-12-14_16h08.27.448,vbt_B2_day4,2022.2.4,Win32,60.43026348,,,,,,down,0,0.2033,,-0.166666667,-0.251851894,1,0,0,0,22,22,96,1,slagen,images/br_slagen.png,images/cb_slagen.png,0,,,,,,,,,,,,,,,,,,,,,,
,,,,,00113,2023-12-14_16h08.27.448,vbt_B2_day4,2022.2.4,Win32,60.43026348,,,,,,down,0,0.4343,,-0.166666667,-0.251851894,1,0,0,0,23,23,40,1,schep,images/br_schep.png,images/cb_schep.png,0,,,,,,,,,,,,,,,,,,,,,,
,,,,,00113,2023-12-14_16h08.27.448,vbt_B2_day4,2022.2.4,Win32,60.43026348,,,,,,down,0,3.6183,,-0.166666667,-0.251851894,1,0,0,0,24,24,37,1,mijn,images/br_mijn.png,images/cb_mijn.png,0,,,,,,,,,,,,,,,,,,,,,,
,,,,,00113,2023-12-14_16h08.27.448,vbt_B2_day4,2022.2.4,Win32,60.43026348,,,,,,down,0,1.0536,,-0.166666667,-0.251851894,1,0,0,0,25,25,101,1,staren,images/br_staren.png,images/cb_staren.png,0,,,,,,,,,,,,,,,,,,,,,,
,,,,,00113,2023-12-14_16h08.27.448,vbt_B2_day4,2022.2.4,Win32,60.43026348,,,,,,down,0,2.249,,-0.166666667,-0.251851894,1,0,0,0,26,26,108,1,excuus,images/br_excuus.png,images/cb_excuus.png,0,,,,,,,,,,,,,,,,,,,,,,
,,,,,00113,2023-12-14_16h08.27.448,vbt_B2_day4,2022.2.4,Win32,60.43026348,,,,,,down,0,0.109,,-0.166666667,-0.251851894,1,0,0,0,27,27,53,1,baron,images/br_baron.png,images/cb_baron.png,0,,,,,,,,,,,,,,,,,,,,,,
,,,,,00113,2023-12-14_16h08.27.448,vbt_B2_day4,2022.2.4,Win32,60.43026348,,,,,,down,0,0.0009,,-0.166666667,-0.251851894,1,0,0,0,28,28,19,1,geit,images/br_geit.png,images/cb_geit.png,0,,,,,,,,,,,,,,,,,,,,,,
,,,,,00113,2023-12-14_16h08.27.448,vbt_B2_day4,2022.2.4,Win32,60.43026348,,,,,,down,0,0.1845,,-0.166666667,-0.251851894,1,0,0,0,29,29,49,1,laken,images/br_laken.png,images/cb_laken.png,0,,,,,,,,,,,,,,,,,,,,,,
,,,,,00113,2023-12-14_16h08.27.448,vbt_B2_day4,2022.2.4,Win32,60.43026348,,,,,,down,0,1.1669,,-0.166666667,-0.251851894,1,0,0,0,30,30,12,1,kust,images/br_kust.png,images/cb_kust.png,0,,,,,,,,,,,,,,,,,,,,,,
,,,,,00113,2023-12-14_16h08.27.448,vbt_B2_day4,2022.2.4,Win32,60.43026348,,,,,,down,0,5.3179,,-0.166666667,-0.251851894,1,0,0,0,31,31,104,1,zweven,images/br_zweven.png,images/cb_zweven.png,1,zweven,,,,,,,,,,,,,,,,,,,,,
,,,,,00113,2023-12-14_16h08.27.448,vbt_B2_day4,2022.2.4,Win32,60.43026348,,,,,,down,0,0.309,,-0.166666667,-0.251851894,1,0,0,0,32,32,2,1,jaar,images/br_jaar.png,images/cb_jaar.png,0,,,,,,,,,,,,,,,,,,,,,,
,,,,,00113,2023-12-14_16h08.27.448,vbt_B2_day4,2022.2.4,Win32,60.43026348,,,,,,down,0,1.0034,,-0.166666667,-0.251851894,1,0,0,0,33,33,133,1,seizoen,images/br_seizoen.png,images/cb_seizoen.png,0,,,,,,,,,,,,,,,,,,,,,,
,,,,,00113,2023-12-14_16h08.27.448,vbt_B2_day4,2022.2.4,Win32,60.43026348,,,,,,down,0,4.3676,,-0.166666667,-0.251851894,1,0,0,0,34,34,145,1,invloed,images/br_invloed.png,images/cb_invloed.png,1,invloed,,,,,,,,,,,,,,,,,,,,,
,,,,,00113,2023-12-14_16h08.27.448,vbt_B2_day4,2022.2.4,Win32,60.43026348,,,,,,down,0,0.6842,,-0.166666667,-0.251851894,1,0,0,0,35,35,56,1,traag,images/br_traag.png,images/cb_traag.png,0,,,,,,,,,,,,,,,,,,,,,,
,,,,,00113,2023-12-14_16h08.27.448,vbt_B2_day4,2022.2.4,Win32,60.43026348,,,,,,down,0,0.9053,,-0.166666667,-0.251851894,1,0,0,0,36,36,189,1,aanraden,images/br_aanraden.png,images/cb_aanraden.png,0,,,,,,,,,,,,,,,,,,,,,,
,,,,,00113,2023-12-14_16h08.27.448,vbt_B2_day4,2022.2.4,Win32,60.43026348,,,,,,down,0,5.4979,,-0.166666667,-0.251851894,1,0,0,0,37,37,72,1,strak,images/br_strak.png,images/cb_strak.png,0,,,,,,,,,,,,,,,,,,,,,,
,,,,,00113,2023-12-14_16h08.27.448,vbt_B2_day4,2022.2.4,Win32,60.43026348,,,,,,down,0,0.2591,,-0.166666667,-0.251851894,1,0,0,0,38,38,157,1,uitlaat,images/br_uitlaat.png,images/cb_uitlaat.png,0,,,,,,,,,,,,,,,,,,,,,,
,,,,,00113,2023-12-14_16h08.27.448,vbt_B2_day4,2022.2.4,Win32,60.43026348,,,,,,down,0,0.39,,-0.166666667,-0.251851894,1,0,0,0,39,39,50,1,stoom,images/br_stoom.png,images/cb_stoom.png,0,,,,,,,,,,,,,,,,,,,,,,
,,,,,00113,2023-12-14_16h08.27.448,vbt_B2_day4,2022.2.4,Win32,60.43026348,,,,,,down,0,1.4549,,-0.166666667,-0.251851894,1,0,0,0,40,40,183,1,getuigen,images/br_getuigen.png,images/cb_getuigen.png,0,,,,,,,,,,,,,,,,,,,,,,
,,,,,00113,2023-12-14_16h08.27.448,vbt_B2_day4,2022.2.4,Win32,60.43026348,,,,,,down,0,2.2698,,-0.166666667,-0.251851894,1,0,0,0,41,41,124,1,bloeien,images/br_bloeien.png,images/cb_bloeien.png,0,,,,,,,,,,,,,,,,,,,,,,
,,,,,00113,2023-12-14_16h08.27.448,vbt_B2_day4,2022.2.4,Win32,60.43026348,,,,,,down,0,0.4888,,-0.166666667,-0.251851894,1,0,0,0,42,42,33,1,vlek,images/br_vlek.png,images/cb_vlek.png,0,,,,,,,,,,,,,,,,,,,,,,
,,,,,00113,2023-12-14_16h08.27.448,vbt_B2_day4,2022.2.4,Win32,60.43026348,,,,,,down,0,5.1796,,-0.166666667,-0.251851894,1,0,0,0,43,43,149,1,redding,images/br_redding.png,images/cb_redding.png,0,,,,,,,,,,,,,,,,,,,,,,
,,,,,00113,2023-12-14_16h08.27.448,vbt_B2_day4,2022.2.4,Win32,60.43026348,,,,,,down,0,1.4577,,-0.166666667,-0.251851894,1,0,0,0,44,44,16,1,ziek,images/br_ziek.png,images/cb_ziek.png,0,,,,,,,,,,,,,,,,,,,,,,
,,,,,00113,2023-12-14_16h08.27.448,vbt_B2_day4,2022.2.4,Win32,60.43026348,,,,,,down,0,0.0858,,-0.166666667,-0.251851894,1,0,0,0,45,45,10,1,leek,images/br_leek.png,images/cb_leek.png,0,,,,,,,,,,,,,,,,,,,,,,
,,,,,00113,2023-12-14_16h08.27.448,vbt_B2_day4,2022.2.4,Win32,60.43026348,,,,,,down,0,13.577,,-0.166666667,-0.251851894,1,0,0,0,46,46,27,1,dans,images/br_dans.png,images/cb_dans.png,1,dans,,,,,,,,,,,,,,,,,,,,,
,,,,,00113,2023-12-14_16h08.27.448,vbt_B2_day4,2022.2.4,Win32,60.43026348,,,,,,down,0,1.3828,,-0.166666667,-0.251851894,1,0,0,0,47,47,64,1,wegen,images/br_wegen.png,images/cb_wegen.png,1,wegen,,,,,,,,,,,,,,,,,,,,,
,,,,,00113,2023-12-14_16h08.27.448,vbt_B2_day4,2022.2.4,Win32,60.43026348,,,,,,down,0,4.4629,,-0.166666667,-0.251851894,1,0,0,0,48,48,42,1,bleek,images/br_bleek.png,images/cb_bleek.png,0,,,,,,,,,,,,,,,,,,,,,,
,,,,,00113,2023-12-14_16h08.27.448,vbt_B2_day4,2022.2.4,Win32,60.43026348,,,,,,down,0,9.0832,,-0.166666667,-0.251851894,1,0,0,0,49,49,178,1,huisdier,images/br_huisdier.png,images/cb_huisdier.png,0,,,,,,,,,,,,,,,,,,,,,,
,,,,,00113,2023-12-14_16h08.27.448,vbt_B2_day4,2022.2.4,Win32,60.43026348,,,,,,down,0,3.3971,,-0.166666667,-0.251851894,1,0,0,0,50,50,109,1,totaal,images/br_totaal.png,images/cb_totaal.png,0,,,,,,,,,,,,,,,,,,,,,,
,,,,,00113,2023-12-14_16h08.27.448,vbt_B2_day4,2022.2.4,Win32,60.43026348,,,,,,down,0,1.6829,,-0.166666667,-0.251851894,1,0,0,0,51,51,22,1,stof,images/br_stof.png,images/cb_stof.png,0,,,,,,,,,,,,,,,,,,,,,,
,,,,,00113,2023-12-14_16h08.27.448,vbt_B2_day4,2022.2.4,Win32,60.43026348,,,,,,down,0,1.6223,,-0.166666667,-0.251851894,1,0,0,0,52,52,93,1,waarop,images/br_waarop.png,images/cb_waarop.png,0,,,,,,,,,,,,,,,,,,,,,,
,,,,,00113,2023-12-14_16h08.27.448,vbt_B2_day4,2022.2.4,Win32,60.43026348,,,,,,down,0,3.5039,,-0.166666667,-0.251851894,1,0,0,0,53,53,77,1,woede,images/br_woede.png,images/cb_woede.png,0,,,,,,,,,,,,,,,,,,,,,,
,,,,,00113,2023-12-14_16h08.27.448,vbt_B2_day4,2022.2.4,Win32,60.43026348,,,,,,down,0,2.9553,,-0.166666667,-0.251851894,1,0,0,0,54,54,137,1,trekker,images/br_trekker.png,images/cb_trekker.png,0,,,,,,,,,,,,,,,,,,,,,,
,,,,,00113,2023-12-14_16h08.27.448,vbt_B2_day4,2022.2.4,Win32,60.43026348,,,,,,down,0,0.8871,,-0.166666667,-0.251851894,1,0,0,0,55,55,151,1,aanzoek,images/br_aanzoek.png,images/cb_aanzoek.png,0,,,,,,,,,,,,,,,,,,,,,,
,,,,,00113,2023-12-14_16h08.27.448,vbt_B2_day4,2022.2.4,Win32,60.43026348,,,,,,down,0,1.3359,,-0.166666667,-0.251851894,1,0,0,0,56,56,182,1,bijkomen,images/br_bijkomen.png,images/cb_bijkomen.png,0,,,,,,,,,,,,,,,,,,,,,,
,,,,,00113,2023-12-14_16h08.27.448,vbt_B2_day4,2022.2.4,Win32,60.43026348,,,,,,down,0,5.4955,,-0.166666667,-0.251851894,1,0,0,0,57,57,155,1,gerucht,images/br_gerucht.png,images/cb_gerucht.png,0,,,,,,,,,,,,,,,,,,,,,,
,,,,,00113,2023-12-14_16h08.27.448,vbt_B2_day4,2022.2.4,Win32,60.43026348,,,,,,down,0,2.7004,,-0.166666667,-0.251851894,1,0,0,0,58,58,60,1,jasje,images/br_jasje.png,images/cb_jasje.png,0,,,,,,,,,,,,,,,,,,,,,,
,,,,,00113,2023-12-14_16h08.27.448,vbt_B2_day4,2022.2.4,Win32,60.43026348,,,,,,down,0,0.1995,,-0.166666667,-0.251851894,1,0,0,0,59,59,161,1,attentie,images/br_attentie.png,images/cb_attentie.png,0,,,,,,,,,,,,,,,,,,,,,,
,,,,,00113,2023-12-14_16h08.27.448,vbt_B2_day4,2022.2.4,Win32,60.43026348,,,,,,down,0,0.327,,-0.166666667,-0.251851894,1,0,0,0,60,60,174,1,stemming,images/br_stemming.png,images/cb_stemming.png,0,,,,,,,,,,,,,,,,,,,,,,
,,,,,00113,2023-12-14_16h08.27.448,vbt_B2_day4,2022.2.4,Win32,60.43026348,,,,,,down,0,0.2435,,-0.166666667,-0.251851894,1,0,0,0,61,61,13,1,kaal,images/br_kaal.png,images/cb_kaal.png,0,,,,,,,,,,,,,,,,,,,,,,
,,,,,00113,2023-12-14_16h08.27.448,vbt_B2_day4,2022.2.4,Win32,60.43026348,,,,,,down,0,2.3863,,-0.166666667,-0.251851894,1,0,0,0,62,62,162,1,uitdelen,images/br_uitdelen.png,images/cb_uitdelen.png,0,,,,,,,,,,,,,,,,,,,,,,
,,,,,00113,2023-12-14_16h08.27.448,vbt_B2_day4,2022.2.4,Win32,60.43026348,,,,,,down,0,13.017,,-0.02870369,-0.316666709,1,0,0,0,63,63,146,1,opkomen,images/br_opkomen.png,images/cb_opkomen.png,1,opkomen,,,,,,,,,,,,,,,,,,,,,
,,,,,00113,2023-12-14_16h08.27.448,vbt_B2_day4,2022.2.4,Win32,60.43026348,,,,,,down,0,0.9004,,-0.02870369,-0.316666709,1,0,0,0,64,64,102,1,legaal,images/br_legaal.png,images/cb_legaal.png,0,,,,,,,,,,,,,,,,,,,,,,
,,,,,00113,2023-12-14_16h08.27.448,vbt_B2_day4,2022.2.4,Win32,60.43026348,,,,,,down,0,0.855,,-0.02870369,-0.316666709,1,0,0,0,65,65,68,1,schat,images/br_schat.png,images/cb_schat.png,0,,,,,,,,,,,,,,,,,,,,,,
,,,,,00113,2023-12-14_16h08.27.448,vbt_B2_day4,2022.2.4,Win32,60.43026348,,,,,,down,0,0.4813,,-0.02870369,-0.316666709,1,0,0,0,66,66,89,1,slapen,images/br_slapen.png,images/cb_slapen.png,0,,,,,,,,,,,,,,,,,,,,,,
,,,,,00113,2023-12-14_16h08.27.448,vbt_B2_day4,2022.2.4,Win32,60.43026348,,,,,,down,0,3.8855,,0.027777778,-0.499074088,1,0,0,0,67,67,187,1,opkijken,images/br_opkijken.png,images/cb_opkijken.png,1,opkijken,,,,,,,,,,,,,,,,,,,,,
,,,,,00113,2023-12-14_16h08.27.448,vbt_B2_day4,2022.2.4,Win32,60.43026348,,,,,,down,0,0.3677,,0.027777778,-0.499074088,1,0,0,0,68,68,51,1,samen,images/br_samen.png,images/cb_samen.png,0,,,,,,,,,,,,,,,,,,,,,,
,,,,,00113,2023-12-14_16h08.27.448,vbt_B2_day4,2022.2.4,Win32,60.43026348,,,,,,down,0,0.3522,,0.027777778,-0.499074088,1,0,0,0,69,69,35,1,lust,images/br_lust.png,images/cb_lust.png,0,,,,,,,,,,,,,,,,,,,,,,
,,,,,00113,2023-12-14_16h08.27.448,vbt_B2_day4,2022.2.4,Win32,60.43026348,,,,,,down,0,0.8907,,0.027777778,-0.499074088,1,0,0,0,70,70,80,1,kanjer,images/br_kanjer.png,images/cb_kanjer.png,0,,,,,,,,,,,,,,,,,,,,,,
,,,,,00113,2023-12-14_16h08.27.448,vbt_B2_day4,2022.2.4,Win32,60.43026348,,,,,,down,0,0.1173,,0.027777778,-0.499074088,1,0,0,0,71,71,41,1,maken,images/br_maken.png,images/cb_maken.png,0,,,,,,,,,,,,,,,,,,,,,,
,,,,,00113,2023-12-14_16h08.27.448,vbt_B2_day4,2022.2.4,Win32,60.43026348,,,,,,down,0,0.6052,,0.027777778,-0.499074088,1,0,0,0,72,72,46,1,jagen,images/br_jagen.png,images/cb_jagen.png,0,,,,,,,,,,,,,,,,,,,,,,
,,,,,00113,2023-12-14_16h08.27.448,vbt_B2_day4,2022.2.4,Win32,60.43026348,,,,,,down,0,3.7234,,0.027777778,-0.499074088,1,0,0,0,73,73,18,1,blik,images/br_blik.png,images/cb_blik.png,0,,,,,,,,,,,,,,,,,,,,,,
,,,,,00113,2023-12-14_16h08.27.448,vbt_B2_day4,2022.2.4,Win32,60.43026348,,,,,,down,0,0.3099,,0.027777778,-0.499074088,1,0,0,0,74,74,32,1,palm,images/br_palm.png,images/cb_palm.png,0,,,,,,,,,,,,,,,,,,,,,,
,,,,,00113,2023-12-14_16h08.27.448,vbt_B2_day4,2022.2.4,Win32,60.43026348,,,,,,down,0,0.6048,,0.027777778,-0.499074088,1,0,0,0,75,75,4,1,moes,images/br_moes.png,images/cb_moes.png,0,,,,,,,,,,,,,,,,,,,,,,
,,,,,00113,2023-12-14_16h08.27.448,vbt_B2_day4,2022.2.4,Win32,60.43026348,,,,,,down,0,2.5708,,0.027777778,-0.499074088,1,0,0,0,76,76,198,1,bedoelen,images/br_bedoelen.png,images/cb_bedoelen.png,0,,,,,,,,,,,,,,,,,,,,,,
,,,,,00113,2023-12-14_16h08.27.448,vbt_B2_day4,2022.2.4,Win32,60.43026348,,,,,,down,0,2.5584,,0.027777778,-0.499074088,1,0,0,0,77,77,105,1,wijlen,images/br_wijlen.png,images/cb_wijlen.png,1,wijlen,,,,,,,,,,,,,,,,,,,,,
,,,,,00113,2023-12-14_16h08.27.448,vbt_B2_day4,2022.2.4,Win32,60.43026348,,,,,,down,0,2.7811,,0.027777778,-0.499074088,1,0,0,0,78,78,136,1,waarbij,images/br_waarbij.png,images/cb_waarbij.png,0,,,,,,,,,,,,,,,,,,,,,,
,,,,,00113,2023-12-14_16h08.27.448,vbt_B2_day4,2022.2.4,Win32,60.43026348,,,,,,down,0,0.7732,,0.027777778,-0.499074088,1,0,0,0,79,79,172,1,weigeren,images/br_weigeren.png,images/cb_weigeren.png,0,,,,,,,,,,,,,,,,,,,,,,
,,,,,00113,2023-12-14_16h08.27.448,vbt_B2_day4,2022.2.4,Win32,60.43026348,,,,,,down,0,2.2659,,0.027777778,-0.499074088,1,0,0,0,80,80,163,1,schuilen,images/br_schuilen.png,images/cb_schuilen.png,0,,,,,,,,,,,,,,,,,,,,,,
,,,,,00113,2023-12-14_16h08.27.448,vbt_B2_day4,2022.2.4,Win32,60.43026348,,,,,,down,0,0.7705,,0.027777778,-0.499074088,1,0,0,0,81,81,120,1,klimmen,images/br_klimmen.png,images/cb_klimmen.png,0,,,,,,,,,,,,,,,,,,,,,,
,,,,,00113,2023-12-14_16h08.27.448,vbt_B2_day4,2022.2.4,Win32,60.43026348,,,,,,down,0,10.975,,0.027777778,-0.499074088,1,0,0,0,82,82,196,1,nakijken,images/br_nakijken.png,images/cb_nakijken.png,0,,,,,,,,,,,,,,,,,,,,,,
,,,,,00113,2023-12-14_16h08.27.448,vbt_B2_day4,2022.2.4,Win32,60.43026348,,,,,,down,0,2.7642,,0.027777778,-0.499074088,1,0,0,0,83,83,170,1,schatten,images/br_schatten.png,images/cb_schatten.png,0,,,,,,,,,,,,,,,,,,,,,,
,,,,,00113,2023-12-14_16h08.27.448,vbt_B2_day4,2022.2.4,Win32,60.43026348,,,,,,down,0,2.266,,0.027777778,-0.499074088,1,0,0,0,84,84,83,1,mening,images/br_mening.png,images/cb_mening.png,0,,,,,,,,,,,,,,,,,,,,,,
,,,,,00113,2023-12-14_16h08.27.448,vbt_B2_day4,2022.2.4,Win32,60.43026348,,,,,,down,0,0.9503,,0.027777778,-0.499074088,1,0,0,0,85,85,110,1,zuster,images/br_zuster.png,images/cb_zuster.png,0,,,,,,,,,,,,,,,,,,,,,,
,,,,,00113,2023-12-14_16h08.27.448,vbt_B2_day4,2022.2.4,Win32,60.43026348,,,,,,down,0,0.4737,,0.027777778,-0.499074088,1,0,0,0,86,86,54,1,gebit,images/br_gebit.png,images/cb_gebit.png,0,,,,,,,,,,,,,,,,,,,,,,
,,,,,00113,2023-12-14_16h08.27.448,vbt_B2_day4,2022.2.4,Win32,60.43026348,,,,,,down,0,0.6388,,0.027777778,-0.499074088,1,0,0,0,87,87,31,1,poes,images/br_poes.png,images/cb_poes.png,0,,,,,,,,,,,,,,,,,,,,,,
,,,,,00113,2023-12-14_16h08.27.448,vbt_B2_day4,2022.2.4,Win32,60.43026348,,,,,,down,0,0.1216,,0.027777778,-0.499074088,1,0,0,0,88,88,141,1,knielen,images/br_knielen.png,images/cb_knielen.png,0,,,,,,,,,,,,,,,,,,,,,,
,,,,,00113,2023-12-14_16h08.27.448,vbt_B2_day4,2022.2.4,Win32,60.43026348,,,,,,down,0,0.6923,,0.027777778,-0.499074088,1,0,0,0,89,89,8,1,knie,images/br_knie.png,images/cb_knie.png,0,,,,,,,,,,,,,,,,,,,,,,
,,,,,00113,2023-12-14_16h08.27.448,vbt_B2_day4,2022.2.4,Win32,60.43026348,,,,,,down,0,1.04,,0.027777778,-0.499074088,1,0,0,0,90,90,25,1,plek,images/br_plek.png,images/cb_plek.png,1,plek,,,,,,,,,,,,,,,,,,,,,
,,,,,00113,2023-12-14_16h08.27.448,vbt_B2_day4,2022.2.4,Win32,60.43026348,,,,,,down,0,3.2864,,0.027777778,-0.499074088,1,0,0,0,91,91,199,1,beseffen,images/br_beseffen.png,images/cb_beseffen.png,0,,,,,,,,,,,,,,,,,,,,,,
,,,,,00113,2023-12-14_16h08.27.448,vbt_B2_day4,2022.2.4,Win32,60.43026348,,,,,,down,0,0.3538,,0.027777778,-0.499074088,1,0,0,0,92,92,74,1,graaf,images/br_graaf.png,images/cb_graaf.png,0,,,,,,,,,,,,,,,,,,,,,,
,,,,,00113,2023-12-14_16h08.27.448,vbt_B2_day4,2022.2.4,Win32,60.43026348,,,,,,down,0,3.1153,,0.027777778,-0.499074088,1,0,0,0,93,93,123,1,hiervan,images/br_hiervan.png,images/cb_hiervan.png,0,,,,,,,,,,,,,,,,,,,,,,
,,,,,00113,2023-12-14_16h08.27.448,vbt_B2_day4,2022.2.4,Win32,60.43026348,,,,,,down,0,1.2357,,0.027777778,-0.499074088,1,0,0,0,94,94,85,1,heilig,images/br_heilig.png,images/cb_heilig.png,0,,,,,,,,,,,,,,,,,,,,,,
,,,,,00113,2023-12-14_16h08.27.448,vbt_B2_day4,2022.2.4,Win32,60.43026348,,,,,,down,0,3.4214,,0.027777778,-0.499074088,1,0,0,0,95,95,44,1,flits,images/br_flits.png,images/cb_flits.png,0,,,,,,,,,,,,,,,,,,,,,,
,,,,,00113,2023-12-14_16h08.27.448,vbt_B2_day4,2022.2.4,Win32,60.43026348,,,,,,down,0,0.3414,,0.027777778,-0.499074088,1,0,0,0,96,96,114,1,vullen,images/br_vullen.png,images/cb_vullen.png,0,,,,,,,,,,,,,,,,,,,,,,
,,,,,00113,2023-12-14_16h08.27.448,vbt_B2_day4,2022.2.4,Win32,60.43026348,,,,,,down,0,0.1775,,0.027777778,-0.499074088,1,0,0,0,97,97,171,1,aarzelen,images/br_aarzelen.png,images/cb_aarzelen.png,0,,,,,,,,,,,,,,,,,,,,,,
,,,,,00113,2023-12-14_16h08.27.448,vbt_B2_day4,2022.2.4,Win32,60.43026348,,,,,,down,0,0.2405,,0.027777778,-0.499074088,1,0,0,0,98,98,1,1,zaal,images/br_zaal.png,images/cb_zaal.png,0,,,,,,,,,,,,,,,,,,,,,,
,,,,,00113,2023-12-14_16h08.27.448,vbt_B2_day4,2022.2.4,Win32,60.43026348,,,,,,down,0,2.7686,,0.027777778,-0.499074088,1,0,0,0,99,99,169,1,oprotten,images/br_oprotten.png,images/cb_oprotten.png,0,,,,,,,,,,,,,,,,,,,,,,
,,,,,00113,2023-12-14_16h08.27.448,vbt_B2_day4,2022.2.4,Win32,60.43026348,,,,,,down,0,5.3775,,0.027777778,-0.499074088,1,0,0,0,100,100,142,1,snuiven,images/br_snuiven.png,images/cb_snuiven.png,0,,,,,,,,,,,,,,,,,,,,,,
,,,,,00113,2023-12-14_16h08.27.448,vbt_B2_day4,2022.2.4,Win32,60.43026348,,,,,,down,0,0.384,,0.027777778,-0.499074088,1,0,0,0,101,101,159,1,sufferd,images/br_sufferd.png,images/cb_sufferd.png,0,,,,,,,,,,,,,,,,,,,,,,
,,,,,00113,2023-12-14_16h08.27.448,vbt_B2_day4,2022.2.4,Win32,60.43026348,,,,,,down,0,2.3788,,0.027777778,-0.499074088,1,0,0,0,102,102,150,1,gegeven,images/br_gegeven.png,images/cb_gegeven.png,0,,,,,,,,,,,,,,,,,,,,,,
,,,,,00113,2023-12-14_16h08.27.448,vbt_B2_day4,2022.2.4,Win32,60.43026348,,,,,,down,0,1.1349,,0.027777778,-0.499074088,1,0,0,0,103,103,100,1,geduld,images/br_geduld.png,images/cb_geduld.png,0,,,,,,,,,,,,,,,,,,,,,,
,,,,,00113,2023-12-14_16h08.27.448,vbt_B2_day4,2022.2.4,Win32,60.43026348,,,,,,down,0,0.0185,,0.027777778,-0.499074088,1,0,0,0,104,104,17,1,taal,images/br_taal.png,images/cb_taal.png,0,,,,,,,,,,,,,,,,,,,,,,
,,,,,00113,2023-12-14_16h08.27.448,vbt_B2_day4,2022.2.4,Win32,60.43026348,,,,,,down,0,1.2343,,0.027777778,-0.499074088,1,0,0,0,105,105,126,1,kasteel,images/br_kasteel.png,images/cb_kasteel.png,0,,,,,,,,,,,,,,,,,,,,,,
,,,,,00113,2023-12-14_16h08.27.448,vbt_B2_day4,2022.2.4,Win32,60.43026348,,,,,,down,0,3.0502,,0.027777778,-0.499074088,1,0,0,0,106,106,94,1,oceaan,images/br_oceaan.png,images/cb_oceaan.png,0,,,,,,,,,,,,,,,,,,,,,,
,,,,,00113,2023-12-14_16h08.27.448,vbt_B2_day4,2022.2.4,Win32,60.43026348,,,,,,down,0,3.0828,,0.027777778,-0.499074088,1,0,0,0,107,107,62,1,knaap,images/br_knaap.png,images/cb_knaap.png,0,,,,,,,,,,,,,,,,,,,,,,
,,,,,00113,2023-12-14_16h08.27.448,vbt_B2_day4,2022.2.4,Win32,60.43026348,,,,,,down,0,1.8094,,0.027777778,-0.499074088,1,0,0,0,108,108,112,1,lukken,images/br_lukken.png,images/cb_lukken.png,0,,,,,,,,,,,,,,,,,,,,,,
,,,,,00113,2023-12-14_16h08.27.448,vbt_B2_day4,2022.2.4,Win32,60.43026348,,,,,,down,0,0.8338,,0.027777778,-0.499074088,1,0,0,0,109,109,57,1,steek,images/br_steek.png,images/cb_steek.png,0,,,,,,,,,,,,,,,,,,,,,,
,,,,,00113,2023-12-14_16h08.27.448,vbt_B2_day4,2022.2.4,Win32,60.43026348,,,,,,down,0,1.9038,,0.027777778,-0.499074088,1,0,0,0,110,110,125,1,aanzien,images/br_aanzien.png,images/cb_aanzien.png,0,,,,,,,,,,,,,,,,,,,,,,
,,,,,00113,2023-12-14_16h08.27.448,vbt_B2_day4,2022.2.4,Win32,60.43026348,,,,,,down,0,6.8791,,0.027777778,-0.499074088,1,0,0,0,111,111,47,1,kabel,images/br_kabel.png,images/cb_kabel.png,0,,,,,,,,,,,,,,,,,,,,,,
,,,,,00113,2023-12-14_16h08.27.448,vbt_B2_day4,2022.2.4,Win32,60.43026348,,,,,,down,0,2.0666,,0.027777778,-0.499074088,1,0,0,0,112,112,173,1,apparaat,images/br_apparaat.png,images/cb_apparaat.png,0,,,,,,,,,,,,,,,,,,,,,,
,,,,,00113,2023-12-14_16h08.27.448,vbt_B2_day4,2022.2.4,Win32,60.43026348,,,,,,down,0,0.2482,,0.027777778,-0.499074088,1,0,0,0,113,113,21,1,mist,images/br_mist.png,images/cb_mist.png,0,,,,,,,,,,,,,,,,,,,,,,
,,,,,00113,2023-12-14_16h08.27.448,vbt_B2_day4,2022.2.4,Win32,60.43026348,,,,,,down,0,18.01,,0.35555564,-0.215740769,1,0,0,0,114,114,66,1,lever,images/br_lever.png,images/cb_lever.png,1,lever,,,,,,,,,,,,,,,,,,,,,
,,,,,00113,2023-12-14_16h08.27.448,vbt_B2_day4,2022.2.4,Win32,60.43026348,,,,,,down,0,1.8164,,0.329629686,-0.243518547,1,0,0,0,115,115,48,1,steel,images/br_steel.png,images/cb_steel.png,0,,,,,,,,,,,,,,,,,,,,,,
,,,,,00113,2023-12-14_16h08.27.448,vbt_B2_day4,2022.2.4,Win32,60.43026348,,,,,,down,0,0.5291,,0.329629686,-0.243518547,1,0,0,0,116,116,69,1,waken,images/br_waken.png,images/cb_waken.png,0,,,,,,,,,,,,,,,,,,,,,,
,,,,,00113,2023-12-14_16h08.27.448,vbt_B2_day4,2022.2.4,Win32,60.43026348,,,,,,down,0,0.6194,,0.329629686,-0.243518547,1,0,0,0,117,117,29,1,baas,images/br_baas.png,images/cb_baas.png,0,,,,,,,,,,,,,,,,,,,,,,
,,,,,00113,2023-12-14_16h08.27.448,vbt_B2_day4,2022.2.4,Win32,60.43026348,,,,,,down,0,1.2905,,0.329629686,-0.243518547,1,0,0,0,118,118,193,1,weeshuis,images/br_weeshuis.png,images/cb_weeshuis.png,0,,,,,,,,,,,,,,,,,,,,,,
,,,,,00113,2023-12-14_16h08.27.448,vbt_B2_day4,2022.2.4,Win32,60.43026348,,,,,,down,0,0.467,,0.329629686,-0.243518547,1,0,0,0,119,119,148,1,smullen,images/br_smullen.png,images/cb_smullen.png,0,,,,,,,,,,,,,,,,,,,,,,
,,,,,00113,2023-12-14_16h08.27.448,vbt_B2_day4,2022.2.4,Win32,60.43026348,,,,,,down,0,1.2334,,0.329629686,-0.243518547,1,0,0,0,120,120,92,1,geheim,images/br_geheim.png,images/cb_geheim.png,0,,,,,,,,,,,,,,,,,,,,,,
,,,,,00113,2023-12-14_16h08.27.448,vbt_B2_day4,2022.2.4,Win32,60.43026348,,,,,,down,0,1.1332,,0.329629686,-0.243518547,1,0,0,0,121,121,76,1,afval,images/br_afval.png,images/cb_afval.png,0,,,,,,,,,,,,,,,,,,,,,,
,,,,,00113,2023-12-14_16h08.27.448,vbt_B2_day4,2022.2.4,Win32,60.43026348,,,,,,down,0,1.3238,,0.329629686,-0.243518547,1,0,0,0,122,122,140,1,blijven,images/br_blijven.png,images/cb_blijven.png,0,,,,,,,,,,,,,,,,,,,,,,
,,,,,00113,2023-12-14_16h08.27.448,vbt_B2_day4,2022.2.4,Win32,60.43026348,,,,,,down,0,0.4895,,0.329629686,-0.243518547,1,0,0,0,123,123,122,1,waarvan,images/br_waarvan.png,images/cb_waarvan.png,0,,,,,,,,,,,,,,,,,,,,,,
,,,,,00113,2023-12-14_16h08.27.448,vbt_B2_day4,2022.2.4,Win32,60.43026348,,,,,,down,0,5.3551,,0.329629686,-0.243518547,1,0,0,0,124,124,195,1,middelen,images/br_middelen.png,images/cb_middelen.png,0,,,,,,,,,,,,,,,,,,,,,,
,,,,,00113,2023-12-14_16h08.27.448,vbt_B2_day4,2022.2.4,Win32,60.43026348,,,,,,down,0,5.1496,,0.329629686,-0.243518547,1,0,0,0,125,125,99,1,koffie,images/br_koffie.png,images/cb_koffie.png,0,,,,,,,,,,,,,,,,,,,,,,
,,,,,00113,2023-12-14_16h08.27.448,vbt_B2_day4,2022.2.4,Win32,60.43026348,,,,,,down,0,7.0809,,0.329629686,-0.243518547,1,0,0,0,126,126,152,1,afnemen,images/br_afnemen.png,images/cb_afnemen.png,0,,,,,,,,,,,,,,,,,,,,,,
,,,,,00113,2023-12-14_16h08.27.448,vbt_B2_day4,2022.2.4,Win32,60.43026348,,,,,,down,0,2.6367,,0.329629686,-0.243518547,1,0,0,0,127,127,24,1,jurk,images/br_jurk.png,images/cb_jurk.png,1,jurk,,,,,,,,,,,,,,,,,,,,,
,,,,,00113,2023-12-14_16h08.27.448,vbt_B2_day4,2022.2.4,Win32,60.43026348,,,,,,down,0,5.5965,,0.329629686,-0.243518547,1,0,0,0,128,128,127,1,doodmoe,images/br_doodmoe.png,images/cb_doodmoe.png,0,,,,,,,,,,,,,,,,,,,,,,
,,,,,00113,2023-12-14_16h08.27.448,vbt_B2_day4,2022.2.4,Win32,60.43026348,,,,,,down,0,5.1846,,0.333333333,-0.262962977,1,0,0,0,129,129,147,1,komisch,images/br_komisch.png,images/cb_komisch.png,1,komisch,,,,,,,,,,,,,,,,,,,,,
,,,,,00113,2023-12-14_16h08.27.448,vbt_B2_day4,2022.2.4,Win32,60.43026348,,,,,,down,0,4.7124,,0.333333333,-0.262962977,1,0,0,0,130,130,81,1,dubbel,images/br_dubbel.png,images/cb_dubbel.png,0,,,,,,,,,,,,,,,,,,,,,,
,,,,,00113,2023-12-14_16h08.27.448,vbt_B2_day4,2022.2.4,Win32,60.43026348,,,,,,down,0,1.9232,,0.333333333,-0.262962977,1,0,0,0,131,131,71,1,bever,images/br_bever.png,images/cb_bever.png,0,,,,,,,,,,,,,,,,,,,,,,
,,,,,00113,2023-12-14_16h08.27.448,vbt_B2_day4,2022.2.4,Win32,60.43026348,,,,,,down,0,5.6123,,0.333333333,-0.262962977,1,0,0,0,132,132,154,1,aflopen,images/br_aflopen.png,images/cb_aflopen.png,0,,,,,,,,,,,,,,,,,,,,,,
,,,,,00113,2023-12-14_16h08.27.448,vbt_B2_day4,2022.2.4,Win32,60.43026348,,,,,,down,0,0.3173,,0.333333333,-0.262962977,1,0,0,0,133,133,36,1,vuur,images/br_vuur.png,images/cb_vuur.png,0,,,,,,,,,,,,,,,,,,,,,,
,,,,,00113,2023-12-14_16h08.27.448,vbt_B2_day4,2022.2.4,Win32,60.43026348,,,,,,down,0,4.6005,,0.333333333,-0.262962977,1,0,0,0,134,134,158,1,innemen,images/br_innemen.png,images/cb_innemen.png,0,,,,,,,,,,,,,,,,,,,,,,
,,,,,00113,2023-12-14_16h08.27.448,vbt_B2_day4,2022.2.4,Win32,60.43026348,,,,,,down,0,1.8542,,0.333333333,-0.262962977,1,0,0,0,135,135,107,1,maling,images/br_maling.png,images/cb_maling.png,1,maling,,,,,,,,,,,,,,,,,,,,,
,,,,,00113,2023-12-14_16h08.27.448,vbt_B2_day4,2022.2.4,Win32,60.43026348,,,,,,down,0,4.7565,,0.333333333,-0.262962977,1,0,0,0,136,136,192,1,schaamte,images/br_schaamte.png,images/cb_schaamte.png,0,,,,,,,,,,,,,,,,,,,,,,
,,,,,00113,2023-12-14_16h08.27.448,vbt_B2_day4,2022.2.4,Win32,60.43026348,,,,,,down,0,0.9009,,0.333333333,-0.262962977,1,0,0,0,137,137,167,1,eenhoorn,images/br_eenhoorn.png,images/cb_eenhoorn.png,0,,,,,,,,,,,,,,,,,,,,,,
,,,,,00113,2023-12-14_16h08.27.448,vbt_B2_day4,2022.2.4,Win32,60.43026348,,,,,,down,0,0.5245,,0.333333333,-0.262962977,1,0,0,0,138,138,131,1,opzicht,images/br_opzicht.png,images/cb_opzicht.png,0,,,,,,,,,,,,,,,,,,,,,,
,,,,,00113,2023-12-14_16h08.27.448,vbt_B2_day4,2022.2.4,Win32,60.43026348,,,,,,down,0,1.4016,,0.333333333,-0.262962977,1,0,0,0,139,139,84,1,lokken,images/br_lokken.png,images/cb_lokken.png,0,,,,,,,,,,,,,,,,,,,,,,
,,,,,00113,2023-12-14_16h08.27.448,vbt_B2_day4,2022.2.4,Win32,60.43026348,,,,,,down,0,2.5731,,0.333333333,-0.262962977,1,0,0,0,140,140,181,1,toegeven,images/br_toegeven.png,images/cb_toegeven.png,0,,,,,,,,,,,,,,,,,,,,,,
,,,,,00113,2023-12-14_16h08.27.448,vbt_B2_day4,2022.2.4,Win32,60.43026348,,,,,,down,0,0.9027,,0.333333333,-0.262962977,1,0,0,0,141,141,39,1,laag,images/br_laag.png,images/cb_laag.png,0,,,,,,,,,,,,,,,,,,,,,,
,,,,,00113,2023-12-14_16h08.27.448,vbt_B2_day4,2022.2.4,Win32,60.43026348,,,,,,down,0,0.6318,,0.333333333,-0.262962977,1,0,0,0,142,142,194,1,driemaal,images/br_driemaal.png,images/cb_driemaal.png,0,,,,,,,,,,,,,,,,,,,,,,
,,,,,00113,2023-12-14_16h08.27.448,vbt_B2_day4,2022.2.4,Win32,60.43026348,,,,,,down,0,2.3211,,0.333333333,-0.262962977,1,0,0,0,143,143,197,1,spanning,images/br_spanning.png,images/cb_spanning.png,0,,,,,,,,,,,,,,,,,,,,,,
,,,,,00113,2023-12-14_16h08.27.448,vbt_B2_day4,2022.2.4,Win32,60.43026348,,,,,,down,0,0.2843,,0.333333333,-0.262962977,1,0,0,0,144,144,28,1,stal,images/br_stal.png,images/cb_stal.png,0,,,,,,,,,,,,,,,,,,,,,,
,,,,,00113,2023-12-14_16h08.27.448,vbt_B2_day4,2022.2.4,Win32,60.43026348,,,,,,down,0,1.541,,0.333333333,-0.262962977,1,0,0,0,145,145,153,1,vervoer,images/br_vervoer.png,images/cb_vervoer.png,0,,,,,,,,,,,,,,,,,,,,,,
,,,,,00113,2023-12-14_16h08.27.448,vbt_B2_day4,2022.2.4,Win32,60.43026348,,,,,,down,0,2.1152,,0.333333333,-0.262962977,1,0,0,0,146,146,191,1,opheffen,images/br_opheffen.png,images/cb_opheffen.png,0,,,,,,,,,,,,,,,,,,,,,,
,,,,,00113,2023-12-14_16h08.27.448,vbt_B2_day4,2022.2.4,Win32,60.43026348,,,,,,down,0,0.9211,,0.333333333,-0.262962977,1,0,0,0,147,147,63,1,flirt,images/br_flirt.png,images/cb_flirt.png,0,,,,,,,,,,,,,,,,,,,,,,
,,,,,00113,2023-12-14_16h08.27.448,vbt_B2_day4,2022.2.4,Win32,60.43026348,,,,,,down,0,4.5398,,0.333333333,-0.262962977,1,0,0,0,148,148,88,1,boeien,images/br_boeien.png,images/cb_boeien.png,0,,,,,,,,,,,,,,,,,,,,,,
,,,,,00113,2023-12-14_16h08.27.448,vbt_B2_day4,2022.2.4,Win32,60.43026348,,,,,,down,0,1.9027,,0.333333333,-0.262962977,1,0,0,0,149,149,180,1,openbaar,images/br_openbaar.png,images/cb_openbaar.png,0,,,,,,,,,,,,,,,,,,,,,,
,,,,,00113,2023-12-14_16h08.27.448,vbt_B2_day4,2022.2.4,Win32,60.43026348,,,,,,down,0,0.9999,,0.333333333,-0.262962977,1,0,0,0,150,150,86,1,woning,images/br_woning.png,images/cb_woning.png,0,,,,,,,,,,,,,,,,,,,,,,
,,,,,00113,2023-12-14_16h08.27.448,vbt_B2_day4,2022.2.4,Win32,60.43026348,,,,,,down,0,5.1669,,0.333333333,-0.262962977,1,0,0,0,151,151,20,1,site,images/br_site.png,images/cb_site.png,0,,,,,,,,,,,,,,,,,,,,,,
,,,,,00113,2023-12-14_16h08.27.448,vbt_B2_day4,2022.2.4,Win32,60.43026348,,,,,,down,0,2.3882,,0.333333333,-0.262962977,1,0,0,0,152,152,166,1,strikken,images/br_strikken.png,images/cb_strikken.png,0,,,,,,,,,,,,,,,,,,,,,,
,,,,,00113,2023-12-14_16h08.27.448,vbt_B2_day4,2022.2.4,Win32,60.43026348,,,,,,down,0,3.3663,,0.333333333,-0.262962977,1,0,0,0,153,153,138,1,akkoord,images/br_akkoord.png,images/cb_akkoord.png,0,,,,,,,,,,,,,,,,,,,,,,
,,,,,00113,2023-12-14_16h08.27.448,vbt_B2_day4,2022.2.4,Win32,60.43026348,,,,,,down,0,1.9004,,0.333333333,-0.262962977,1,0,0,0,154,154,34,1,vorm,images/br_vorm.png,images/cb_vorm.png,0,,,,,,,,,,,,,,,,,,,,,,
,,,,,00113,2023-12-14_16h08.27.448,vbt_B2_day4,2022.2.4,Win32,60.43026348,,,,,,down,0,0.8727,,0.333333333,-0.262962977,1,0,0,0,155,155,59,1,kring,images/br_kring.png,images/cb_kring.png,0,,,,,,,,,,,,,,,,,,,,,,
,,,,,00113,2023-12-14_16h08.27.448,vbt_B2_day4,2022.2.4,Win32,60.43026348,,,,,,down,0,1.1854,,0.333333333,-0.262962977,1,0,0,0,156,156,135,1,gedicht,images/br_gedicht.png,images/cb_gedicht.png,0,,,,,,,,,,,,,,,,,,,,,,
,,,,,00113,2023-12-14_16h08.27.448,vbt_B2_day4,2022.2.4,Win32,60.43026348,,,,,,down,0,1.0551,,0.333333333,-0.262962977,1,0,0,0,157,157,113,1,koppen,images/br_koppen.png,images/cb_koppen.png,0,,,,,,,,,,,,,,,,,,,,,,
,,,,,00113,2023-12-14_16h08.27.448,vbt_B2_day4,2022.2.4,Win32,60.43026348,,,,,,down,0,0.4033,,0.333333333,-0.262962977,1,0,0,0,158,158,103,1,joggen,images/br_joggen.png,images/cb_joggen.png,0,,,,,,,,,,,,,,,,,,,,,,
,,,,,00113,2023-12-14_16h08.27.448,vbt_B2_day4,2022.2.4,Win32,60.43026348,,,,,,down,0,1.0164,,0.333333333,-0.262962977,1,0,0,0,159,159,190,1,goedkoop,images/br_goedkoop.png,images/cb_goedkoop.png,0,,,,,,,,,,,,,,,,,,,,,,
,,,,,00113,2023-12-14_16h08.27.448,vbt_B2_day4,2022.2.4,Win32,60.43026348,,,,,,down,0,2.8665,,0.333333333,-0.262962977,1,0,0,0,160,160,186,1,voorraad,images/br_voorraad.png,images/cb_voorraad.png,1,voorraad,,,,,,,,,,,,,,,,,,,,,
,,,,,00113,2023-12-14_16h08.27.448,vbt_B2_day4,2022.2.4,Win32,60.43026348,,,,,,down,0,0.2167,,0.333333333,-0.262962977,1,0,0,0,161,161,165,1,feestdag,images/br_feestdag.png,images/cb_feestdag.png,0,,,,,,,,,,,,,,,,,,,,,,
,,,,,00113,2023-12-14_16h08.27.448,vbt_B2_day4,2022.2.4,Win32,60.43026348,,,,,,down,0,0.3434,,0.333333333,-0.262962977,1,0,0,0,162,162,128,1,prikken,images/br_prikken.png,images/cb_prikken.png,0,,,,,,,,,,,,,,,,,,,,,,
,,,,,00113,2023-12-14_16h08.27.448,vbt_B2_day4,2022.2.4,Win32,60.43026348,,,,,,down,0,2.4381,,0.333333333,-0.262962977,1,0,0,0,163,163,43,1,klauw,images/br_klauw.png,images/cb_klauw.png,0,,,,,,,,,,,,,,,,,,,,,,
,,,,,00113,2023-12-14_16h08.27.448,vbt_B2_day4,2022.2.4,Win32,60.43026348,,,,,,down,0,0.634,,0.333333333,-0.262962977,1,0,0,0,164,164,15,1,soda,images/br_soda.png,images/cb_soda.png,0,,,,,,,,,,,,,,,,,,,,,,
,,,,,00113,2023-12-14_16h08.27.448,vbt_B2_day4,2022.2.4,Win32,60.43026348,,,,,,down,0,1.1268,,0.333333333,-0.262962977,1,0,0,0,165,165,55,1,praat,images/br_praat.png,images/cb_praat.png,0,,,,,,,,,,,,,,,,,,,,,,
,,,,,00113,2023-12-14_16h08.27.448,vbt_B2_day4,2022.2.4,Win32,60.43026348,,,,,,down,0,3.484,,0.333333333,-0.262962977,1,0,0,0,166,166,184,1,aandelen,images/br_aandelen.png,images/cb_aandelen.png,1,aandelen,,,,,,,,,,,,,,,,,,,,,
,,,,,00113,2023-12-14_16h08.27.448,vbt_B2_day4,2022.2.4,Win32,60.43026348,,,,,,down,0,0.7196,,0.333333333,-0.262962977,1,0,0,0,167,167,0,1,slak,images/br_slak.png,images/cb_slak.png,0,,,,,,,,,,,,,,,,,,,,,,
,,,,,00113,2023-12-14_16h08.27.448,vbt_B2_day4,2022.2.4,Win32,60.43026348,,,,,,down,0,0.0564,,0.333333333,-0.262962977,1,0,0,0,168,168,143,1,hechten,images/br_hechten.png,images/cb_hechten.png,0,,,,,,,,,,,,,,,,,,,,,,
,,,,,00113,2023-12-14_16h08.27.448,vbt_B2_day4,2022.2.4,Win32,60.43026348,,,,,,down,0,0.2409,,0.333333333,-0.262962977,1,0,0,0,169,169,164,1,anarchie,images/br_anarchie.png,images/cb_anarchie.png,0,,,,,,,,,,,,,,,,,,,,,,
,,,,,00113,2023-12-14_16h08.27.448,vbt_B2_day4,2022.2.4,Win32,60.43026348,,,,,,down,0,0.32,,0.333333333,-0.262962977,1,0,0,0,170,170,188,1,strekken,images/br_strekken.png,images/cb_strekken.png,0,,,,,,,,,,,,,,,,,,,,,,
,,,,,00113,2023-12-14_16h08.27.448,vbt_B2_day4,2022.2.4,Win32,60.43026348,,,,,,down,0,1.3672,,0.333333333,-0.262962977,1,0,0,0,171,171,87,1,toeval,images/br_toeval.png,images/cb_toeval.png,0,,,,,,,,,,,,,,,,,,,,,,
,,,,,00113,2023-12-14_16h08.27.448,vbt_B2_day4,2022.2.4,Win32,60.43026348,,,,,,down,0,0.121,,0.333333333,-0.262962977,1,0,0,0,172,172,52,1,wagon,images/br_wagon.png,images/cb_wagon.png,0,,,,,,,,,,,,,,,,,,,,,,
,,,,,00113,2023-12-14_16h08.27.448,vbt_B2_day4,2022.2.4,Win32,60.43026348,,,,,,down,0,11.0906,,0.333333333,-0.263888889,1,0,0,0,173,173,79,1,nodig,images/br_nodig.png,images/cb_nodig.png,0,,,,,,,,,,,,,,,,,,,,,,
,,,,,00113,2023-12-14_16h08.27.448,vbt_B2_day4,2022.2.4,Win32,60.43026348,,,,,,down,0,1.9653,,0.333333333,-0.263888889,1,0,0,0,174,174,14,1,rijp,images/br_rijp.png,images/cb_rijp.png,0,,,,,,,,,,,,,,,,,,,,,,
,,,,,00113,2023-12-14_16h08.27.448,vbt_B2_day4,2022.2.4,Win32,60.43026348,,,,,,down,0,0.5537,,0.333333333,-0.263888889,1,0,0,0,175,175,160,1,daarheen,images/br_daarheen.png,images/cb_daarheen.png,0,,,,,,,,,,,,,,,,,,,,,,
,,,,,00113,2023-12-14_16h08.27.448,vbt_B2_day4,2022.2.4,Win32,60.43026348,,,,,,down,0,0.6071,,0.333333333,-0.263888889,1,0,0,0,176,176,97,1,loyaal,images/br_loyaal.png,images/cb_loyaal.png,0,,,,,,,,,,,,,,,,,,,,,,
,,,,,00113,2023-12-14_16h08.27.448,vbt_B2_day4,2022.2.4,Win32,60.43026348,,,,,,down,0,1.1314,,0.333333333,-0.263888889,1,0,0,0,177,177,75,1,snoep,images/br_snoep.png,images/cb_snoep.png,0,,,,,,,,,,,,,,,,,,,,,,
,,,,,00113,2023-12-14_16h08.27.448,vbt_B2_day4,2022.2.4,Win32,60.43026348,,,,,,down,0,2.1838,,0.333333333,-0.263888889,1,0,0,0,178,178,177,1,maaltijd,images/br_maaltijd.png,images/cb_maaltijd.png,0,,,,,,,,,,,,,,,,,,,,,,
,,,,,00113,2023-12-14_16h08.27.448,vbt_B2_day4,2022.2.4,Win32,60.43026348,,,,,,down,0,0.5419,,0.333333333,-0.263888889,1,0,0,0,179,179,3,1,mand,images/br_mand.png,images/cb_mand.png,0,,,,,,,,,,,,,,,,,,,,,,
,,,,,00113,2023-12-14_16h08.27.448,vbt_B2_day4,2022.2.4,Win32,60.43026348,,,,,,down,0,5.5686,,0.333333333,-0.263888889,1,0,0,0,180,180,26,1,leuk,images/br_leuk.png,images/cb_leuk.png,1,beuk,,,,,,,,,,,,,,,,,,,,,
,,,,,00113,2023-12-14_16h08.27.448,vbt_B2_day4,2022.2.4,Win32,60.43026348,,,,,,down,0,0.8846,,0.333333333,-0.263888889,1,0,0,0,181,181,156,1,rechten,images/br_rechten.png,images/cb_rechten.png,0,,,,,,,,,,,,,,,,,,,,,,
,,,,,00113,2023-12-14_16h08.27.448,vbt_B2_day4,2022.2.4,Win32,60.43026348,,,,,,down,0,1.9881,,0.333333333,-0.263888889,1,0,0,0,182,182,5,1,blad,images/br_blad.png,images/cb_blad.png,0,,,,,,,,,,,,,,,,,,,,,,
,,,,,00113,2023-12-14_16h08.27.448,vbt_B2_day4,2022.2.4,Win32,60.43026348,,,,,,down,0,2.1894,,0.333333333,-0.263888889,1,0,0,0,183,183,38,1,baai,images/br_baai.png,images/cb_baai.png,0,,,,,,,,,,,,,,,,,,,,,,
,,,,,00113,2023-12-14_16h08.27.448,vbt_B2_day4,2022.2.4,Win32,60.43026348,,,,,,down,0,2.8011,,0.333333333,-0.263888889,1,0,0,0,184,184,106,1,zingen,images/br_zingen.png,images/cb_zingen.png,1,zingen,,,,,,,,,,,,,,,,,,,,,
,,,,,00113,2023-12-14_16h08.27.448,vbt_B2_day4,2022.2.4,Win32,60.43026348,,,,,,down,0,0.1078,,0.333333333,-0.263888889,1,0,0,0,185,185,7,1,geld,images/br_geld.png,images/cb_geld.png,0,,,,,,,,,,,,,,,,,,,,,,
,,,,,00113,2023-12-14_16h08.27.448,vbt_B2_day4,2022.2.4,Win32,60.43026348,,,,,,down,0,2.5647,,0.333333333,-0.263888889,1,0,0,0,186,186,168,1,bisschop,images/br_bisschop.png,images/cb_bisschop.png,0,,,,,,,,,,,,,,,,,,,,,,
,,,,,00113,2023-12-14_16h08.27.448,vbt_B2_day4,2022.2.4,Win32,60.43026348,,,,,,down,0,1.822,,0.333333333,-0.263888889,1,0,0,0,187,187,11,1,mode,images/br_mode.png,images/cb_mode.png,0,,,,,,,,,,,,,,,,,,,,,,
,,,,,00113,2023-12-14_16h08.27.448,vbt_B2_day4,2022.2.4,Win32,60.43026348,,,,,,down,0,0.4687,,0.333333333,-0.263888889,1,0,0,0,188,188,70,1,ijdel,images/br_ijdel.png,images/cb_ijdel.png,0,,,,,,,,,,,,,,,,,,,,,,
,,,,,00113,2023-12-14_16h08.27.448,vbt_B2_day4,2022.2.4,Win32,60.43026348,,,,,,down,0,1.8167,,0.333333333,-0.263888889,1,0,0,0,189,189,179,1,woestijn,images/br_woestijn.png,images/cb_woestijn.png,0,,,,,,,,,,,,,,,,,,,,,,
,,,,,00113,2023-12-14_16h08.27.448,vbt_B2_day4,2022.2.4,Win32,60.43026348,,,,,,down,0,0.2646,,0.333333333,-0.263888889,1,0,0,0,190,190,73,1,volop,images/br_volop.png,images/cb_volop.png,0,,,,,,,,,,,,,,,,,,,,,,
,,,,,00113,2023-12-14_16h08.27.448,vbt_B2_day4,2022.2.4,Win32,60.43026348,,,,,,down,0,7.6101,,0.333333333,-0.263888889,1,0,0,0,191,191,185,1,mijnheer,images/br_mijnheer.png,images/cb_mijnheer.png,1,mijnheer,,,,,,,,,,,,,,,,,,,,,
,,,,,00113,2023-12-14_16h08.27.448,vbt_B2_day4,2022.2.4,Win32,60.43026348,,,,,,down,0,0.1387,,0.333333333,-0.263888889,1,0,0,0,192,192,6,1,diep,images/br_diep.png,images/cb_diep.png,0,,,,,,,,,,,,,,,,,,,,,,
,,,,,00113,2023-12-14_16h08.27.448,vbt_B2_day4,2022.2.4,Win32,60.43026348,,,,,,down,0,0.3359,,0.333333333,-0.263888889,1,0,0,0,193,193,175,1,heengaan,images/br_heengaan.png,images/cb_heengaan.png,0,,,,,,,,,,,,,,,,,,,,,,
,,,,,00113,2023-12-14_16h08.27.448,vbt_B2_day4,2022.2.4,Win32,60.43026348,,,,,,down,0,0.068,,0.333333333,-0.263888889,1,0,0,0,194,194,117,1,kennis,images/br_kennis.png,images/cb_kennis.png,0,,,,,,,,,,,,,,,,,,,,,,
,,,,,00113,2023-12-14_16h08.27.448,vbt_B2_day4,2022.2.4,Win32,60.43026348,,,,,,down,0,0.6673,,0.333333333,-0.263888889,1,0,0,0,195,195,9,1,hier,images/br_hier.png,images/cb_hier.png,0,,,,,,,,,,,,,,,,,,,,,,
,,,,,00113,2023-12-14_16h08.27.448,vbt_B2_day4,2022.2.4,Win32,60.43026348,,,,,,down,0,6.1642,,0.333333333,-0.263888889,1,0,0,0,196,196,30,1,uien,images/br_uien.png,images/cb_uien.png,0,,,,,,,,,,,,,,,,,,,,,,
,,,,,00113,2023-12-14_16h08.27.448,vbt_B2_day4,2022.2.4,Win32,60.43026348,,,,,,down,0,0.3248,,0.333333333,-0.263888889,1,0,0,0,197,197,129,1,verhaal,images/br_verhaal.png,images/cb_verhaal.png,0,,,,,,,,,,,,,,,,,,,,,,
,,,,,00113,2023-12-14_16h08.27.448,vbt_B2_day4,2022.2.4,Win32,60.43026348,,,,,,down,0,0.5694,,0.333333333,-0.263888889,1,0,0,0,198,198,116,1,besmet,images/br_besmet.png,images/cb_besmet.png,0,,,,,,,,,,,,,,,,,,,,,,
,,,,,00113,2023-12-14_16h08.27.448,vbt_B2_day4,2022.2.4,Win32,60.43026348,,,,,,down,0,0.8358,,0.333333333,-0.263888889,1,0,0,0,199,199,95,1,vreten,images/br_vreten.png,images/cb_vreten.png,0,,,,,,,,,,,,,,,,,,,,,,
,,,,,00113,2023-12-14_16h08.27.448,vbt_B2_day4,2022.2.4,Win32,60.43026348,,,,,,,,,,,,,,,,,,,,,,,,,0.333333333,-0.263888889,1,0,0,,,,,,,,,,,,,,,,
,,,,,00113,2023-12-14_16h08.27.448,vbt_B2_day4,2022.2.4,Win32,60.43026348,,,,,,,,,,,,,,,,,,,,,,,,,,,,,,0.333333333,-0.263888889,1,0,0,,,,,,,,,,,
,,,,,00113,2023-12-14_16h08.27.448,vbt_B2_day4,2022.2.4,Win32,60.43026348,,,,,,,,,,,,,,,,,,,,dozijn,images/br_dozijn.png,images/cb_dozijn.png,,dozijn,,,,,,,,,,,0.009259259,-0.205555598,1,0,0,dozijn,0,0,0,48,1
,,,,,00113,2023-12-14_16h08.27.448,vbt_B2_day4,2022.2.4,Win32,60.43026348,,,,,,,,,,,,,,,,,,,,sulbon,images/br_sulbon.png,images/cb_sulbon.png,,sulbon,,,,,,,,,,,0.010185171,-0.298148191,1,0,0,sulbon,0,1,1,31,1
,,,,,00113,2023-12-14_16h08.27.448,vbt_B2_day4,2022.2.4,Win32,60.43026348,,,,,,,,,,,,,,,,,,,,soda,images/br_soda.png,images/cb_soda.png,,soda,,,,,,,,,,,0.010185171,-0.298148191,1,0,0,soda,0,2,2,3,1
,,,,,00113,2023-12-14_16h08.27.448,vbt_B2_day4,2022.2.4,Win32,60.43026348,,,,,,,,,,,,,,,,,,,,zwek,images/br_zwek.png,images/cb_zwek.png,,nwek,,,,,,,,,,,0.010185171,-0.298148191,1,0,0,nwek,0,3,3,20,1
,,,,,00113,2023-12-14_16h08.27.448,vbt_B2_day4,2022.2.4,Win32,60.43026348,,,,,,,,,,,,,,,,,,,,oceaan,images/br_oceaan.png,images/cb_oceaan.png,,oceaan,,,,,,,,,,,0.010185171,-0.298148191,1,0,0,oceaan,0,4,4,10,1
,,,,,00113,2023-12-14_16h08.27.448,vbt_B2_day4,2022.2.4,Win32,60.43026348,,,,,,,,,,,,,,,,,,,,drooien,images/br_drooien.png,images/cb_drooien.png,,prooien,,,,,,,,,,,0.010185171,-0.298148191,1,0,0,prooien,0,5,5,32,1
,,,,,00113,2023-12-14_16h08.27.448,vbt_B2_day4,2022.2.4,Win32,60.43026348,,,,,,,,,,,,,,,,,,,,dalen,images/br_dalen.png,images/cb_dalen.png,,dalen,,,,,,,,,,,0.010185171,-0.298148191,1,0,0,dalen,0,6,6,46,1
,,,,,00113,2023-12-14_16h08.27.448,vbt_B2_day4,2022.2.4,Win32,60.43026348,,,,,,,,,,,,,,,,,,,,toevol,images/br_toevol.png,images/cb_toevol.png,,toevol,,,,,,,,,,,0.010185171,-0.298148191,1,0,0,toevol,0,7,7,29,1
,,,,,00113,2023-12-14_16h08.27.448,vbt_B2_day4,2022.2.4,Win32,60.43026348,,,,,,,,,,,,,,,,,,,,schenden,images/br_schenden.png,images/cb_schenden.png,,schenden,,,,,,,,,,,0.010185171,-0.298148191,1,0,0,schenden,0,8,8,57,1
,,,,,00113,2023-12-14_16h08.27.448,vbt_B2_day4,2022.2.4,Win32,60.43026348,,,,,,,,,,,,,,,,,,,,fran,images/br_fran.png,images/cb_fran.png,,fran,,,,,,,,,,,0.010185171,-0.298148191,1,0,0,fran,0,9,9,22,1
,,,,,00113,2023-12-14_16h08.27.448,vbt_B2_day4,2022.2.4,Win32,60.43026348,,,,,,,,,,,,,,,,,,,,aanzwaag,images/br_aanzwaag.png,images/cb_aanzwaag.png,,aanzwaag,,,,,,,,,,,0.010185171,-0.298148191,1,0,0,aanzwaag,0,10,10,38,1
,,,,,00113,2023-12-14_16h08.27.448,vbt_B2_day4,2022.2.4,Win32,60.43026348,,,,,,,,,,,,,,,,,,,,gaaf,images/br_gaaf.png,images/cb_gaaf.png,,gaaf,,,,,,,,,,,0.010185171,-0.298148191,1,0,0,gaaf,0,11,11,43,1
,,,,,00113,2023-12-14_16h08.27.448,vbt_B2_day4,2022.2.4,Win32,60.43026348,,,,,,,,,,,,,,,,,,,,gedicht,images/br_gedicht.png,images/cb_gedicht.png,,gedicht,,,,,,,,,,,0.010185171,-0.298148191,1,0,0,gedicht,0,12,12,15,1
,,,,,00113,2023-12-14_16h08.27.448,vbt_B2_day4,2022.2.4,Win32,60.43026348,,,,,,,,,,,,,,,,,,,,broodje,images/br_broodje.png,images/cb_broodje.png,,broodje,,,,,,,,,,,0.010185171,-0.298148191,1,0,0,broodje,0,13,13,55,1
,,,,,00113,2023-12-14_16h08.27.448,vbt_B2_day4,2022.2.4,Win32,60.43026348,,,,,,,,,,,,,,,,,,,,praat,images/br_praat.png,images/cb_praat.png,,praat,,,,,,,,,,,0.010185171,-0.298148191,1,0,0,praat,0,14,14,7,1
,,,,,00113,2023-12-14_16h08.27.448,vbt_B2_day4,2022.2.4,Win32,60.43026348,,,,,,,,,,,,,,,,,,,,wozing,images/br_wozing.png,images/cb_wozing.png,,woning,,,,,,,,,,,0.010185171,-0.298148191,1,0,0,woning,0,15,15,28,1
,,,,,00113,2023-12-14_16h08.27.448,vbt_B2_day4,2022.2.4,Win32,60.43026348,,,,,,,,,,,,,,,,,,,,weigeren,images/br_weigeren.png,images/cb_weigeren.png,,weigeren,,,,,,,,,,,0.010185171,-0.298148191,1,0,0,weigeren,0,16,16,16,1
,,,,,00113,2023-12-14_16h08.27.448,vbt_B2_day4,2022.2.4,Win32,60.43026348,,,,,,,,,,,,,,,,,,,,ezel,images/br_ezel.png,images/cb_ezel.png,,enel,,,,,,,,,,,0.010185171,-0.298148191,1,0,0,enel,0,17,17,42,1
,,,,,00113,2023-12-14_16h08.27.448,vbt_B2_day4,2022.2.4,Win32,60.43026348,,,,,,,,,,,,,,,,,,,,geliefd,images/br_geliefd.png,images/cb_geliefd.png,,geliefd,,,,,,,,,,,0.010185171,-0.298148191,1,0,0,geliefd,0,18,18,14,1
,,,,,00113,2023-12-14_16h08.27.448,vbt_B2_day4,2022.2.4,Win32,60.43026348,,,,,,,,,,,,,,,,,,,,gebog,images/br_gebog.png,images/cb_gebog.png,,gebog,,,,,,,,,,,0.010185171,-0.298148191,1,0,0,gebog,0,19,19,24,1
,,,,,00113,2023-12-14_16h08.27.448,vbt_B2_day4,2022.2.4,Win32,60.43026348,,,,,,,,,,,,,,,,,,,,warel,images/br_warel.png,images/cb_warel.png,,warel,,,,,,,,,,,0.010185171,-0.298148191,1,0,0,warel,0,20,20,26,1
,,,,,00113,2023-12-14_16h08.27.448,vbt_B2_day4,2022.2.4,Win32,60.43026348,,,,,,,,,,,,,,,,,,,,stemming,images/br_stemming.png,images/cb_stemming.png,,stemming,,,,,,,,,,,0.010185171,-0.298148191,1,0,0,stemming,0,21,21,18,1
,,,,,00113,2023-12-14_16h08.27.448,vbt_B2_day4,2022.2.4,Win32,60.43026348,,,,,,,,,,,,,,,,,,,,drummer,images/br_drummer.png,images/cb_drummer.png,,drummer,,,,,,,,,,,0.010185171,-0.298148191,1,0,0,drummer,0,22,22,53,1
,,,,,00113,2023-12-14_16h08.27.448,vbt_B2_day4,2022.2.4,Win32,60.43026348,,,,,,,,,,,,,,,,,,,,heengaan,images/br_heengaan.png,images/cb_heengaan.png,,heengaan,,,,,,,,,,,0.010185171,-0.298148191,1,0,0,heengaan,0,23,23,19,1
,,,,,00113,2023-12-14_16h08.27.448,vbt_B2_day4,2022.2.4,Win32,60.43026348,,,,,,,,,,,,,,,,,,,,opruimen,images/br_opruimen.png,images/cb_opruimen.png,,opruimen,,,,,,,,,,,0.010185171,-0.298148191,1,0,0,opruimen,0,24,24,59,1
,,,,,00113,2023-12-14_16h08.27.448,vbt_B2_day4,2022.2.4,Win32,60.43026348,,,,,,,,,,,,,,,,,,,,grappen,images/br_grappen.png,images/cb_grappen.png,,grappen,,,,,,,,,,,0.010185171,-0.298148191,1,0,0,grappen,0,25,25,12,1
,,,,,00113,2023-12-14_16h08.27.448,vbt_B2_day4,2022.2.4,Win32,60.43026348,,,,,,,,,,,,,,,,,,,,bruin,images/br_bruin.png,images/cb_bruin.png,,bruin,,,,,,,,,,,0.010185171,-0.298148191,1,0,0,bruin,0,26,26,45,1
,,,,,00113,2023-12-14_16h08.27.448,vbt_B2_day4,2022.2.4,Win32,60.43026348,,,,,,,,,,,,,,,,,,,,schotel,images/br_schotel.png,images/cb_schotel.png,,schotel,,,,,,,,,,,0.010185171,-0.298148191,1,0,0,schotel,0,27,27,52,1
,,,,,00113,2023-12-14_16h08.27.448,vbt_B2_day4,2022.2.4,Win32,60.43026348,,,,,,,,,,,,,,,,,,,,wagon,images/br_wagon.png,images/cb_wagon.png,,kogen,,,,,,,,,,,0.010185171,-0.298148191,1,0,0,kogen,0,28,28,4,1
,,,,,00113,2023-12-14_16h08.27.448,vbt_B2_day4,2022.2.4,Win32,60.43026348,,,,,,,,,,,,,,,,,,,,seizoen,images/br_seizoen.png,images/cb_seizoen.png,,seizoen,,,,,,,,,,,0.010185171,-0.298148191,1,0,0,seizoen,0,29,29,13,1
,,,,,00113,2023-12-14_16h08.27.448,vbt_B2_day4,2022.2.4,Win32,60.43026348,,,,,,,,,,,,,,,,,,,,snee,images/br_snee.png,images/cb_snee.png,,snee,,,,,,,,,,,0.010185171,-0.298148191,1,0,0,snee,0,30,30,40,1
,,,,,00113,2023-12-14_16h08.27.448,vbt_B2_day4,2022.2.4,Win32,60.43026348,,,,,,,,,,,,,,,,,,,,kaal,images/br_kaal.png,images/cb_kaal.png,,kaal,,,,,,,,,,,0.010185171,-0.298148191,1,0,0,kaal,0,31,31,1,1
,,,,,00113,2023-12-14_16h08.27.448,vbt_B2_day4,2022.2.4,Win32,60.43026348,,,,,,,,,,,,,,,,,,,,lappen,images/br_lappen.png,images/cb_lappen.png,,lappen,,,,,,,,,,,0.010185171,-0.298148191,1,0,0,lappen,0,32,32,49,1
,,,,,00113,2023-12-14_16h08.27.448,vbt_B2_day4,2022.2.4,Win32,60.43026348,,,,,,,,,,,,,,,,,,,,bisschap,images/br_bisschap.png,images/cb_bisschap.png,,bisschap,,,,,,,,,,,0.010185171,-0.298148191,1,0,0,bisschap,0,33,33,36,1
,,,,,00113,2023-12-14_16h08.27.448,vbt_B2_day4,2022.2.4,Win32,60.43026348,,,,,,,,,,,,,,,,,,,,gijf,images/br_gijf.png,images/cb_gijf.png,,gejf,,,,,,,,,,,0.010185171,-0.298148191,1,0,0,gejf,0,34,34,23,1
,,,,,00113,2023-12-14_16h08.27.448,vbt_B2_day4,2022.2.4,Win32,60.43026348,,,,,,,,,,,,,,,,,,,,vreten,images/br_vreten.png,images/cb_vreten.png,,vreten,,,,,,,,,,,0.010185171,-0.298148191,1,0,0,vreten,0,35,35,11,1
,,,,,00113,2023-12-14_16h08.27.448,vbt_B2_day4,2022.2.4,Win32,60.43026348,,,,,,,,,,,,,,,,,,,,strok,images/br_strok.png,images/cb_strok.png,,strok,,,,,,,,,,,0.010185171,-0.298148191,1,0,0,strok,0,36,36,25,1
,,,,,00113,2023-12-14_16h08.27.448,vbt_B2_day4,2022.2.4,Win32,60.43026348,,,,,,,,,,,,,,,,,,,,paalbaak,images/br_paalbaak.png,images/cb_paalbaak.png,,paalbaak,,,,,,,,,,,0.010185171,-0.298148191,1,0,0,paalbaak,0,37,37,39,1
,,,,,00113,2023-12-14_16h08.27.448,vbt_B2_day4,2022.2.4,Win32,60.43026348,,,,,,,,,,,,,,,,,,,,seizoon,images/br_seizoon.png,images/cb_seizoon.png,,seizoon,,,,,,,,,,,0.010185171,-0.298148191,1,0,0,seizoon,0,38,38,33,1
,,,,,00113,2023-12-14_16h08.27.448,vbt_B2_day4,2022.2.4,Win32,60.43026348,,,,,,,,,,,,,,,,,,,,opkicht,images/br_opkicht.png,images/cb_opkicht.png,,opkicht,,,,,,,,,,,0.010185171,-0.298148191,1,0,0,opkicht,0,39,39,34,1
,,,,,00113,2023-12-14_16h08.27.448,vbt_B2_day4,2022.2.4,Win32,60.43026348,,,,,,,,,,,,,,,,,,,,pijnlijk,images/br_pijnlijk.png,images/cb_pijnlijk.png,,pijnlijk,,,,,,,,,,,0.01944443,-0.299074102,1,0,0,pijnlijk,0,40,40,58,1
,,,,,00113,2023-12-14_16h08.27.448,vbt_B2_day4,2022.2.4,Win32,60.43026348,,,,,,,,,,,,,,,,,,,,apparaat,images/br_apparaat.png,images/cb_apparaat.png,,affaraat,,,,,,,,,,,0.01944443,-0.299074102,1,0,0,affaraat,0,41,41,17,1
,,,,,00113,2023-12-14_16h08.27.448,vbt_B2_day4,2022.2.4,Win32,60.43026348,,,,,,,,,,,,,,,,,,,,baron,images/br_baron.png,images/cb_baron.png,,baron,,,,,,,,,,,0.01944443,-0.299074102,1,0,0,baron,0,42,42,5,1
,,,,,00113,2023-12-14_16h08.27.448,vbt_B2_day4,2022.2.4,Win32,60.43026348,,,,,,,,,,,,,,,,,,,,geheim,images/br_geheim.png,images/cb_geheim.png,,geheim,,,,,,,,,,,0.01944443,-0.299074102,1,0,0,geheim,0,43,43,8,1
,,,,,00113,2023-12-14_16h08.27.448,vbt_B2_day4,2022.2.4,Win32,60.43026348,,,,,,,,,,,,,,,,,,,,noodzaak,images/br_noodzaak.png,images/cb_noodzaak.png,,noodzaak,,,,,,,,,,,0.01944443,-0.299074102,1,0,0,noodzaak,0,44,44,56,1
,,,,,00113,2023-12-14_16h08.27.448,vbt_B2_day4,2022.2.4,Win32,60.43026348,,,,,,,,,,,,,,,,,,,,gaan,images/br_gaan.png,images/cb_gaan.png,,gaan,,,,,,,,,,,0.01944443,-0.299074102,1,0,0,gaan,0,45,45,41,1
,,,,,00113,2023-12-14_16h08.27.448,vbt_B2_day4,2022.2.4,Win32,60.43026348,,,,,,,,,,,,,,,,,,,,pittig,images/br_pittig.png,images/cb_pittig.png,,pittig,,,,,,,,,,,0.01944443,-0.299074102,1,0,0,pittig,0,46,46,51,1
,,,,,00113,2023-12-14_16h08.27.448,vbt_B2_day4,2022.2.4,Win32,60.43026348,,,,,,,,,,,,,,,,,,,,getucht,images/br_getucht.png,images/cb_getucht.png,,getucht,,,,,,,,,,,0.020370413,-0.313888903,1,0,0,getucht,0,47,47,35,1
,,,,,00113,2023-12-14_16h08.27.448,vbt_B2_day4,2022.2.4,Win32,60.43026348,,,,,,,,,,,,,,,,,,,,steen,images/br_steen.png,images/cb_steen.png,,steen,,,,,,,,,,,0.020370413,-0.313888903,1,0,0,steen,0,48,48,44,1
,,,,,00113,2023-12-14_16h08.27.448,vbt_B2_day4,2022.2.4,Win32,60.43026348,,,,,,,,,,,,,,,,,,,,waarop,images/br_waarop.png,images/cb_waarop.png,,jaarop,,,,,,,,,,,0.020370413,-0.313888903,1,0,0,jaarop,0,49,49,9,1
,,,,,00113,2023-12-14_16h08.27.448,vbt_B2_day4,2022.2.4,Win32,60.43026348,,,,,,,,,,,,,,,,,,,,kust,images/br_kust.png,images/cb_kust.png,,kust,,,,,,,,,,,0.020370413,-0.313888903,1,0,0,kust,0,50,50,0,1
,,,,,00113,2023-12-14_16h08.27.448,vbt_B2_day4,2022.2.4,Win32,60.43026348,,,,,,,,,,,,,,,,,,,,tucket,images/br_tucket.png,images/cb_tucket.png,,tucket,,,,,,,,,,,0.021296325,-0.308333362,1,0,0,tucket,0,51,51,30,1
,,,,,00113,2023-12-14_16h08.27.448,vbt_B2_day4,2022.2.4,Win32,60.43026348,,,,,,,,,,,,,,,,,,,,zaalrijk,images/br_zaalrijk.png,images/cb_zaalrijk.png,,zaalrijk,,,,,,,,,,,0.022222236,-0.306481467,1,0,0,zaalrijk,0,52,52,37,1
,,,,,00113,2023-12-14_16h08.27.448,vbt_B2_day4,2022.2.4,Win32,60.43026348,,,,,,,,,,,,,,,,,,,,gebit,images/br_gebit.png,images/cb_gebit.png,,gebit,,,,,,,,,,,0.022222236,-0.306481467,1,0,0,gebit,0,53,53,6,1
,,,,,00113,2023-12-14_16h08.27.448,vbt_B2_day4,2022.2.4,Win32,60.43026348,,,,,,,,,,,,,,,,,,,,haza,images/br_haza.png,images/cb_haza.png,,haza,,,,,,,,,,,0.022222236,-0.306481467,1,0,0,haza,0,54,54,21,1
,,,,,00113,2023-12-14_16h08.27.448,vbt_B2_day4,2022.2.4,Win32,60.43026348,,,,,,,,,,,,,,,,,,,,rijp,images/br_rijp.png,images/cb_rijp.png,,rijp,,,,,,,,,,,0.022222236,-0.306481467,1,0,0,rijp,0,55,55,2,1
,,,,,00113,2023-12-14_16h08.27.448,vbt_B2_day4,2022.2.4,Win32,60.43026348,,,,,,,,,,,,,,,,,,,,mekst,images/br_mekst.png,images/cb_mekst.png,,mekst,,,,,,,,,,,0.022222236,-0.306481467,1,0,0,mekst,0,56,56,27,1
,,,,,00113,2023-12-14_16h08.27.448,vbt_B2_day4,2022.2.4,Win32,60.43026348,,,,,,,,,,,,,,,,,,,,flippen,images/br_flippen.png,images/cb_flippen.png,,flippen,,,,,,,,,,,0.022222236,-0.306481467,1,0,0,flippen,0,57,57,54,1
,,,,,00113,2023-12-14_16h08.27.448,vbt_B2_day4,2022.2.4,Win32,60.43026348,,,,,,,,,,,,,,,,,,,,eerst,images/br_eerst.png,images/cb_eerst.png,,eerst,,,,,,,,,,,0.022222236,-0.306481467,1,0,0,eerst,0,58,58,47,1
,,,,,00113,2023-12-14_16h08.27.448,vbt_B2_day4,2022.2.4,Win32,60.43026348,,,,,,,,,,,,,,,,,,,,midden,images/br_midden.png,images/cb_midden.png,,midden,,,,,,,,,,,0.022222236,-0.306481467,1,0,0,midden,0,59,59,50,1
,,,,,00113,2023-12-14_16h08.27.448,vbt_B2_day4,2022.2.4,Win32,60.43026348,,,,,,,,,,,,,,,,,,,,,,,,,,,,,,,,,,,,,,,,,,,,,
