welcome_mouse.x,welcome_mouse.y,welcome_mouse.leftButton,welcome_mouse.midButton,welcome_mouse.rightButton,"ID",date,expName,psychopyVersion,OS,frameRate,trainInstr_mouse.x,trainInstr_mouse.y,trainInstr_mouse.leftButton,trainInstr_mouse.midButton,trainInstr_mouse.rightButton,translation_key.keys,translation_key.corr,translation_key.rt,testResp,word_rsp.text,trWrd_mouse.x,trWrd_mouse.y,trWrd_mouse.leftButton,trWrd_mouse.midButton,trWrd_mouse.rightButton,train_loop.thisRepN,train_loop.thisTrialN,train_loop.thisN,train_loop.thisIndex,train_loop.ran,nlWrd,brWrd,cbWrd,test,mouse.x,mouse.y,mouse.leftButton,mouse.midButton,mouse.rightButton,testInstr_mouse.x,testInstr_mouse.y,testInstr_mouse.leftButton,testInstr_mouse.midButton,testInstr_mouse.rightButton,test_mouse.x,test_mouse.y,test_mouse.leftButton,test_mouse.midButton,test_mouse.rightButton,test_response.text,test_loop.thisRepN,test_loop.thisTrialN,test_loop.thisN,test_loop.thisIndex,test_loop.ran
-0.237747072,-0.128996697,1,0,0,00015,2023-08-07_11h52.32.261,vbt_B2_day4,2022.2.4,Win32,60.74227055,,,,,,,,,,,,,,,,,,,,,,,,,,,,,,,,,,,,,,,,,,,,,
,,,,,00015,2023-08-07_11h52.32.261,vbt_B2_day4,2022.2.4,Win32,60.74227055,0.697873958,-0.090089717,1,0,0,,,,,,,,,,,,,,,,,,,,,,,,,,,,,,,,,,,,,,,,
,,,,,00015,2023-08-07_11h52.32.261,vbt_B2_day4,2022.2.4,Win32,60.74227055,,,,,,down,0,7.3003,invloed,,0.697873958,-0.090089717,1,0,0,0,0,0,145,1,invloed,images/br_invloed.png,images/cb_invloed.png,1,,,,,,,,,,,,,,,,,,,,,
,,,,,00015,2023-08-07_11h52.32.261,vbt_B2_day4,2022.2.4,Win32,60.74227055,,,,,,down,0,6.5338,zwart,,0.512602462,0.023852251,1,0,0,0,1,1,67,1,zwart,images/br_zwart.png,images/cb_zwart.png,1,,,,,,,,,,,,,,,,,,,,,
,,,,,00015,2023-08-07_11h52.32.261,vbt_B2_day4,2022.2.4,Win32,60.74227055,,,,,,down,0,2.5385,,,0.588563646,-0.167903678,1,0,0,0,2,2,141,1,knielen,images/br_knielen.png,images/cb_knielen.png,0,,,,,,,,,,,,,,,,,,,,,
,,,,,00015,2023-08-07_11h52.32.261,vbt_B2_day4,2022.2.4,Win32,60.74227055,,,,,,down,0,9.4514,,,0.576521265,-0.123438509,1,0,0,0,3,3,195,1,middelen,images/br_middelen.png,images/cb_middelen.png,0,,,,,,,,,,,,,,,,,,,,,
,,,,,00015,2023-08-07_11h52.32.261,vbt_B2_day4,2022.2.4,Win32,60.74227055,,,,,,down,0,33.6156,,,0.182819228,-0.016907459,1,0,0,0,4,4,70,1,ijdel,images/br_ijdel.png,images/cb_ijdel.png,0,,,,,,,,,,,,,,,,,,,,,
,,,,,00015,2023-08-07_11h52.32.261,vbt_B2_day4,2022.2.4,Win32,60.74227055,,,,,,down,0,6.1354,,,0.142985859,-0.032655539,1,0,0,0,5,5,133,1,seizoen,images/br_seizoen.png,images/cb_seizoen.png,0,,,,,,,,,,,,,,,,,,,,,
,,,,,00015,2023-08-07_11h52.32.261,vbt_B2_day4,2022.2.4,Win32,60.74227055,,,,,,down,0,5.5293,leuk,,0.142985859,-0.032655539,1,0,0,0,6,6,26,1,leuk,images/br_leuk.png,images/cb_leuk.png,1,,,,,,,,,,,,,,,,,,,,,
,,,,,00015,2023-08-07_11h52.32.261,vbt_B2_day4,2022.2.4,Win32,60.74227055,,,,,,down,0,1.8341,,,0.142985859,-0.032655539,1,0,0,0,7,7,126,1,kasteel,images/br_kasteel.png,images/cb_kasteel.png,0,,,,,,,,,,,,,,,,,,,,,
,,,,,00015,2023-08-07_11h52.32.261,vbt_B2_day4,2022.2.4,Win32,60.74227055,,,,,,down,0,3.829,zingen,,0.142985859,-0.032655539,1,0,0,0,8,8,106,1,zingen,images/br_zingen.png,images/cb_zingen.png,1,,,,,,,,,,,,,,,,,,,,,
,,,,,00015,2023-08-07_11h52.32.261,vbt_B2_day4,2022.2.4,Win32,60.74227055,,,,,,down,0,0.5237,,,0.142985859,-0.032655539,1,0,0,0,9,9,31,1,poes,images/br_poes.png,images/cb_poes.png,0,,,,,,,,,,,,,,,,,,,,,
,,,,,00015,2023-08-07_11h52.32.261,vbt_B2_day4,2022.2.4,Win32,60.74227055,,,,,,down,0,21.5985,,,0.10315249,-0.038213679,1,0,0,0,10,10,114,1,vullen,images/br_vullen.png,images/cb_vullen.png,0,,,,,,,,,,,,,,,,,,,,,
,,,,,00015,2023-08-07_11h52.32.261,vbt_B2_day4,2022.2.4,Win32,60.74227055,,,,,,down,0,0.833,,,0.10037342,-0.034508268,1,0,0,0,11,11,87,1,toeval,images/br_toeval.png,images/cb_toeval.png,0,,,,,,,,,,,,,,,,,,,,,
,,,,,00015,2023-08-07_11h52.32.261,vbt_B2_day4,2022.2.4,Win32,60.74227055,,,,,,down,0,0.4677,,,0.078140667,-0.016907459,1,0,0,0,12,12,169,1,oprotten,images/br_oprotten.png,images/cb_oprotten.png,0,,,,,,,,,,,,,,,,,,,,,
,,,,,00015,2023-08-07_11h52.32.261,vbt_B2_day4,2022.2.4,Win32,60.74227055,,,,,,down,0,12.3506,,,0.107784241,-0.10769043,1,0,0,0,13,13,164,1,anarchie,images/br_anarchie.png,images/cb_anarchie.png,0,,,,,,,,,,,,,,,,,,,,,
,,,,,00015,2023-08-07_11h52.32.261,vbt_B2_day4,2022.2.4,Win32,60.74227055,,,,,,down,0,6.6699,,,0.107784241,-0.10769043,1,0,0,0,14,14,14,1,rijp,images/br_rijp.png,images/cb_rijp.png,0,,,,,,,,,,,,,,,,,,,,,
,,,,,00015,2023-08-07_11h52.32.261,vbt_B2_day4,2022.2.4,Win32,60.74227055,,,,,,down,0,0.5015,,,0.107784241,-0.10769043,1,0,0,0,15,15,73,1,volop,images/br_volop.png,images/cb_volop.png,0,,,,,,,,,,,,,,,,,,,,,
,,,,,00015,2023-08-07_11h52.32.261,vbt_B2_day4,2022.2.4,Win32,60.74227055,,,,,,down,0,0.5513,,,0.107784241,-0.10769043,1,0,0,0,16,16,9,1,hier,images/br_hier.png,images/cb_hier.png,0,,,,,,,,,,,,,,,,,,,,,
,,,,,00015,2023-08-07_11h52.32.261,vbt_B2_day4,2022.2.4,Win32,60.74227055,,,,,,down,0,0.717,,,0.107784241,-0.10769043,1,0,0,0,17,17,175,1,heengaan,images/br_heengaan.png,images/cb_heengaan.png,0,,,,,,,,,,,,,,,,,,,,,
,,,,,00015,2023-08-07_11h52.32.261,vbt_B2_day4,2022.2.4,Win32,60.74227055,,,,,,down,0,0.3965,,,0.107784241,-0.10769043,1,0,0,0,18,18,53,1,baron,images/br_baron.png,images/cb_baron.png,0,,,,,,,,,,,,,,,,,,,,,
,,,,,00015,2023-08-07_11h52.32.261,vbt_B2_day4,2022.2.4,Win32,60.74227055,,,,,,down,0,0.9341,,,0.107784241,-0.10769043,1,0,0,0,19,19,61,1,groen,images/br_groen.png,images/cb_groen.png,0,,,,,,,,,,,,,,,,,,,,,
,,,,,00015,2023-08-07_11h52.32.261,vbt_B2_day4,2022.2.4,Win32,60.74227055,,,,,,down,0,3.9497,,,0.107784241,-0.10769043,1,0,0,0,20,20,193,1,weeshuis,images/br_weeshuis.png,images/cb_weeshuis.png,0,,,,,,,,,,,,,,,,,,,,,
,,,,,00015,2023-08-07_11h52.32.261,vbt_B2_day4,2022.2.4,Win32,60.74227055,,,,,,down,0,1.3299,,,0.107784241,-0.10769043,1,0,0,0,21,21,148,1,smullen,images/br_smullen.png,images/cb_smullen.png,0,,,,,,,,,,,,,,,,,,,,,
,,,,,00015,2023-08-07_11h52.32.261,vbt_B2_day4,2022.2.4,Win32,60.74227055,,,,,,down,0,0.0913,,,0.070729942,-0.103058726,1,0,0,0,22,22,17,1,taal,images/br_taal.png,images/cb_taal.png,0,,,,,,,,,,,,,,,,,,,,,
,,,,,00015,2023-08-07_11h52.32.261,vbt_B2_day4,2022.2.4,Win32,60.74227055,,,,,,down,0,2.518,,,0.059613566,-0.093795128,1,0,0,0,23,23,110,1,zuster,images/br_zuster.png,images/cb_zuster.png,0,,,,,,,,,,,,,,,,,,,,,
,,,,,00015,2023-08-07_11h52.32.261,vbt_B2_day4,2022.2.4,Win32,60.74227055,,,,,,down,0,7.7337,mijnheer,,0.066098191,-0.093795128,1,0,0,0,24,24,185,1,mijnheer,images/br_mijnheer.png,images/cb_mijnheer.png,1,,,,,,,,,,,,,,,,,,,,,
,,,,,00015,2023-08-07_11h52.32.261,vbt_B2_day4,2022.2.4,Win32,60.74227055,,,,,,down,0,0.3687,,,0.066098191,-0.093795128,1,0,0,0,25,25,177,1,maaltijd,images/br_maaltijd.png,images/cb_maaltijd.png,0,,,,,,,,,,,,,,,,,,,,,
,,,,,00015,2023-08-07_11h52.32.261,vbt_B2_day4,2022.2.4,Win32,60.74227055,,,,,,down,0,1.1337,,,0.066098191,-0.093795128,1,0,0,0,26,26,42,1,bleek,images/br_bleek.png,images/cb_bleek.png,0,,,,,,,,,,,,,,,,,,,,,
,,,,,00015,2023-08-07_11h52.32.261,vbt_B2_day4,2022.2.4,Win32,60.74227055,,,,,,down,0,9.0168,opwijken,,0.045718312,-0.087310647,1,0,0,0,27,27,187,1,opkijken,images/br_opkijken.png,images/cb_opkijken.png,1,,,,,,,,,,,,,,,,,,,,,
,,,,,00015,2023-08-07_11h52.32.261,vbt_B2_day4,2022.2.4,Win32,60.74227055,,,,,,down,0,3.3331,lever,,0.045718312,-0.087310647,1,0,0,0,28,28,66,1,lever,images/br_lever.png,images/cb_lever.png,1,,,,,,,,,,,,,,,,,,,,,
,,,,,00015,2023-08-07_11h52.32.261,vbt_B2_day4,2022.2.4,Win32,60.74227055,,,,,,down,0,1.141,,,0.045718312,-0.087310647,1,0,0,0,29,29,6,1,diep,images/br_diep.png,images/cb_diep.png,0,,,,,,,,,,,,,,,,,,,,,
,,,,,00015,2023-08-07_11h52.32.261,vbt_B2_day4,2022.2.4,Win32,60.74227055,,,,,,down,0,2.8175,,,0.045718312,-0.087310647,1,0,0,0,30,30,86,1,woning,images/br_woning.png,images/cb_woning.png,0,,,,,,,,,,,,,,,,,,,,,
,,,,,00015,2023-08-07_11h52.32.261,vbt_B2_day4,2022.2.4,Win32,60.74227055,,,,,,down,0,0.5831,,,0.051276356,-0.177167325,1,0,0,0,31,31,93,1,waarop,images/br_waarop.png,images/cb_waarop.png,0,,,,,,,,,,,,,,,,,,,,,
,,,,,00015,2023-08-07_11h52.32.261,vbt_B2_day4,2022.2.4,Win32,60.74227055,,,,,,down,0,0.7175,,,0.264338552,-0.108616866,1,0,0,0,32,32,77,1,woede,images/br_woede.png,images/cb_woede.png,0,,,,,,,,,,,,,,,,,,,,,
,,,,,00015,2023-08-07_11h52.32.261,vbt_B2_day4,2022.2.4,Win32,60.74227055,,,,,,down,0,2.7067,,,0.246737743,-0.1104695,1,0,0,0,33,33,74,1,graaf,images/br_graaf.png,images/cb_graaf.png,0,,,,,,,,,,,,,,,,,,,,,
,,,,,00015,2023-08-07_11h52.32.261,vbt_B2_day4,2022.2.4,Win32,60.74227055,,,,,,down,0,1.9677,,,0.180966355,-0.103985067,1,0,0,0,34,34,72,1,strak,images/br_strak.png,images/cb_strak.png,0,,,,,,,,,,,,,,,,,,,,,
,,,,,00015,2023-08-07_11h52.32.261,vbt_B2_day4,2022.2.4,Win32,60.74227055,,,,,,down,0,3.5566,,,0.180040158,-0.101205997,1,0,0,0,35,35,162,1,uitdelen,images/br_uitdelen.png,images/cb_uitdelen.png,0,,,,,,,,,,,,,,,,,,,,,
,,,,,00015,2023-08-07_11h52.32.261,vbt_B2_day4,2022.2.4,Win32,60.74227055,,,,,,down,0,0.0842,,,0.12260598,-0.068783497,1,0,0,0,36,36,29,1,baas,images/br_baas.png,images/cb_baas.png,0,,,,,,,,,,,,,,,,,,,,,
,,,,,00015,2023-08-07_11h52.32.261,vbt_B2_day4,2022.2.4,Win32,60.74227055,,,,,,down,0,0.2508,,,0.118900425,-0.06229892,1,0,0,0,37,37,18,1,blik,images/br_blik.png,images/cb_blik.png,0,,,,,,,,,,,,,,,,,,,,,
,,,,,00015,2023-08-07_11h52.32.261,vbt_B2_day4,2022.2.4,Win32,60.74227055,,,,,,down,0,1.6846,,,0.118900425,-0.06229892,1,0,0,0,38,38,163,1,schuilen,images/br_schuilen.png,images/cb_schuilen.png,0,,,,,,,,,,,,,,,,,,,,,
,,,,,00015,2023-08-07_11h52.32.261,vbt_B2_day4,2022.2.4,Win32,60.74227055,,,,,,down,0,0.2012,,,0.118900425,-0.06229892,1,0,0,0,39,39,4,1,moes,images/br_moes.png,images/cb_moes.png,0,,,,,,,,,,,,,,,,,,,,,
,,,,,00015,2023-08-07_11h52.32.261,vbt_B2_day4,2022.2.4,Win32,60.74227055,,,,,,down,0,0.9677,,,-0.145111276,-0.00115938,1,0,0,0,40,40,167,1,eenhoorn,images/br_eenhoorn.png,images/cb_eenhoorn.png,0,,,,,,,,,,,,,,,,,,,,,
,,,,,00015,2023-08-07_11h52.32.261,vbt_B2_day4,2022.2.4,Win32,60.74227055,,,,,,down,0,0.1675,,,0.081846222,-0.165124656,1,0,0,0,41,41,171,1,aarzelen,images/br_aarzelen.png,images/cb_aarzelen.png,0,,,,,,,,,,,,,,,,,,,,,
,,,,,00015,2023-08-07_11h52.32.261,vbt_B2_day4,2022.2.4,Win32,60.74227055,,,,,,down,0,0.071,,,0.001253095,-0.126217627,1,0,0,0,42,42,134,1,geliefd,images/br_geliefd.png,images/cb_geliefd.png,0,,,,,,,,,,,,,,,,,,,,,
,,,,,00015,2023-08-07_11h52.32.261,vbt_B2_day4,2022.2.4,Win32,60.74227055,,,,,,down,0,0.1007,,,-0.134921385,-0.088236987,1,0,0,0,43,43,22,1,stof,images/br_stof.png,images/cb_stof.png,0,,,,,,,,,,,,,,,,,,,,,
,,,,,00015,2023-08-07_11h52.32.261,vbt_B2_day4,2022.2.4,Win32,60.74227055,,,,,,down,0,1.569,,,-0.222925381,-0.024318329,1,0,0,0,44,44,85,1,heilig,images/br_heilig.png,images/cb_heilig.png,0,,,,,,,,,,,,,,,,,,,,,
,,,,,00015,2023-08-07_11h52.32.261,vbt_B2_day4,2022.2.4,Win32,60.74227055,,,,,,down,0,0.5255,,,-0.403565078,0.03404219,1,0,0,0,45,45,157,1,uitlaat,images/br_uitlaat.png,images/cb_uitlaat.png,0,,,,,,,,,,,,,,,,,,,,,
,,,,,00015,2023-08-07_11h52.32.261,vbt_B2_day4,2022.2.4,Win32,60.74227055,,,,,,down,0,1.3135,,,-0.068223656,-0.128996697,1,0,0,0,46,46,137,1,trekker,images/br_trekker.png,images/cb_trekker.png,0,,,,,,,,,,,,,,,,,,,,,
,,,,,00015,2023-08-07_11h52.32.261,vbt_B2_day4,2022.2.4,Win32,60.74227055,,,,,,down,0,3.0837,,,0.088330751,-0.186430876,1,0,0,0,47,47,180,1,openbaar,images/br_openbaar.png,images/cb_openbaar.png,0,,,,,,,,,,,,,,,,,,,,,
,,,,,00015,2023-08-07_11h52.32.261,vbt_B2_day4,2022.2.4,Win32,60.74227055,,,,,,down,0,0.1361,,,-0.018200395,-0.143818436,1,0,0,0,48,48,36,1,vuur,images/br_vuur.png,images/cb_vuur.png,0,,,,,,,,,,,,,,,,,,,,,
,,,,,00015,2023-08-07_11h52.32.261,vbt_B2_day4,2022.2.4,Win32,60.74227055,,,,,,down,0,0.3678,,,0.098520642,-0.170682796,1,0,0,0,49,49,55,1,praat,images/br_praat.png,images/cb_praat.png,0,,,,,,,,,,,,,,,,,,,,,
,,,,,00015,2023-08-07_11h52.32.261,vbt_B2_day4,2022.2.4,Win32,60.74227055,,,,,,down,0,2.9817,,,0.014222153,-0.146597506,1,0,0,0,50,50,156,1,rechten,images/br_rechten.png,images/cb_rechten.png,0,,,,,,,,,,,,,,,,,,,,,
,,,,,00015,2023-08-07_11h52.32.261,vbt_B2_day4,2022.2.4,Win32,60.74227055,,,,,,down,0,1.4109,,,0.079067152,-0.191989016,1,0,0,0,51,51,40,1,schep,images/br_schep.png,images/cb_schep.png,0,,,,,,,,,,,,,,,,,,,,,
,,,,,00015,2023-08-07_11h52.32.261,vbt_B2_day4,2022.2.4,Win32,60.74227055,,,,,,down,0,5.4505,,,0.168923878,-0.242938665,1,0,0,0,52,52,129,1,verhaal,images/br_verhaal.png,images/cb_verhaal.png,0,,,,,,,,,,,,,,,,,,,,,
,,,,,00015,2023-08-07_11h52.32.261,vbt_B2_day4,2022.2.4,Win32,60.74227055,,,,,,down,0,1.1764,,,0.082772611,-0.186430876,1,0,0,0,53,53,52,1,wagon,images/br_wagon.png,images/cb_wagon.png,0,,,,,,,,,,,,,,,,,,,,,
,,,,,00015,2023-08-07_11h52.32.261,vbt_B2_day4,2022.2.4,Win32,60.74227055,,,,,,down,0,1.3679,,,0.008664013,-0.111395937,1,0,0,0,54,54,59,1,kring,images/br_kring.png,images/cb_kring.png,0,,,,,,,,,,,,,,,,,,,,,
,,,,,00015,2023-08-07_11h52.32.261,vbt_B2_day4,2022.2.4,Win32,60.74227055,,,,,,down,0,2.7526,,,-0.164564766,-0.01505473,1,0,0,0,55,55,174,1,stemming,images/br_stemming.png,images/cb_stemming.png,0,,,,,,,,,,,,,,,,,,,,,
,,,,,00015,2023-08-07_11h52.32.261,vbt_B2_day4,2022.2.4,Win32,60.74227055,,,,,,down,0,4.7254,komisch,,-0.395227868,-0.193841745,1,0,0,0,56,56,147,1,komisch,images/br_komisch.png,images/cb_komisch.png,1,,,,,,,,,,,,,,,,,,,,,
,,,,,00015,2023-08-07_11h52.32.261,vbt_B2_day4,2022.2.4,Win32,60.74227055,,,,,,down,0,0.3117,,,-0.205324572,-0.154934716,1,0,0,0,57,57,75,1,snoep,images/br_snoep.png,images/cb_snoep.png,0,,,,,,,,,,,,,,,,,,,,,
,,,,,00015,2023-08-07_11h52.32.261,vbt_B2_day4,2022.2.4,Win32,60.74227055,,,,,,down,0,0.2674,,,-0.375774329,-0.005791179,1,0,0,0,58,58,0,1,slak,images/br_slak.png,images/cb_slak.png,0,,,,,,,,,,,,,,,,,,,,,
,,,,,00015,2023-08-07_11h52.32.261,vbt_B2_day4,2022.2.4,Win32,60.74227055,,,,,,down,0,0.3038,,,-0.29147584,-0.078973437,1,0,0,0,59,59,21,1,mist,images/br_mist.png,images/cb_mist.png,0,,,,,,,,,,,,,,,,,,,,,
,,,,,00015,2023-08-07_11h52.32.261,vbt_B2_day4,2022.2.4,Win32,60.74227055,,,,,,down,0,0.369,,,-0.263685091,-0.178093665,1,0,0,0,60,60,19,1,geit,images/br_geit.png,images/cb_geit.png,0,,,,,,,,,,,,,,,,,,,,,
,,,,,00015,2023-08-07_11h52.32.261,vbt_B2_day4,2022.2.4,Win32,60.74227055,,,,,,down,0,0.9771,,,-0.277580441,-0.082678847,1,0,0,0,61,61,124,1,bloeien,images/br_bloeien.png,images/cb_bloeien.png,0,,,,,,,,,,,,,,,,,,,,,
,,,,,00015,2023-08-07_11h52.32.261,vbt_B2_day4,2022.2.4,Win32,60.74227055,,,,,,down,0,2.1053,,,-0.276654101,-0.109543207,1,0,0,0,62,62,95,1,vreten,images/br_vreten.png,images/cb_vreten.png,0,,,,,,,,,,,,,,,,,,,,,
,,,,,00015,2023-08-07_11h52.32.261,vbt_B2_day4,2022.2.4,Win32,60.74227055,,,,,,down,0,1.7845,,,-0.201619162,-0.132702156,1,0,0,0,63,63,2,1,jaar,images/br_jaar.png,images/cb_jaar.png,0,,,,,,,,,,,,,,,,,,,,,
,,,,,00015,2023-08-07_11h52.32.261,vbt_B2_day4,2022.2.4,Win32,60.74227055,,,,,,down,0,0.652,,,-0.272022301,-0.096574198,1,0,0,0,64,64,165,1,feestdag,images/br_feestdag.png,images/cb_feestdag.png,0,,,,,,,,,,,,,,,,,,,,,
,,,,,00015,2023-08-07_11h52.32.261,vbt_B2_day4,2022.2.4,Win32,60.74227055,,,,,,down,0,3.379,plek,,-0.352615429,-0.088236987,1,0,0,0,65,65,25,1,plek,images/br_plek.png,images/cb_plek.png,1,,,,,,,,,,,,,,,,,,,,,
,,,,,00015,2023-08-07_11h52.32.261,vbt_B2_day4,2022.2.4,Win32,60.74227055,,,,,,down,0,1.5842,,,-0.423018568,0.012735971,1,0,0,0,66,66,32,1,palm,images/br_palm.png,images/cb_palm.png,0,,,,,,,,,,,,,,,,,,,,,
,,,,,00015,2023-08-07_11h52.32.261,vbt_B2_day4,2022.2.4,Win32,60.74227055,,,,,,down,0,0.7838,,,-0.473041877,0.03682126,1,0,0,0,67,67,34,1,vorm,images/br_vorm.png,images/cb_vorm.png,0,,,,,,,,,,,,,,,,,,,,,
,,,,,00015,2023-08-07_11h52.32.261,vbt_B2_day4,2022.2.4,Win32,60.74227055,,,,,,down,0,0.1733,,,-0.3785534,0.048863881,1,0,0,0,68,68,115,1,kleren,images/br_kleren.png,images/cb_kleren.png,0,,,,,,,,,,,,,,,,,,,,,
,,,,,00015,2023-08-07_11h52.32.261,vbt_B2_day4,2022.2.4,Win32,60.74227055,,,,,,down,0,0.9186,,,-0.260906021,-0.124364946,1,0,0,0,69,69,28,1,stal,images/br_stal.png,images/cb_stal.png,0,,,,,,,,,,,,,,,,,,,,,
,,,,,00015,2023-08-07_11h52.32.261,vbt_B2_day4,2022.2.4,Win32,60.74227055,,,,,,down,0,0.8667,,,-0.30073939,-0.094721468,1,0,0,0,70,70,192,1,schaamte,images/br_schaamte.png,images/cb_schaamte.png,0,,,,,,,,,,,,,,,,,,,,,
,,,,,00015,2023-08-07_11h52.32.261,vbt_B2_day4,2022.2.4,Win32,60.74227055,,,,,,down,0,0.1334,,,-0.32204561,-0.080826118,1,0,0,0,71,71,116,1,besmet,images/br_besmet.png,images/cb_besmet.png,0,,,,,,,,,,,,,,,,,,,,,
,,,,,00015,2023-08-07_11h52.32.261,vbt_B2_day4,2022.2.4,Win32,60.74227055,,,,,,down,0,1.684,,,-0.322971951,-0.080826118,1,0,0,0,72,72,150,1,gegeven,images/br_gegeven.png,images/cb_gegeven.png,0,,,,,,,,,,,,,,,,,,,,,
,,,,,00015,2023-08-07_11h52.32.261,vbt_B2_day4,2022.2.4,Win32,60.74227055,,,,,,down,0,0.1335,,,-0.334088279,-0.082678847,1,0,0,0,73,73,83,1,mening,images/br_mening.png,images/cb_mening.png,0,,,,,,,,,,,,,,,,,,,,,
,,,,,00015,2023-08-07_11h52.32.261,vbt_B2_day4,2022.2.4,Win32,60.74227055,,,,,,down,0,0.3863,,,-0.33872003,-0.073415249,1,0,0,0,74,74,88,1,boeien,images/br_boeien.png,images/cb_boeien.png,0,,,,,,,,,,,,,,,,,,,,,
,,,,,00015,2023-08-07_11h52.32.261,vbt_B2_day4,2022.2.4,Win32,60.74227055,,,,,,down,0,1.95,,,-0.298886661,-0.049329959,1,0,0,0,75,75,96,1,slagen,images/br_slagen.png,images/cb_slagen.png,0,,,,,,,,,,,,,,,,,,,,,
,,,,,00015,2023-08-07_11h52.32.261,vbt_B2_day4,2022.2.4,Win32,60.74227055,,,,,,down,0,2.5369,,,-0.29703398,-0.059519898,1,0,0,0,76,76,136,1,waarbij,images/br_waarbij.png,images/cb_waarbij.png,0,,,,,,,,,,,,,,,,,,,,,
,,,,,00015,2023-08-07_11h52.32.261,vbt_B2_day4,2022.2.4,Win32,60.74227055,,,,,,down,0,3.5531,,,-0.197913703,-0.083605188,1,0,0,0,77,77,178,1,huisdier,images/br_huisdier.png,images/cb_huisdier.png,0,,,,,,,,,,,,,,,,,,,,,
,,,,,00015,2023-08-07_11h52.32.261,vbt_B2_day4,2022.2.4,Win32,60.74227055,,,,,,down,0,4.5457,,,-0.125657786,-0.050256348,1,0,0,0,78,78,182,1,bijkomen,images/br_bijkomen.png,images/cb_bijkomen.png,0,,,,,,,,,,,,,,,,,,,,,
,,,,,00015,2023-08-07_11h52.32.261,vbt_B2_day4,2022.2.4,Win32,60.74227055,,,,,,down,0,2.3739,,,-0.234968002,0.012735971,1,0,0,0,79,79,153,1,vervoer,images/br_vervoer.png,images/cb_vervoer.png,0,,,,,,,,,,,,,,,,,,,,,
,,,,,00015,2023-08-07_11h52.32.261,vbt_B2_day4,2022.2.4,Win32,60.74227055,,,,,,down,0,0.7598,,,-0.34705724,-0.011349319,1,0,0,0,80,80,128,1,prikken,images/br_prikken.png,images/cb_prikken.png,0,,,,,,,,,,,,,,,,,,,,,
,,,,,00015,2023-08-07_11h52.32.261,vbt_B2_day4,2022.2.4,Win32,60.74227055,,,,,,down,0,5.9588,,,-0.34057276,-0.015981119,1,0,0,0,81,81,168,1,bisschop,images/br_bisschop.png,images/cb_bisschop.png,0,,,,,,,,,,,,,,,,,,,,,
,,,,,00015,2023-08-07_11h52.32.261,vbt_B2_day4,2022.2.4,Win32,60.74227055,,,,,,down,0,0.0843,,,-0.34335183,-0.016907459,1,0,0,0,82,82,152,1,afnemen,images/br_afnemen.png,images/cb_afnemen.png,0,,,,,,,,,,,,,,,,,,,,,
,,,,,00015,2023-08-07_11h52.32.261,vbt_B2_day4,2022.2.4,Win32,60.74227055,,,,,,down,0,7.1356,wijlen,,-0.34335183,-0.103985067,1,0,0,0,83,83,105,1,wijlen,images/br_wijlen.png,images/cb_wijlen.png,1,,,,,,,,,,,,,,,,,,,,,
,,,,,00015,2023-08-07_11h52.32.261,vbt_B2_day4,2022.2.4,Win32,60.74227055,,,,,,down,0,0.0199,,,-0.379479788,-0.075267978,1,0,0,0,84,84,112,1,lukken,images/br_lukken.png,images/cb_lukken.png,0,,,,,,,,,,,,,,,,,,,,,
,,,,,00015,2023-08-07_11h52.32.261,vbt_B2_day4,2022.2.4,Win32,60.74227055,,,,,,down,0,2.3206,,,-0.317413811,-0.014128389,1,0,0,0,85,85,189,1,aanraden,images/br_aanraden.png,images/cb_aanraden.png,0,,,,,,,,,,,,,,,,,,,,,
,,,,,00015,2023-08-07_11h52.32.261,vbt_B2_day4,2022.2.4,Win32,60.74227055,,,,,,down,0,4.9402,,,-0.311855671,-0.050256348,1,0,0,0,86,86,94,1,oceaan,images/br_oceaan.png,images/cb_oceaan.png,0,,,,,,,,,,,,,,,,,,,,,
,,,,,00015,2023-08-07_11h52.32.261,vbt_B2_day4,2022.2.4,Win32,60.74227055,,,,,,down,0,5.0617,,,-0.309076601,-0.049329959,1,0,0,0,87,87,102,1,legaal,images/br_legaal.png,images/cb_legaal.png,0,,,,,,,,,,,,,,,,,,,,,
,,,,,00015,2023-08-07_11h52.32.261,vbt_B2_day4,2022.2.4,Win32,60.74227055,,,,,,down,0,4.0681,aandelen,,-0.423018568,-0.158640175,1,0,0,0,88,88,184,1,aandelen,images/br_aandelen.png,images/cb_aandelen.png,1,,,,,,,,,,,,,,,,,,,,,
,,,,,00015,2023-08-07_11h52.32.261,vbt_B2_day4,2022.2.4,Win32,60.74227055,,,,,,down,0,6.2017,,,-0.517507045,0.023852251,1,0,0,0,89,89,98,1,kreeft,images/br_kreeft.png,images/cb_kreeft.png,0,,,,,,,,,,,,,,,,,,,,,
,,,,,00015,2023-08-07_11h52.32.261,vbt_B2_day4,2022.2.4,Win32,60.74227055,,,,,,down,0,20.6699,,,-0.474894606,-0.127144016,1,0,0,0,90,90,45,1,piste,images/br_piste.png,images/cb_piste.png,0,,,,,,,,,,,,,,,,,,,,,
,,,,,00015,2023-08-07_11h52.32.261,vbt_B2_day4,2022.2.4,Win32,60.74227055,,,,,,down,0,0.9687,,,0.362532584,-0.103985067,1,0,0,0,91,91,138,1,akkoord,images/br_akkoord.png,images/cb_akkoord.png,0,,,,,,,,,,,,,,,,,,,,,
,,,,,00015,2023-08-07_11h52.32.261,vbt_B2_day4,2022.2.4,Win32,60.74227055,,,,,,down,0,6.2204,,,-0.251642422,-0.079899777,1,0,0,0,92,92,161,1,attentie,images/br_attentie.png,images/cb_attentie.png,0,,,,,,,,,,,,,,,,,,,,,
,,,,,00015,2023-08-07_11h52.32.261,vbt_B2_day4,2022.2.4,Win32,60.74227055,,,,,,down,0,0.1107,,,-0.28962311,-0.079899777,1,0,0,0,93,93,90,1,geluid,images/br_geluid.png,images/cb_geluid.png,0,,,,,,,,,,,,,,,,,,,,,
,,,,,00015,2023-08-07_11h52.32.261,vbt_B2_day4,2022.2.4,Win32,60.74227055,,,,,,down,0,0.0518,,,-0.30537119,-0.072488908,1,0,0,0,94,94,130,1,keihard,images/br_keihard.png,images/cb_keihard.png,0,,,,,,,,,,,,,,,,,,,,,
,,,,,00015,2023-08-07_11h52.32.261,vbt_B2_day4,2022.2.4,Win32,60.74227055,,,,,,down,0,11.1023,,,-0.320192881,-0.085457917,1,0,0,0,95,95,117,1,kennis,images/br_kennis.png,images/cb_kennis.png,0,,,,,,,,,,,,,,,,,,,,,
,,,,,00015,2023-08-07_11h52.32.261,vbt_B2_day4,2022.2.4,Win32,60.74227055,,,,,,down,0,4.1218,,,-0.31648747,-0.082678847,1,0,0,0,96,96,135,1,gedicht,images/br_gedicht.png,images/cb_gedicht.png,0,,,,,,,,,,,,,,,,,,,,,
,,,,,00015,2023-08-07_11h52.32.261,vbt_B2_day4,2022.2.4,Win32,60.74227055,,,,,,down,0,0.252,,,-0.315561129,-0.072488908,1,0,0,0,97,97,109,1,totaal,images/br_totaal.png,images/cb_totaal.png,0,,,,,,,,,,,,,,,,,,,,,
,,,,,00015,2023-08-07_11h52.32.261,vbt_B2_day4,2022.2.4,Win32,60.74227055,,,,,,down,0,0.0031,,,-0.311855671,-0.078973437,1,0,0,0,98,98,5,1,blad,images/br_blad.png,images/cb_blad.png,0,,,,,,,,,,,,,,,,,,,,,
,,,,,00015,2023-08-07_11h52.32.261,vbt_B2_day4,2022.2.4,Win32,60.74227055,,,,,,down,0,1.0592,,,-0.30815026,-0.079899777,1,0,0,0,99,99,57,1,steek,images/br_steek.png,images/cb_steek.png,0,,,,,,,,,,,,,,,,,,,,,
,,,,,00015,2023-08-07_11h52.32.261,vbt_B2_day4,2022.2.4,Win32,60.74227055,,,,,,down,0,0.3995,,,-0.2812859,-0.091942398,1,0,0,0,100,100,97,1,loyaal,images/br_loyaal.png,images/cb_loyaal.png,0,,,,,,,,,,,,,,,,,,,,,
,,,,,00015,2023-08-07_11h52.32.261,vbt_B2_day4,2022.2.4,Win32,60.74227055,,,,,,down,0,0.6662,,,-0.288696722,-0.085457917,1,0,0,0,101,101,166,1,strikken,images/br_strikken.png,images/cb_strikken.png,0,,,,,,,,,,,,,,,,,,,,,
,,,,,00015,2023-08-07_11h52.32.261,vbt_B2_day4,2022.2.4,Win32,60.74227055,,,,,,down,0,0.1409,,,-0.28962311,-0.085457917,1,0,0,0,102,102,58,1,tekst,images/br_tekst.png,images/cb_tekst.png,0,,,,,,,,,,,,,,,,,,,,,
,,,,,00015,2023-08-07_11h52.32.261,vbt_B2_day4,2022.2.4,Win32,60.74227055,,,,,,down,0,1.4609,,,-0.29240218,-0.082678847,1,0,0,0,103,103,11,1,mode,images/br_mode.png,images/cb_mode.png,0,,,,,,,,,,,,,,,,,,,,,
,,,,,00015,2023-08-07_11h52.32.261,vbt_B2_day4,2022.2.4,Win32,60.74227055,,,,,,down,0,0.3851,,,-0.29703398,-0.080826118,1,0,0,0,104,104,81,1,dubbel,images/br_dubbel.png,images/cb_dubbel.png,0,,,,,,,,,,,,,,,,,,,,,
,,,,,00015,2023-08-07_11h52.32.261,vbt_B2_day4,2022.2.4,Win32,60.74227055,,,,,,down,0,4.0946,,,-0.29518125,-0.074341637,1,0,0,0,105,105,7,1,geld,images/br_geld.png,images/cb_geld.png,0,,,,,,,,,,,,,,,,,,,,,
,,,,,00015,2023-08-07_11h52.32.261,vbt_B2_day4,2022.2.4,Win32,60.74227055,,,,,,down,0,1.1033,,,-0.274801371,-0.089163328,1,0,0,0,106,106,10,1,leek,images/br_leek.png,images/cb_leek.png,0,,,,,,,,,,,,,,,,,,,,,
,,,,,00015,2023-08-07_11h52.32.261,vbt_B2_day4,2022.2.4,Win32,60.74227055,,,,,,down,0,0.554,,,-0.288696722,-0.066004427,1,0,0,0,107,107,30,1,uien,images/br_uien.png,images/cb_uien.png,0,,,,,,,,,,,,,,,,,,,,,
,,,,,00015,2023-08-07_11h52.32.261,vbt_B2_day4,2022.2.4,Win32,60.74227055,,,,,,down,0,3.0876,,,-0.268316891,-0.077120707,1,0,0,0,108,108,131,1,opzicht,images/br_opzicht.png,images/cb_opzicht.png,0,,,,,,,,,,,,,,,,,,,,,
,,,,,00015,2023-08-07_11h52.32.261,vbt_B2_day4,2022.2.4,Win32,60.74227055,,,,,,down,0,0.7371,,,-0.279433171,-0.089163328,1,0,0,0,109,109,71,1,bever,images/br_bever.png,images/cb_bever.png,0,,,,,,,,,,,,,,,,,,,,,
,,,,,00015,2023-08-07_11h52.32.261,vbt_B2_day4,2022.2.4,Win32,60.74227055,,,,,,down,0,0.9026,,,-0.259053292,-0.103058726,1,0,0,0,110,110,123,1,hiervan,images/br_hiervan.png,images/cb_hiervan.png,0,,,,,,,,,,,,,,,,,,,,,
,,,,,00015,2023-08-07_11h52.32.261,vbt_B2_day4,2022.2.4,Win32,60.74227055,,,,,,down,0,1.4694,,,-0.265537821,-0.091016058,1,0,0,0,111,111,46,1,jagen,images/br_jagen.png,images/cb_jagen.png,0,,,,,,,,,,,,,,,,,,,,,
,,,,,00015,2023-08-07_11h52.32.261,vbt_B2_day4,2022.2.4,Win32,60.74227055,,,,,,down,0,1.4889,,,-0.283138582,-0.070636179,1,0,0,0,112,112,149,1,redding,images/br_redding.png,images/cb_redding.png,0,,,,,,,,,,,,,,,,,,,,,
,,,,,00015,2023-08-07_11h52.32.261,vbt_B2_day4,2022.2.4,Win32,60.74227055,,,,,,down,0,0.7438,,,-0.268316891,-0.062298968,1,0,0,0,113,113,198,1,bedoelen,images/br_bedoelen.png,images/cb_bedoelen.png,0,,,,,,,,,,,,,,,,,,,,,
,,,,,00015,2023-08-07_11h52.32.261,vbt_B2_day4,2022.2.4,Win32,60.74227055,,,,,,down,0,2.5881,parel,,-0.3414991,-0.105837796,1,0,0,0,114,114,65,1,parel,images/br_parel.png,images/cb_parel.png,1,,,,,,,,,,,,,,,,,,,,,
,,,,,00015,2023-08-07_11h52.32.261,vbt_B2_day4,2022.2.4,Win32,60.74227055,,,,,,down,0,1.577,eetlust,,-0.389669728,-0.164198315,1,0,0,0,115,115,144,1,eetlust,images/br_eetlust.png,images/cb_eetlust.png,1,,,,,,,,,,,,,,,,,,,,,
,,,,,00015,2023-08-07_11h52.32.261,vbt_B2_day4,2022.2.4,Win32,60.74227055,,,,,,down,0,0.1859,,,-0.398933278,-0.210516165,1,0,0,0,116,116,100,1,geduld,images/br_geduld.png,images/cb_geduld.png,0,,,,,,,,,,,,,,,,,,,,,
,,,,,00015,2023-08-07_11h52.32.261,vbt_B2_day4,2022.2.4,Win32,60.74227055,,,,,,down,0,0.3014,,,-0.417460428,-0.160492856,1,0,0,0,117,117,142,1,snuiven,images/br_snuiven.png,images/cb_snuiven.png,0,,,,,,,,,,,,,,,,,,,,,
,,,,,00015,2023-08-07_11h52.32.261,vbt_B2_day4,2022.2.4,Win32,60.74227055,,,,,,down,0,3.1524,,,-0.424871298,-0.154008376,1,0,0,0,118,118,127,1,doodmoe,images/br_doodmoe.png,images/cb_doodmoe.png,0,,,,,,,,,,,,,,,,,,,,,
,,,,,00015,2023-08-07_11h52.32.261,vbt_B2_day4,2022.2.4,Win32,60.74227055,,,,,,down,0,6.6548,,,-0.411902288,-0.155861105,1,0,0,0,119,119,79,1,nodig,images/br_nodig.png,images/cb_nodig.png,0,,,,,,,,,,,,,,,,,,,,,
,,,,,00015,2023-08-07_11h52.32.261,vbt_B2_day4,2022.2.4,Win32,60.74227055,,,,,,down,0,2.9042,,,-0.32482468,-0.183651805,1,0,0,0,120,120,50,1,stoom,images/br_stoom.png,images/cb_stoom.png,0,,,,,,,,,,,,,,,,,,,,,
,,,,,00015,2023-08-07_11h52.32.261,vbt_B2_day4,2022.2.4,Win32,60.74227055,,,,,,down,0,0.8097,,,-0.434134848,-0.188283605,1,0,0,0,121,121,76,1,afval,images/br_afval.png,images/cb_afval.png,0,,,,,,,,,,,,,,,,,,,,,
,,,,,00015,2023-08-07_11h52.32.261,vbt_B2_day4,2022.2.4,Win32,60.74227055,,,,,,down,0,5.7423,,,-0.391522409,-0.138260296,1,0,0,0,122,122,122,1,waarvan,images/br_waarvan.png,images/cb_waarvan.png,0,,,,,,,,,,,,,,,,,,,,,
,,,,,00015,2023-08-07_11h52.32.261,vbt_B2_day4,2022.2.4,Win32,60.74227055,,,,,,down,0,4.6718,maling,,-0.386890658,-0.126217627,1,0,0,0,123,123,107,1,maling,images/br_maling.png,images/cb_maling.png,1,,,,,,,,,,,,,,,,,,,,,
,,,,,00015,2023-08-07_11h52.32.261,vbt_B2_day4,2022.2.4,Win32,60.74227055,,,,,,down,0,12.1689,,,-0.391522409,-0.135481226,1,0,0,0,124,124,121,1,twijfel,images/br_twijfel.png,images/cb_twijfel.png,0,,,,,,,,,,,,,,,,,,,,,
,,,,,00015,2023-08-07_11h52.32.261,vbt_B2_day4,2022.2.4,Win32,60.74227055,,,,,,down,0,5.9733,,,-0.334088279,-0.173461866,1,0,0,0,125,125,82,1,muziek,images/br_muziek.png,images/cb_muziek.png,0,,,,,,,,,,,,,,,,,,,,,
,,,,,00015,2023-08-07_11h52.32.261,vbt_B2_day4,2022.2.4,Win32,60.74227055,,,,,,down,0,0.6538,,,-0.355394499,-0.154934716,1,0,0,0,126,126,12,1,kust,images/br_kust.png,images/cb_kust.png,0,,,,,,,,,,,,,,,,,,,,,
,,,,,00015,2023-08-07_11h52.32.261,vbt_B2_day4,2022.2.4,Win32,60.74227055,,,,,,down,0,0.7235,,,-0.353541769,-0.152155646,1,0,0,0,127,127,78,1,leren,images/br_leren.png,images/cb_leren.png,0,,,,,,,,,,,,,,,,,,,,,
,,,,,00015,2023-08-07_11h52.32.261,vbt_B2_day4,2022.2.4,Win32,60.74227055,,,,,,down,0,0.2007,,,-0.367437119,-0.130849427,1,0,0,0,128,128,99,1,koffie,images/br_koffie.png,images/cb_koffie.png,0,,,,,,,,,,,,,,,,,,,,,
,,,,,00015,2023-08-07_11h52.32.261,vbt_B2_day4,2022.2.4,Win32,60.74227055,,,,,,down,0,0.4932,,,-0.35168904,-0.147523847,1,0,0,0,129,129,120,1,klimmen,images/br_klimmen.png,images/cb_klimmen.png,0,,,,,,,,,,,,,,,,,,,,,
,,,,,00015,2023-08-07_11h52.32.261,vbt_B2_day4,2022.2.4,Win32,60.74227055,,,,,,down,0,4.7582,,,-0.366510779,-0.136407567,1,0,0,0,130,130,158,1,innemen,images/br_innemen.png,images/cb_innemen.png,0,,,,,,,,,,,,,,,,,,,,,
,,,,,00015,2023-08-07_11h52.32.261,vbt_B2_day4,2022.2.4,Win32,60.74227055,,,,,,down,0,1.0596,wegen,,-0.326677409,-0.126217627,1,0,0,0,131,131,64,1,wegen,images/br_wegen.png,images/cb_wegen.png,1,,,,,,,,,,,,,,,,,,,,,
,,,,,00015,2023-08-07_11h52.32.261,vbt_B2_day4,2022.2.4,Win32,60.74227055,,,,,,down,0,0.7209,,,-0.350762699,-0.122512217,1,0,0,0,132,132,37,1,mijn,images/br_mijn.png,images/cb_mijn.png,0,,,,,,,,,,,,,,,,,,,,,
,,,,,00015,2023-08-07_11h52.32.261,vbt_B2_day4,2022.2.4,Win32,60.74227055,,,,,,down,0,12.1726,,,-0.34057276,-0.089163328,1,0,0,0,133,133,179,1,woestijn,images/br_woestijn.png,images/cb_woestijn.png,0,,,,,,,,,,,,,,,,,,,,,
,,,,,00015,2023-08-07_11h52.32.261,vbt_B2_day4,2022.2.4,Win32,60.74227055,,,,,,down,0,2.0008,,,-0.342425489,-0.159566516,1,0,0,0,134,134,103,1,joggen,images/br_joggen.png,images/cb_joggen.png,0,,,,,,,,,,,,,,,,,,,,,
,,,,,00015,2023-08-07_11h52.32.261,vbt_B2_day4,2022.2.4,Win32,60.74227055,,,,,,down,0,3.773,dans,,-0.32482468,-0.159566516,1,0,0,0,135,135,27,1,dans,images/br_dans.png,images/cb_dans.png,1,,,,,,,,,,,,,,,,,,,,,
,,,,,00015,2023-08-07_11h52.32.261,vbt_B2_day4,2022.2.4,Win32,60.74227055,,,,,,down,0,2.8522,,,-0.29981305,-0.141965707,1,0,0,0,136,136,160,1,daarheen,images/br_daarheen.png,images/cb_daarheen.png,0,,,,,,,,,,,,,,,,,,,,,
,,,,,00015,2023-08-07_11h52.32.261,vbt_B2_day4,2022.2.4,Win32,60.74227055,,,,,,down,0,2.7751,,,-0.280359511,-0.168830067,1,0,0,0,137,137,91,1,gezond,images/br_gezond.png,images/cb_gezond.png,0,,,,,,,,,,,,,,,,,,,,,
,,,,,00015,2023-08-07_11h52.32.261,vbt_B2_day4,2022.2.4,Win32,60.74227055,,,,,,down,0,0.0051,,,-0.28962311,-0.162345586,1,0,0,0,138,138,194,1,driemaal,images/br_driemaal.png,images/cb_driemaal.png,0,,,,,,,,,,,,,,,,,,,,,
,,,,,00015,2023-08-07_11h52.32.261,vbt_B2_day4,2022.2.4,Win32,60.74227055,,,,,,down,0,0.2278,,,-0.279433171,-0.169756455,1,0,0,0,139,139,170,1,schatten,images/br_schatten.png,images/cb_schatten.png,0,,,,,,,,,,,,,,,,,,,,,
,,,,,00015,2023-08-07_11h52.32.261,vbt_B2_day4,2022.2.4,Win32,60.74227055,,,,,,down,0,1.7105,,,-0.29981305,-0.148450236,1,0,0,0,140,140,15,1,soda,images/br_soda.png,images/cb_soda.png,0,,,,,,,,,,,,,,,,,,,,,
,,,,,00015,2023-08-07_11h52.32.261,vbt_B2_day4,2022.2.4,Win32,60.74227055,,,,,,down,0,0.47,,,-0.30259212,-0.141965707,1,0,0,0,141,141,173,1,apparaat,images/br_apparaat.png,images/cb_apparaat.png,0,,,,,,,,,,,,,,,,,,,,,
,,,,,00015,2023-08-07_11h52.32.261,vbt_B2_day4,2022.2.4,Win32,60.74227055,,,,,,down,0,7.069,,,-0.367437119,-0.151229306,1,0,0,0,142,142,188,1,strekken,images/br_strekken.png,images/cb_strekken.png,0,,,,,,,,,,,,,,,,,,,,,
,,,,,00015,2023-08-07_11h52.32.261,vbt_B2_day4,2022.2.4,Win32,60.74227055,,,,,,down,0,0.1435,,,-0.373921648,-0.128070357,1,0,0,0,143,143,190,1,goedkoop,images/br_goedkoop.png,images/cb_goedkoop.png,0,,,,,,,,,,,,,,,,,,,,,
,,,,,00015,2023-08-07_11h52.32.261,vbt_B2_day4,2022.2.4,Win32,60.74227055,,,,,,down,0,1.6354,,,-0.372068919,-0.126217627,1,0,0,0,144,144,43,1,klauw,images/br_klauw.png,images/cb_klauw.png,0,,,,,,,,,,,,,,,,,,,,,
,,,,,00015,2023-08-07_11h52.32.261,vbt_B2_day4,2022.2.4,Win32,60.74227055,,,,,,down,0,0.1808,,,-0.375774329,-0.117880417,1,0,0,0,145,145,68,1,schat,images/br_schat.png,images/cb_schat.png,0,,,,,,,,,,,,,,,,,,,,,
,,,,,00015,2023-08-07_11h52.32.261,vbt_B2_day4,2022.2.4,Win32,60.74227055,,,,,,down,0,0.1726,,,-0.373921648,-0.124364946,1,0,0,0,146,146,132,1,grappen,images/br_grappen.png,images/cb_grappen.png,0,,,,,,,,,,,,,,,,,,,,,
,,,,,00015,2023-08-07_11h52.32.261,vbt_B2_day4,2022.2.4,Win32,60.74227055,,,,,,down,0,2.6906,JURK,,-0.33316189,-0.068783497,1,0,0,0,147,147,24,1,jurk,images/br_jurk.png,images/cb_jurk.png,1,,,,,,,,,,,,,,,,,,,,,
,,,,,00015,2023-08-07_11h52.32.261,vbt_B2_day4,2022.2.4,Win32,60.74227055,,,,,,down,0,1.2875,,,-0.380406129,-0.127144016,1,0,0,0,148,148,125,1,aanzien,images/br_aanzien.png,images/cb_aanzien.png,0,,,,,,,,,,,,,,,,,,,,,
,,,,,00015,2023-08-07_11h52.32.261,vbt_B2_day4,2022.2.4,Win32,60.74227055,,,,,,down,0,0.2003,,,-0.36558439,-0.146597506,1,0,0,0,149,149,35,1,lust,images/br_lust.png,images/cb_lust.png,0,,,,,,,,,,,,,,,,,,,,,
,,,,,00015,2023-08-07_11h52.32.261,vbt_B2_day4,2022.2.4,Win32,60.74227055,,,,,,down,0,17.9186,,,-0.33501462,-0.142892096,1,0,0,0,150,150,108,1,excuus,images/br_excuus.png,images/cb_excuus.png,0,,,,,,,,,,,,,,,,,,,,,
,,,,,00015,2023-08-07_11h52.32.261,vbt_B2_day4,2022.2.4,Win32,60.74227055,,,,,,down,0,0.0314,,,-0.33872003,-0.166977385,1,0,0,0,151,151,118,1,vinger,images/br_vinger.png,images/cb_vinger.png,0,,,,,,,,,,,,,,,,,,,,,
,,,,,00015,2023-08-07_11h52.32.261,vbt_B2_day4,2022.2.4,Win32,60.74227055,,,,,,down,0,0.4108,,,-0.336867349,-0.158640175,1,0,0,0,152,152,16,1,ziek,images/br_ziek.png,images/cb_ziek.png,0,,,,,,,,,,,,,,,,,,,,,
,,,,,00015,2023-08-07_11h52.32.261,vbt_B2_day4,2022.2.4,Win32,60.74227055,,,,,,down,0,0.3864,,,-0.347983629,-0.140113026,1,0,0,0,153,153,111,1,ticket,images/br_ticket.png,images/cb_ticket.png,0,,,,,,,,,,,,,,,,,,,,,
,,,,,00015,2023-08-07_11h52.32.261,vbt_B2_day4,2022.2.4,Win32,60.74227055,,,,,,down,0,3.833,,,-0.232188932,-0.112322277,1,0,0,0,154,154,181,1,toegeven,images/br_toegeven.png,images/cb_toegeven.png,0,,,,,,,,,,,,,,,,,,,,,
,,,,,00015,2023-08-07_11h52.32.261,vbt_B2_day4,2022.2.4,Win32,60.74227055,,,,,,down,0,1.4052,,,-0.222925381,-0.046550889,1,0,0,0,155,155,60,1,jasje,images/br_jasje.png,images/cb_jasje.png,0,,,,,,,,,,,,,,,,,,,,,
,,,,,00015,2023-08-07_11h52.32.261,vbt_B2_day4,2022.2.4,Win32,60.74227055,,,,,,down,0,3.7693,,,-0.385964269,-0.087310647,1,0,0,0,156,156,155,1,gerucht,images/br_gerucht.png,images/cb_gerucht.png,0,,,,,,,,,,,,,,,,,,,,,
,,,,,00015,2023-08-07_11h52.32.261,vbt_B2_day4,2022.2.4,Win32,60.74227055,,,,,,down,0,3.3358,,,-0.217367241,-0.092868787,1,0,0,0,157,157,119,1,liefje,images/br_liefje.png,images/cb_liefje.png,0,,,,,,,,,,,,,,,,,,,,,
,,,,,00015,2023-08-07_11h52.32.261,vbt_B2_day4,2022.2.4,Win32,60.74227055,,,,,,down,0,2.3713,,,-0.345204559,-0.101205997,1,0,0,0,158,158,176,1,techniek,images/br_techniek.png,images/cb_techniek.png,0,,,,,,,,,,,,,,,,,,,,,
,,,,,00015,2023-08-07_11h52.32.261,vbt_B2_day4,2022.2.4,Win32,60.74227055,,,,,,down,0,1.271,,,-0.325751021,0.009956901,1,0,0,0,159,159,101,1,staren,images/br_staren.png,images/cb_staren.png,0,,,,,,,,,,,,,,,,,,,,,
,,,,,00015,2023-08-07_11h52.32.261,vbt_B2_day4,2022.2.4,Win32,60.74227055,,,,,,down,0,6.0865,,,-0.30815026,0.00625149,1,0,0,0,160,160,139,1,stiekem,images/br_stiekem.png,images/cb_stiekem.png,0,,,,,,,,,,,,,,,,,,,,,
,,,,,00015,2023-08-07_11h52.32.261,vbt_B2_day4,2022.2.4,Win32,60.74227055,,,,,,down,0,1.1737,,,-0.279433171,-0.057667169,1,0,0,0,161,161,23,1,zout,images/br_zout.png,images/cb_zout.png,0,,,,,,,,,,,,,,,,,,,,,
,,,,,00015,2023-08-07_11h52.32.261,vbt_B2_day4,2022.2.4,Win32,60.74227055,,,,,,down,0,12.1923,zweven,,-0.391522409,-0.109543207,1,0,0,0,162,162,104,1,zweven,images/br_zweven.png,images/cb_zweven.png,1,,,,,,,,,,,,,,,,,,,,,
,,,,,00015,2023-08-07_11h52.32.261,vbt_B2_day4,2022.2.4,Win32,60.74227055,,,,,,down,0,1.0045,,,-0.420239498,-0.158640175,1,0,0,0,163,163,159,1,sufferd,images/br_sufferd.png,images/cb_sufferd.png,0,,,,,,,,,,,,,,,,,,,,,
,,,,,00015,2023-08-07_11h52.32.261,vbt_B2_day4,2022.2.4,Win32,60.74227055,,,,,,down,0,11.5713,,,-0.423018568,-0.160492856,1,0,0,0,164,164,38,1,baai,images/br_baai.png,images/cb_baai.png,0,,,,,,,,,,,,,,,,,,,,,
,,,,,00015,2023-08-07_11h52.32.261,vbt_B2_day4,2022.2.4,Win32,60.74227055,,,,,,down,0,1.1206,,,-0.425797638,-0.143818436,1,0,0,0,165,165,140,1,blijven,images/br_blijven.png,images/cb_blijven.png,0,,,,,,,,,,,,,,,,,,,,,
,,,,,00015,2023-08-07_11h52.32.261,vbt_B2_day4,2022.2.4,Win32,60.74227055,,,,,,down,0,0.2428,,,-0.419313157,-0.163271927,1,0,0,0,166,166,183,1,getuigen,images/br_getuigen.png,images/cb_getuigen.png,0,,,,,,,,,,,,,,,,,,,,,
,,,,,00015,2023-08-07_11h52.32.261,vbt_B2_day4,2022.2.4,Win32,60.74227055,,,,,,down,0,26.7499,,,-0.267390502,-0.078973437,1,0,0,0,167,167,20,1,site,images/br_site.png,images/cb_site.png,0,,,,,,,,,,,,,,,,,,,,,
,,,,,00015,2023-08-07_11h52.32.261,vbt_B2_day4,2022.2.4,Win32,60.74227055,,,,,,down,0,0.1258,,,-0.28406497,-0.093795128,1,0,0,0,168,168,33,1,vlek,images/br_vlek.png,images/cb_vlek.png,0,,,,,,,,,,,,,,,,,,,,,
,,,,,00015,2023-08-07_11h52.32.261,vbt_B2_day4,2022.2.4,Win32,60.74227055,,,,,,down,0,1.0527,,,-0.29147584,-0.087310647,1,0,0,0,169,169,8,1,knie,images/br_knie.png,images/cb_knie.png,0,,,,,,,,,,,,,,,,,,,,,
,,,,,00015,2023-08-07_11h52.32.261,vbt_B2_day4,2022.2.4,Win32,60.74227055,,,,,,down,0,1.5098,,,-0.288696722,-0.086384258,1,0,0,0,170,170,44,1,flits,images/br_flits.png,images/cb_flits.png,0,,,,,,,,,,,,,,,,,,,,,
,,,,,00015,2023-08-07_11h52.32.261,vbt_B2_day4,2022.2.4,Win32,60.74227055,,,,,,down,0,2.8443,,,-0.30073939,-0.068783497,1,0,0,0,171,171,63,1,flirt,images/br_flirt.png,images/cb_flirt.png,0,,,,,,,,,,,,,,,,,,,,,
,,,,,00015,2023-08-07_11h52.32.261,vbt_B2_day4,2022.2.4,Win32,60.74227055,,,,,,down,0,3.3848,,,-0.32204561,-0.054888099,1,0,0,0,172,172,54,1,gebit,images/br_gebit.png,images/cb_gebit.png,0,,,,,,,,,,,,,,,,,,,,,
,,,,,00015,2023-08-07_11h52.32.261,vbt_B2_day4,2022.2.4,Win32,60.74227055,,,,,,down,0,13.8336,,,-0.358173569,-0.226264245,1,0,0,0,173,173,196,1,nakijken,images/br_nakijken.png,images/cb_nakijken.png,0,,,,,,,,,,,,,,,,,,,,,
,,,,,00015,2023-08-07_11h52.32.261,vbt_B2_day4,2022.2.4,Win32,60.74227055,,,,,,down,0,0.8678,,,-0.366510779,-0.140113026,1,0,0,0,174,174,113,1,koppen,images/br_koppen.png,images/cb_koppen.png,0,,,,,,,,,,,,,,,,,,,,,
,,,,,00015,2023-08-07_11h52.32.261,vbt_B2_day4,2022.2.4,Win32,60.74227055,,,,,,down,0,0.3674,,,-0.367437119,-0.141965707,1,0,0,0,175,175,69,1,waken,images/br_waken.png,images/cb_waken.png,0,,,,,,,,,,,,,,,,,,,,,
,,,,,00015,2023-08-07_11h52.32.261,vbt_B2_day4,2022.2.4,Win32,60.74227055,,,,,,down,0,1.6838,,,-0.398006938,-0.169756455,1,0,0,0,176,176,51,1,samen,images/br_samen.png,images/cb_samen.png,0,,,,,,,,,,,,,,,,,,,,,
,,,,,00015,2023-08-07_11h52.32.261,vbt_B2_day4,2022.2.4,Win32,60.74227055,,,,,,down,0,0.2739,,,-0.315561129,-0.057667169,1,0,0,0,177,177,143,1,hechten,images/br_hechten.png,images/cb_hechten.png,0,,,,,,,,,,,,,,,,,,,,,
,,,,,00015,2023-08-07_11h52.32.261,vbt_B2_day4,2022.2.4,Win32,60.74227055,,,,,,down,0,0.5126,,,-0.375774329,-0.082678847,1,0,0,0,178,178,197,1,spanning,images/br_spanning.png,images/cb_spanning.png,0,,,,,,,,,,,,,,,,,,,,,
,,,,,00015,2023-08-07_11h52.32.261,vbt_B2_day4,2022.2.4,Win32,60.74227055,,,,,,down,0,1.7374,,,-0.444324788,-0.039140019,1,0,0,0,179,179,151,1,aanzoek,images/br_aanzoek.png,images/cb_aanzoek.png,0,,,,,,,,,,,,,,,,,,,,,
,,,,,00015,2023-08-07_11h52.32.261,vbt_B2_day4,2022.2.4,Win32,60.74227055,,,,,,down,0,0.0675,,,-0.36280532,-0.128070357,1,0,0,0,180,180,89,1,slapen,images/br_slapen.png,images/cb_slapen.png,0,,,,,,,,,,,,,,,,,,,,,
,,,,,00015,2023-08-07_11h52.32.261,vbt_B2_day4,2022.2.4,Win32,60.74227055,,,,,,down,0,8.4362,,,-0.420239498,-0.053961758,1,0,0,0,181,181,84,1,lokken,images/br_lokken.png,images/cb_lokken.png,0,,,,,,,,,,,,,,,,,,,,,
,,,,,00015,2023-08-07_11h52.32.261,vbt_B2_day4,2022.2.4,Win32,60.74227055,,,,,,down,0,6.2017,,,-0.406344148,-0.044698208,1,0,0,0,182,182,49,1,laken,images/br_laken.png,images/cb_laken.png,0,,,,,,,,,,,,,,,,,,,,,
,,,,,00015,2023-08-07_11h52.32.261,vbt_B2_day4,2022.2.4,Win32,60.74227055,,,,,,down,0,3.0433,,,-0.427650368,-0.030802809,1,0,0,0,183,183,154,1,aflopen,images/br_aflopen.png,images/cb_aflopen.png,0,,,,,,,,,,,,,,,,,,,,,
,,,,,00015,2023-08-07_11h52.32.261,vbt_B2_day4,2022.2.4,Win32,60.74227055,,,,,,down,0,0.9833,,,-0.444324788,-0.122512217,1,0,0,0,184,184,172,1,weigeren,images/br_weigeren.png,images/cb_weigeren.png,0,,,,,,,,,,,,,,,,,,,,,
,,,,,00015,2023-08-07_11h52.32.261,vbt_B2_day4,2022.2.4,Win32,60.74227055,,,,,,down,0,0.9709,,,-0.434134848,-0.135481226,1,0,0,0,185,185,56,1,traag,images/br_traag.png,images/cb_traag.png,0,,,,,,,,,,,,,,,,,,,,,
,,,,,00015,2023-08-07_11h52.32.261,vbt_B2_day4,2022.2.4,Win32,60.74227055,,,,,,down,0,1.9171,,,-0.403565078,-0.149376576,1,0,0,0,186,186,3,1,mand,images/br_mand.png,images/cb_mand.png,0,,,,,,,,,,,,,,,,,,,,,
,,,,,00015,2023-08-07_11h52.32.261,vbt_B2_day4,2022.2.4,Win32,60.74227055,,,,,,down,0,5.6215,,,-0.32945648,-0.161419245,1,0,0,0,187,187,80,1,kanjer,images/br_kanjer.png,images/cb_kanjer.png,0,,,,,,,,,,,,,,,,,,,,,
,,,,,00015,2023-08-07_11h52.32.261,vbt_B2_day4,2022.2.4,Win32,60.74227055,,,,,,down,0,2.2089,,,-0.33501462,-0.150302917,1,0,0,0,188,188,48,1,steel,images/br_steel.png,images/cb_steel.png,0,,,,,,,,,,,,,,,,,,,,,
,,,,,00015,2023-08-07_11h52.32.261,vbt_B2_day4,2022.2.4,Win32,60.74227055,,,,,,down,0,1.717,,,-0.35446811,-0.117880417,1,0,0,0,189,189,1,1,zaal,images/br_zaal.png,images/cb_zaal.png,0,,,,,,,,,,,,,,,,,,,,,
,,,,,00015,2023-08-07_11h52.32.261,vbt_B2_day4,2022.2.4,Win32,60.74227055,,,,,,down,0,1.1387,,,-0.328530091,-0.155861105,1,0,0,0,190,190,62,1,knaap,images/br_knaap.png,images/cb_knaap.png,0,,,,,,,,,,,,,,,,,,,,,
,,,,,00015,2023-08-07_11h52.32.261,vbt_B2_day4,2022.2.4,Win32,60.74227055,,,,,,down,0,2.0249,voorraad,,-0.435987578,-0.142892096,1,0,0,0,191,191,186,1,voorraad,images/br_voorraad.png,images/cb_voorraad.png,1,,,,,,,,,,,,,,,,,,,,,
,,,,,00015,2023-08-07_11h52.32.261,vbt_B2_day4,2022.2.4,Win32,60.74227055,,,,,,down,0,4.1357,,,-0.542518676,-0.212368895,1,0,0,0,192,192,199,1,beseffen,images/br_beseffen.png,images/cb_beseffen.png,0,,,,,,,,,,,,,,,,,,,,,
,,,,,00015,2023-08-07_11h52.32.261,vbt_B2_day4,2022.2.4,Win32,60.74227055,,,,,,down,0,1.0952,,,-0.456367457,-0.204958025,1,0,0,0,193,193,47,1,kabel,images/br_kabel.png,images/cb_kabel.png,0,,,,,,,,,,,,,,,,,,,,,
,,,,,00015,2023-08-07_11h52.32.261,vbt_B2_day4,2022.2.4,Win32,60.74227055,,,,,,down,0,0.0588,,,-0.452661998,-0.222558834,1,0,0,0,194,194,92,1,geheim,images/br_geheim.png,images/cb_geheim.png,0,,,,,,,,,,,,,,,,,,,,,
,,,,,00015,2023-08-07_11h52.32.261,vbt_B2_day4,2022.2.4,Win32,60.74227055,,,,,,down,0,1.9369,,,-0.471189147,-0.195694474,1,0,0,0,195,195,146,1,opkomen,images/br_opkomen.png,images/cb_opkomen.png,1,,,,,,,,,,,,,,,,,,,,,
,,,,,00015,2023-08-07_11h52.32.261,vbt_B2_day4,2022.2.4,Win32,60.74227055,,,,,,down,0,0.3538,,,-0.460072867,-0.212368895,1,0,0,0,196,196,13,1,kaal,images/br_kaal.png,images/cb_kaal.png,0,,,,,,,,,,,,,,,,,,,,,
,,,,,00015,2023-08-07_11h52.32.261,vbt_B2_day4,2022.2.4,Win32,60.74227055,,,,,,down,0,3.4092,,,-0.468410077,-0.198473544,1,0,0,0,197,197,39,1,laag,images/br_laag.png,images/cb_laag.png,0,,,,,,,,,,,,,,,,,,,,,
,,,,,00015,2023-08-07_11h52.32.261,vbt_B2_day4,2022.2.4,Win32,60.74227055,,,,,,down,0,0.5672,,,-0.450809317,-0.227190682,1,0,0,0,198,198,191,1,opheffen,images/br_opheffen.png,images/cb_opheffen.png,0,,,,,,,,,,,,,,,,,,,,,
,,,,,00015,2023-08-07_11h52.32.261,vbt_B2_day4,2022.2.4,Win32,60.74227055,,,,,,down,0,0.46,,,-0.449882928,-0.230896044,1,0,0,0,199,199,41,1,maken,images/br_maken.png,images/cb_maken.png,0,,,,,,,,,,,,,,,,,,,,,
,,,,,00015,2023-08-07_11h52.32.261,vbt_B2_day4,2022.2.4,Win32,60.74227055,,,,,,,,,,,,,,,,,,,,,,,,,0.418113889,-0.027097399,1,0,0,,,,,,,,,,,,,,,,
,,,,,00015,2023-08-07_11h52.32.261,vbt_B2_day4,2022.2.4,Win32,60.74227055,,,,,,,,,,,,,,,,,,,,,,,,,,,,,,0.478327233,-0.140113026,1,0,0,,,,,,,,,,,
,,,,,00015,2023-08-07_11h52.32.261,vbt_B2_day4,2022.2.4,Win32,60.74227055,,,,,,,,,midden,,,,,,,,,,,,midden,images/br_midden.png,images/cb_midden.png,,,,,,,,,,,,0.026264821,0.094255438,1,0,0,midden,0,0,0,50,1
,,,,,00015,2023-08-07_11h52.32.261,vbt_B2_day4,2022.2.4,Win32,60.74227055,,,,,,,,,schotel,,,,,,,,,,,,schotel,images/br_schotel.png,images/cb_schotel.png,,,,,,,,,,,,0.393102355,-0.003012109,1,0,0,schotel,0,1,1,52,1
,,,,,00015,2023-08-07_11h52.32.261,vbt_B2_day4,2022.2.4,Win32,60.74227055,,,,,,,,,apparaat,,,,,,,,,,,,apparaat,images/br_apparaat.png,images/cb_apparaat.png,,,,,,,,,,,,0.393102355,-0.003012109,1,0,0,apparaat,0,2,2,17,1
,,,,,00015,2023-08-07_11h52.32.261,vbt_B2_day4,2022.2.4,Win32,60.74227055,,,,,,,,,gebog,,,,,,,,,,,,gebog,images/br_gebog.png,images/cb_gebog.png,,,,,,,,,,,,0.393102355,-0.00115938,1,0,0,gebog,0,3,3,24,1
,,,,,00015,2023-08-07_11h52.32.261,vbt_B2_day4,2022.2.4,Win32,60.74227055,,,,,,,,,waarop,,,,,,,,,,,,waarop,images/br_waarop.png,images/cb_waarop.png,,,,,,,,,,,,0.393102355,-0.00115938,1,0,0,waarop,0,4,4,9,1
,,,,,00015,2023-08-07_11h52.32.261,vbt_B2_day4,2022.2.4,Win32,60.74227055,,,,,,,,,noodzaak,,,,,,,,,,,,noodzaak,images/br_noodzaak.png,images/cb_noodzaak.png,,,,,,,,,,,,0.393102355,-0.00115938,1,0,0,noodzaak,0,5,5,56,1
,,,,,00015,2023-08-07_11h52.32.261,vbt_B2_day4,2022.2.4,Win32,60.74227055,,,,,,,,,pittig,,,,,,,,,,,,pittig,images/br_pittig.png,images/cb_pittig.png,,,,,,,,,,,,0.393102355,-0.00115938,1,0,0,pittig,0,6,6,51,1
,,,,,00015,2023-08-07_11h52.32.261,vbt_B2_day4,2022.2.4,Win32,60.74227055,,,,,,,,,strok,,,,,,,,,,,,strok,images/br_strok.png,images/cb_strok.png,,,,,,,,,,,,0.393102355,-0.00115938,1,0,0,strok,0,7,7,25,1
,,,,,00015,2023-08-07_11h52.32.261,vbt_B2_day4,2022.2.4,Win32,60.74227055,,,,,,,,,schenden,,,,,,,,,,,,schenden,images/br_schenden.png,images/cb_schenden.png,,,,,,,,,,,,0.393102355,-0.00115938,1,0,0,schenden,0,8,8,57,1
,,,,,00015,2023-08-07_11h52.32.261,vbt_B2_day4,2022.2.4,Win32,60.74227055,,,,,,,,,baron,,,,,,,,,,,,baron,images/br_baron.png,images/cb_baron.png,,,,,,,,,,,,0.393102355,-0.00115938,1,0,0,baron,0,9,9,5,1
,,,,,00015,2023-08-07_11h52.32.261,vbt_B2_day4,2022.2.4,Win32,60.74227055,,,,,,,,,seizoon,,,,,,,,,,,,seizoon,images/br_seizoon.png,images/cb_seizoon.png,,,,,,,,,,,,0.393102355,-0.00115938,1,0,0,seizoon,0,10,10,33,1
,,,,,00015,2023-08-07_11h52.32.261,vbt_B2_day4,2022.2.4,Win32,60.74227055,,,,,,,,,steen,,,,,,,,,,,,steen,images/br_steen.png,images/cb_steen.png,,,,,,,,,,,,0.393102355,-0.00115938,1,0,0,steen,0,11,11,44,1
,,,,,00015,2023-08-07_11h52.32.261,vbt_B2_day4,2022.2.4,Win32,60.74227055,,,,,,,,,farn,,,,,,,,,,,,fran,images/br_fran.png,images/cb_fran.png,,,,,,,,,,,,0.393102355,-0.00115938,1,0,0,farn,0,12,12,22,1
,,,,,00015,2023-08-07_11h52.32.261,vbt_B2_day4,2022.2.4,Win32,60.74227055,,,,,,,,,aanzwaag,,,,,,,,,,,,aanzwaag,images/br_aanzwaag.png,images/cb_aanzwaag.png,,,,,,,,,,,,0.393102355,-0.00115938,1,0,0,aanzwaag,0,13,13,38,1
,,,,,00015,2023-08-07_11h52.32.261,vbt_B2_day4,2022.2.4,Win32,60.74227055,,,,,,,,,warel,,,,,,,,,,,,warel,images/br_warel.png,images/cb_warel.png,,,,,,,,,,,,0.393102355,-0.00115938,1,0,0,warel,0,14,14,26,1
,,,,,00015,2023-08-07_11h52.32.261,vbt_B2_day4,2022.2.4,Win32,60.74227055,,,,,,,,,opruimen,,,,,,,,,,,,opruimen,images/br_opruimen.png,images/cb_opruimen.png,,,,,,,,,,,,0.393102355,-0.00115938,1,0,0,opruimen,0,15,15,59,1
,,,,,00015,2023-08-07_11h52.32.261,vbt_B2_day4,2022.2.4,Win32,60.74227055,,,,,,,,,stemming,,,,,,,,,,,,stemming,images/br_stemming.png,images/cb_stemming.png,,,,,,,,,,,,0.393102355,-0.00115938,1,0,0,stemming,0,16,16,18,1
,,,,,00015,2023-08-07_11h52.32.261,vbt_B2_day4,2022.2.4,Win32,60.74227055,,,,,,,,,eerst,,,,,,,,,,,,eerst,images/br_eerst.png,images/cb_eerst.png,,,,,,,,,,,,0.393102355,-0.00115938,1,0,0,eerst,0,17,17,47,1
,,,,,00015,2023-08-07_11h52.32.261,vbt_B2_day4,2022.2.4,Win32,60.74227055,,,,,,,,,pijnl....,,,,,,,,,,,,pijnlijk,images/br_pijnlijk.png,images/cb_pijnlijk.png,,,,,,,,,,,,0.393102355,-0.00115938,1,0,0,pijnl....,0,18,18,58,1
,,,,,00015,2023-08-07_11h52.32.261,vbt_B2_day4,2022.2.4,Win32,60.74227055,,,,,,,,,bisschap,,,,,,,,,,,,bisschap,images/br_bisschap.png,images/cb_bisschap.png,,,,,,,,,,,,0.393102355,-0.00115938,1,0,0,bisschap,0,19,19,36,1
,,,,,00015,2023-08-07_11h52.32.261,vbt_B2_day4,2022.2.4,Win32,60.74227055,,,,,,,,,grappin,,,,,,,,,,,,grappen,images/br_grappen.png,images/cb_grappen.png,,,,,,,,,,,,0.393102355,-0.00115938,1,0,0,grappin,0,20,20,12,1
,,,,,00015,2023-08-07_11h52.32.261,vbt_B2_day4,2022.2.4,Win32,60.74227055,,,,,,,,,w....,,,,,,,,,,,,wagon,images/br_wagon.png,images/cb_wagon.png,,,,,,,,,,,,0.393102355,-0.00115938,1,0,0,w....,0,21,21,4,1
,,,,,00015,2023-08-07_11h52.32.261,vbt_B2_day4,2022.2.4,Win32,60.74227055,,,,,,,,,dozijn,,,,,,,,,,,,dozijn,images/br_dozijn.png,images/cb_dozijn.png,,,,,,,,,,,,0.393102355,-0.00115938,1,0,0,dozijn,0,22,22,48,1
,,,,,00015,2023-08-07_11h52.32.261,vbt_B2_day4,2022.2.4,Win32,60.74227055,,,,,,,,,oceaan,,,,,,,,,,,,oceaan,images/br_oceaan.png,images/cb_oceaan.png,,,,,,,,,,,,0.393102355,-0.00115938,1,0,0,oceaan,0,23,23,10,1
,,,,,00015,2023-08-07_11h52.32.261,vbt_B2_day4,2022.2.4,Win32,60.74227055,,,,,,,,,haz.,,,,,,,,,,,,haza,images/br_haza.png,images/cb_haza.png,,,,,,,,,,,,0.393102355,-0.00115938,1,0,0,haz.,0,24,24,21,1
,,,,,00015,2023-08-07_11h52.32.261,vbt_B2_day4,2022.2.4,Win32,60.74227055,,,,,,,,,heengaan,,,,,,,,,,,,heengaan,images/br_heengaan.png,images/cb_heengaan.png,,,,,,,,,,,,0.393102355,-0.00115938,1,0,0,heengaan,0,25,25,19,1
,,,,,00015,2023-08-07_11h52.32.261,vbt_B2_day4,2022.2.4,Win32,60.74227055,,,,,,,,,sulbon,,,,,,,,,,,,sulbon,images/br_sulbon.png,images/cb_sulbon.png,,,,,,,,,,,,0.393102355,-0.00115938,1,0,0,sulbon,0,26,26,31,1
,,,,,00015,2023-08-07_11h52.32.261,vbt_B2_day4,2022.2.4,Win32,60.74227055,,,,,,,,,..jf,,,,,,,,,,,,gijf,images/br_gijf.png,images/cb_gijf.png,,,,,,,,,,,,0.393102355,-0.00115938,1,0,0,..jf,0,27,27,23,1
,,,,,00015,2023-08-07_11h52.32.261,vbt_B2_day4,2022.2.4,Win32,60.74227055,,,,,,,,,tijp,,,,,,,,,,,,rijp,images/br_rijp.png,images/cb_rijp.png,,,,,,,,,,,,0.393102355,-0.00115938,1,0,0,tijp,0,28,28,2,1
,,,,,00015,2023-08-07_11h52.32.261,vbt_B2_day4,2022.2.4,Win32,60.74227055,,,,,,,,,gehe...,,,,,,,,,,,,geheim,images/br_geheim.png,images/cb_geheim.png,,,,,,,,,,,,0.393102355,-0.00115938,1,0,0,gehe...,0,29,29,8,1
,,,,,00015,2023-08-07_11h52.32.261,vbt_B2_day4,2022.2.4,Win32,60.74227055,,,,,,,,,broodj.,,,,,,,,,,,,broodje,images/br_broodje.png,images/cb_broodje.png,,,,,,,,,,,,0.393102355,-0.00115938,1,0,0,broodj.,0,30,30,55,1
,,,,,00015,2023-08-07_11h52.32.261,vbt_B2_day4,2022.2.4,Win32,60.74227055,,,,,,,,,wozing,,,,,,,,,,,,wozing,images/br_wozing.png,images/cb_wozing.png,,,,,,,,,,,,0.393102355,-0.00115938,1,0,0,wozing,0,31,31,28,1
,,,,,00015,2023-08-07_11h52.32.261,vbt_B2_day4,2022.2.4,Win32,60.74227055,,,,,,,,,dau......,,,,,,,,,,,,drummer,images/br_drummer.png,images/cb_drummer.png,,,,,,,,,,,,0.393102355,-0.00115938,1,0,0,dau......,0,32,32,53,1
,,,,,00015,2023-08-07_11h52.32.261,vbt_B2_day4,2022.2.4,Win32,60.74227055,,,,,,,,,vaeten,,,,,,,,,,,,vreten,images/br_vreten.png,images/cb_vreten.png,,,,,,,,,,,,0.393102355,-0.00115938,1,0,0,vaeten,0,33,33,11,1
,,,,,00015,2023-08-07_11h52.32.261,vbt_B2_day4,2022.2.4,Win32,60.74227055,,,,,,,,,mekst,,,,,,,,,,,,mekst,images/br_mekst.png,images/cb_mekst.png,,,,,,,,,,,,0.393102355,-0.00115938,1,0,0,mekst,0,34,34,27,1
,,,,,00015,2023-08-07_11h52.32.261,vbt_B2_day4,2022.2.4,Win32,60.74227055,,,,,,,,,gebit,,,,,,,,,,,,gebit,images/br_gebit.png,images/cb_gebit.png,,,,,,,,,,,,0.393102355,-0.00115938,1,0,0,gebit,0,35,35,6,1
,,,,,00015,2023-08-07_11h52.32.261,vbt_B2_day4,2022.2.4,Win32,60.74227055,,,,,,,,,gedicht,,,,,,,,,,,,gedicht,images/br_gedicht.png,images/cb_gedicht.png,,,,,,,,,,,,0.393102355,-0.00115938,1,0,0,gedicht,0,36,36,15,1
,,,,,00015,2023-08-07_11h52.32.261,vbt_B2_day4,2022.2.4,Win32,60.74227055,,,,,,,,,seizoen,,,,,,,,,,,,seizoen,images/br_seizoen.png,images/cb_seizoen.png,,,,,,,,,,,,0.393102355,-0.00115938,1,0,0,seizoen,0,37,37,13,1
,,,,,00015,2023-08-07_11h52.32.261,vbt_B2_day4,2022.2.4,Win32,60.74227055,,,,,,,,,drooein,,,,,,,,,,,,drooien,images/br_drooien.png,images/cb_drooien.png,,,,,,,,,,,,0.393102355,-0.00115938,1,0,0,drooein,0,38,38,32,1
,,,,,00015,2023-08-07_11h52.32.261,vbt_B2_day4,2022.2.4,Win32,60.74227055,,,,,,,,,snee,,,,,,,,,,,,snee,images/br_snee.png,images/cb_snee.png,,,,,,,,,,,,0.393102355,-0.00115938,1,0,0,snee,0,39,39,40,1
,,,,,00015,2023-08-07_11h52.32.261,vbt_B2_day4,2022.2.4,Win32,60.74227055,,,,,,,,,tucket,,,,,,,,,,,,tucket,images/br_tucket.png,images/cb_tucket.png,,,,,,,,,,,,0.393102355,-0.00115938,1,0,0,tucket,0,40,40,30,1
,,,,,00015,2023-08-07_11h52.32.261,vbt_B2_day4,2022.2.4,Win32,60.74227055,,,,,,,,,kust,,,,,,,,,,,,kust,images/br_kust.png,images/cb_kust.png,,,,,,,,,,,,0.393102355,-0.00115938,1,0,0,kust,0,41,41,0,1
,,,,,00015,2023-08-07_11h52.32.261,vbt_B2_day4,2022.2.4,Win32,60.74227055,,,,,,,,,flippen,,,,,,,,,,,,flippen,images/br_flippen.png,images/cb_flippen.png,,,,,,,,,,,,0.393102355,-0.00115938,1,0,0,flippen,0,42,42,54,1
,,,,,00015,2023-08-07_11h52.32.261,vbt_B2_day4,2022.2.4,Win32,60.74227055,,,,,,,,,weigeren,,,,,,,,,,,,weigeren,images/br_weigeren.png,images/cb_weigeren.png,,,,,,,,,,,,0.393102355,-0.00115938,1,0,0,weigeren,0,43,43,16,1
,,,,,00015,2023-08-07_11h52.32.261,vbt_B2_day4,2022.2.4,Win32,60.74227055,,,,,,,,,kaal,,,,,,,,,,,,kaal,images/br_kaal.png,images/cb_kaal.png,,,,,,,,,,,,0.393102355,-0.00115938,1,0,0,kaal,0,44,44,1,1
,,,,,00015,2023-08-07_11h52.32.261,vbt_B2_day4,2022.2.4,Win32,60.74227055,,,,,,,,,bruin,,,,,,,,,,,,bruin,images/br_bruin.png,images/cb_bruin.png,,,,,,,,,,,,0.393102355,-0.00115938,1,0,0,bruin,0,45,45,45,1
,,,,,00015,2023-08-07_11h52.32.261,vbt_B2_day4,2022.2.4,Win32,60.74227055,,,,,,,,,geliefd,,,,,,,,,,,,geliefd,images/br_geliefd.png,images/cb_geliefd.png,,,,,,,,,,,,0.393102355,-0.00115938,1,0,0,geliefd,0,46,46,14,1
,,,,,00015,2023-08-07_11h52.32.261,vbt_B2_day4,2022.2.4,Win32,60.74227055,,,,,,,,,ezel,,,,,,,,,,,,ezel,images/br_ezel.png,images/cb_ezel.png,,,,,,,,,,,,0.393102355,-0.00115938,1,0,0,ezel,0,47,47,42,1
,,,,,00015,2023-08-07_11h52.32.261,vbt_B2_day4,2022.2.4,Win32,60.74227055,,,,,,,,,opkic..,,,,,,,,,,,,opkicht,images/br_opkicht.png,images/cb_opkicht.png,,,,,,,,,,,,0.393102355,-0.00115938,1,0,0,opkic..,0,48,48,34,1
,,,,,00015,2023-08-07_11h52.32.261,vbt_B2_day4,2022.2.4,Win32,60.74227055,,,,,,,,,lappen,,,,,,,,,,,,lappen,images/br_lappen.png,images/cb_lappen.png,,,,,,,,,,,,0.393102355,-0.00115938,1,0,0,lappen,0,49,49,49,1
,,,,,00015,2023-08-07_11h52.32.261,vbt_B2_day4,2022.2.4,Win32,60.74227055,,,,,,,,,zwen,,,,,,,,,,,,zwek,images/br_zwek.png,images/cb_zwek.png,,,,,,,,,,,,0.393102355,-0.00115938,1,0,0,zwen,0,50,50,20,1
,,,,,00015,2023-08-07_11h52.32.261,vbt_B2_day4,2022.2.4,Win32,60.74227055,,,,,,,,,paalbaak,,,,,,,,,,,,paalbaak,images/br_paalbaak.png,images/cb_paalbaak.png,,,,,,,,,,,,0.393102355,-0.00115938,1,0,0,paalbaak,0,51,51,39,1
,,,,,00015,2023-08-07_11h52.32.261,vbt_B2_day4,2022.2.4,Win32,60.74227055,,,,,,,,,praat,,,,,,,,,,,,praat,images/br_praat.png,images/cb_praat.png,,,,,,,,,,,,0.393102355,-0.00115938,1,0,0,praat,0,52,52,7,1
,,,,,00015,2023-08-07_11h52.32.261,vbt_B2_day4,2022.2.4,Win32,60.74227055,,,,,,,,,gaaf,,,,,,,,,,,,gaaf,images/br_gaaf.png,images/cb_gaaf.png,,,,,,,,,,,,0.388470603,-0.002085672,1,0,0,gaaf,0,53,53,43,1
,,,,,00015,2023-08-07_11h52.32.261,vbt_B2_day4,2022.2.4,Win32,60.74227055,,,,,,,,,toevol,,,,,,,,,,,,toevol,images/br_toevol.png,images/cb_toevol.png,,,,,,,,,,,,0.388470603,-0.002085672,1,0,0,toevol,0,54,54,29,1
,,,,,00015,2023-08-07_11h52.32.261,vbt_B2_day4,2022.2.4,Win32,60.74227055,,,,,,,,,gaan,,,,,,,,,,,,gaan,images/br_gaan.png,images/cb_gaan.png,,,,,,,,,,,,0.385691533,-0.020612822,1,0,0,gaan,0,55,55,41,1
,,,,,00015,2023-08-07_11h52.32.261,vbt_B2_day4,2022.2.4,Win32,60.74227055,,,,,,,,,getucht,,,,,,,,,,,,getucht,images/br_getucht.png,images/cb_getucht.png,,,,,,,,,,,,0.385691533,-0.020612822,1,0,0,getucht,0,56,56,35,1
,,,,,00015,2023-08-07_11h52.32.261,vbt_B2_day4,2022.2.4,Win32,60.74227055,,,,,,,,,zaaltij.,,,,,,,,,,,,zaalrijk,images/br_zaalrijk.png,images/cb_zaalrijk.png,,,,,,,,,,,,0.385691533,-0.020612822,1,0,0,zaaltij.,0,57,57,37,1
,,,,,00015,2023-08-07_11h52.32.261,vbt_B2_day4,2022.2.4,Win32,60.74227055,,,,,,,,,soda,,,,,,,,,,,,soda,images/br_soda.png,images/cb_soda.png,,,,,,,,,,,,0.385691533,-0.020612822,1,0,0,soda,0,58,58,3,1
,,,,,00015,2023-08-07_11h52.32.261,vbt_B2_day4,2022.2.4,Win32,60.74227055,,,,,,,,,dalen,,,,,,,,,,,,dalen,images/br_dalen.png,images/cb_dalen.png,,,,,,,,,,,,0.385691533,-0.020612822,1,0,0,dalen,0,59,59,46,1
,,,,,00015,2023-08-07_11h52.32.261,vbt_B2_day4,2022.2.4,Win32,60.74227055,,,,,,,,,,,,,,,,,,,,,,,,,,,,,,,,,,,,,,,,,,,,,
