welcome_mouse.x,welcome_mouse.y,welcome_mouse.leftButton,welcome_mouse.midButton,welcome_mouse.rightButton,"ID",date,expName,psychopyVersion,OS,frameRate,trainInstr_mouse.x,trainInstr_mouse.y,trainInstr_mouse.leftButton,trainInstr_mouse.midButton,trainInstr_mouse.rightButton,translation_key.keys,translation_key.corr,translation_key.rt,word_rsp.text,trWrd_mouse.x,trWrd_mouse.y,trWrd_mouse.leftButton,trWrd_mouse.midButton,trWrd_mouse.rightButton,train_loop.thisRepN,train_loop.thisTrialN,train_loop.thisN,train_loop.thisIndex,train_loop.ran,nlWrd,brWrd,cbWrd,test,testResp,mouse.x,mouse.y,mouse.leftButton,mouse.midButton,mouse.rightButton,testInstr_mouse.x,testInstr_mouse.y,testInstr_mouse.leftButton,testInstr_mouse.midButton,testInstr_mouse.rightButton,test_mouse.x,test_mouse.y,test_mouse.leftButton,test_mouse.midButton,test_mouse.rightButton,test_response.text,test_loop.thisRepN,test_loop.thisTrialN,test_loop.thisN,test_loop.thisIndex,test_loop.ran
0.109756098,0.073170732,1,0,0,,2023-10-16_09h54.17,vbt_B2_day4,2022.2.4,MacIntel,200,,,,,,,,,,,,,,,,,,,,,,,,,,,,,,,,,,,,,,,,,,,,,
,,,,,,2023-10-16_09h54.17,vbt_B2_day4,2022.2.4,MacIntel,200,0.109756098,0.073170732,1,0,0,,,,,,,,,,,,,,,,,,,,,,,,,,,,,,,,,,,,,,,,
,,,,,,2023-10-16_09h54.17,vbt_B2_day4,2022.2.4,MacIntel,200,,,,,,down,0,4.519,,0.109756098,0.073170732,1,0,0,0,0,0,47,1,kabel,images/br_kabel.png,images/cb_kabel.png,0,,,,,,,,,,,,,,,,,,,,,,
,,,,,,2023-10-16_09h54.17,vbt_B2_day4,2022.2.4,MacIntel,200,,,,,,down,0,2.46,,0.113414634,0.073170732,1,0,0,0,1,1,45,1,piste,images/br_piste.png,images/cb_piste.png,0,,,,,,,,,,,,,,,,,,,,,,
,,,,,,2023-10-16_09h54.17,vbt_B2_day4,2022.2.4,MacIntel,200,,,,,,down,0,2.759,,0.114634146,0.070731707,1,0,0,0,2,2,130,1,keihard,images/br_keihard.png,images/cb_keihard.png,0,,,,,,,,,,,,,,,,,,,,,,
,,,,,,2023-10-16_09h54.17,vbt_B2_day4,2022.2.4,MacIntel,200,,,,,,down,0,0.267,,0.115853659,0.070731707,1,0,0,0,3,3,7,1,geld,images/br_geld.png,images/cb_geld.png,0,,,,,,,,,,,,,,,,,,,,,,
,,,,,,2023-10-16_09h54.17,vbt_B2_day4,2022.2.4,MacIntel,200,,,,,,down,0,0.443,,0.117073171,0.069512195,1,0,0,0,4,4,99,1,koffie,images/br_koffie.png,images/cb_koffie.png,0,,,,,,,,,,,,,,,,,,,,,,
,,,,,,2023-10-16_09h54.17,vbt_B2_day4,2022.2.4,MacIntel,200,,,,,,down,0,1.551,,0.117073171,0.069512195,1,0,0,0,5,5,63,1,flirt,images/br_flirt.png,images/cb_flirt.png,0,,,,,,,,,,,,,,,,,,,,,,
,,,,,,2023-10-16_09h54.17,vbt_B2_day4,2022.2.4,MacIntel,200,,,,,,down,0,0.884,,0.117073171,0.070731707,1,0,0,0,6,6,121,1,twijfel,images/br_twijfel.png,images/cb_twijfel.png,0,,,,,,,,,,,,,,,,,,,,,,
,,,,,,2023-10-16_09h54.17,vbt_B2_day4,2022.2.4,MacIntel,200,,,,,,down,0,0.733,,0.117073171,0.069512195,1,0,0,0,7,7,11,1,mode,images/br_mode.png,images/cb_mode.png,0,,,,,,,,,,,,,,,,,,,,,,
,,,,,,2023-10-16_09h54.17,vbt_B2_day4,2022.2.4,MacIntel,200,,,,,,down,0,1.761,,0.118292683,0.068292683,1,0,0,0,8,8,132,1,grappen,images/br_grappen.png,images/cb_grappen.png,0,,,,,,,,,,,,,,,,,,,,,,
,,,,,,2023-10-16_09h54.17,vbt_B2_day4,2022.2.4,MacIntel,200,,,,,,down,0,4.208,,0.124390244,0.076829268,1,0,0,0,9,9,105,1,wijlen,images/br_wijlen.png,images/cb_wijlen.png,1,wijlen,,,,,,,,,,,,,,,,,,,,,
,,,,,,2023-10-16_09h54.17,vbt_B2_day4,2022.2.4,MacIntel,200,,,,,,down,0,4.531,,0.129268293,0.073170732,1,0,0,0,10,10,177,1,maaltijd,images/br_maaltijd.png,images/cb_maaltijd.png,0,,,,,,,,,,,,,,,,,,,,,,
,,,,,,2023-10-16_09h54.17,vbt_B2_day4,2022.2.4,MacIntel,200,,,,,,down,0,1.809,,0.129268293,0.073170732,1,0,0,0,11,11,163,1,schuilen,images/br_schuilen.png,images/cb_schuilen.png,0,,,,,,,,,,,,,,,,,,,,,,
,,,,,,2023-10-16_09h54.17,vbt_B2_day4,2022.2.4,MacIntel,200,,,,,,down,0,1.591,,0.129268293,0.07195122,1,0,0,0,12,12,115,1,kleren,images/br_kleren.png,images/cb_kleren.png,0,,,,,,,,,,,,,,,,,,,,,,
,,,,,,2023-10-16_09h54.17,vbt_B2_day4,2022.2.4,MacIntel,200,,,,,,down,0,0.665,,0.130487805,0.070731707,1,0,0,0,13,13,17,1,taal,images/br_taal.png,images/cb_taal.png,0,,,,,,,,,,,,,,,,,,,,,,
,,,,,,2023-10-16_09h54.17,vbt_B2_day4,2022.2.4,MacIntel,200,,,,,,down,0,2.96,,0.130487805,0.069512195,1,0,0,0,14,14,110,1,zuster,images/br_zuster.png,images/cb_zuster.png,0,,,,,,,,,,,,,,,,,,,,,,
,,,,,,2023-10-16_09h54.17,vbt_B2_day4,2022.2.4,MacIntel,200,,,,,,down,0,1.935,,0.131707317,0.065853659,1,0,0,0,15,15,134,1,geliefd,images/br_geliefd.png,images/cb_geliefd.png,0,,,,,,,,,,,,,,,,,,,,,,
,,,,,,2023-10-16_09h54.17,vbt_B2_day4,2022.2.4,MacIntel,200,,,,,,down,0,1.558,,0.130487805,0.064634146,1,0,0,0,16,16,93,1,waarop,images/br_waarop.png,images/cb_waarop.png,0,,,,,,,,,,,,,,,,,,,,,,
,,,,,,2023-10-16_09h54.17,vbt_B2_day4,2022.2.4,MacIntel,200,,,,,,down,0,0.818,,0.131707317,0.062195122,1,0,0,0,17,17,43,1,klauw,images/br_klauw.png,images/cb_klauw.png,0,,,,,,,,,,,,,,,,,,,,,,
,,,,,,2023-10-16_09h54.17,vbt_B2_day4,2022.2.4,MacIntel,200,,,,,,down,0,9.541,,0.132926829,0.062195122,1,0,0,0,18,18,178,1,huisdier,images/br_huisdier.png,images/cb_huisdier.png,0,,,,,,,,,,,,,,,,,,,,,,
,,,,,,2023-10-16_09h54.17,vbt_B2_day4,2022.2.4,MacIntel,200,,,,,,down,0,1.584,,0.132926829,0.062195122,1,0,0,0,19,19,193,1,weeshuis,images/br_weeshuis.png,images/cb_weeshuis.png,0,,,,,,,,,,,,,,,,,,,,,,
,,,,,,2023-10-16_09h54.17,vbt_B2_day4,2022.2.4,MacIntel,200,,,,,,down,0,1.566,,0.131707317,0.062195122,1,0,0,0,20,20,142,1,snuiven,images/br_snuiven.png,images/cb_snuiven.png,0,,,,,,,,,,,,,,,,,,,,,,
,,,,,,2023-10-16_09h54.17,vbt_B2_day4,2022.2.4,MacIntel,200,,,,,,down,0,1.066,,0.132926829,0.06097561,1,0,0,0,21,21,44,1,flits,images/br_flits.png,images/cb_flits.png,0,,,,,,,,,,,,,,,,,,,,,,
,,,,,,2023-10-16_09h54.17,vbt_B2_day4,2022.2.4,MacIntel,200,,,,,,down,0,4,,0.132926829,0.06097561,1,0,0,0,22,22,128,1,prikken,images/br_prikken.png,images/cb_prikken.png,0,,,,,,,,,,,,,,,,,,,,,,
,,,,,,2023-10-16_09h54.17,vbt_B2_day4,2022.2.4,MacIntel,200,,,,,,down,0,12.763,,0.131707317,0.062195122,1,0,0,0,23,23,107,1,maling,images/br_maling.png,images/cb_maling.png,1,maling,,,,,,,,,,,,,,,,,,,,,
,,,,,,2023-10-16_09h54.17,vbt_B2_day4,2022.2.4,MacIntel,200,,,,,,down,0,2.869,,0.130487805,0.06097561,1,0,0,0,24,24,67,1,zwart,images/br_zwart.png,images/cb_zwart.png,1,zwart,,,,,,,,,,,,,,,,,,,,,
,,,,,,2023-10-16_09h54.17,vbt_B2_day4,2022.2.4,MacIntel,200,,,,,,down,0,0.199,,0.130487805,0.06097561,1,0,0,0,25,25,148,1,smullen,images/br_smullen.png,images/cb_smullen.png,0,,,,,,,,,,,,,,,,,,,,,,
,,,,,,2023-10-16_09h54.17,vbt_B2_day4,2022.2.4,MacIntel,200,,,,,,down,0,10.982,,0.130487805,0.06097561,1,0,0,0,26,26,83,1,mening,images/br_mening.png,images/cb_mening.png,0,,,,,,,,,,,,,,,,,,,,,,
,,,,,,2023-10-16_09h54.17,vbt_B2_day4,2022.2.4,MacIntel,200,,,,,,down,0,11.135,,0.130487805,0.06097561,1,0,0,0,27,27,108,1,excuus,images/br_excuus.png,images/cb_excuus.png,0,,,,,,,,,,,,,,,,,,,,,,
,,,,,,2023-10-16_09h54.17,vbt_B2_day4,2022.2.4,MacIntel,200,,,,,,down,0,4.96,,0.130487805,0.06097561,1,0,0,0,28,28,80,1,kanjer,images/br_kanjer.png,images/cb_kanjer.png,0,,,,,,,,,,,,,,,,,,,,,,
,,,,,,2023-10-16_09h54.17,vbt_B2_day4,2022.2.4,MacIntel,200,,,,,,down,0,2.059,,0.130487805,0.06097561,1,0,0,0,29,29,88,1,boeien,images/br_boeien.png,images/cb_boeien.png,0,,,,,,,,,,,,,,,,,,,,,,
,,,,,,2023-10-16_09h54.17,vbt_B2_day4,2022.2.4,MacIntel,200,,,,,,down,0,1.798,,0.131707317,0.062195122,1,0,0,0,30,30,173,1,apparaat,images/br_apparaat.png,images/cb_apparaat.png,0,,,,,,,,,,,,,,,,,,,,,,
,,,,,,2023-10-16_09h54.17,vbt_B2_day4,2022.2.4,MacIntel,200,,,,,,down,0,5.274,,0.131707317,0.062195122,1,0,0,0,31,31,56,1,traag,images/br_traag.png,images/cb_traag.png,0,,,,,,,,,,,,,,,,,,,,,,
,,,,,,2023-10-16_09h54.17,vbt_B2_day4,2022.2.4,MacIntel,200,,,,,,down,0,8.691,,0.131707317,0.063414634,1,0,0,0,32,32,75,1,snoep,images/br_snoep.png,images/cb_snoep.png,0,,,,,,,,,,,,,,,,,,,,,,
,,,,,,2023-10-16_09h54.17,vbt_B2_day4,2022.2.4,MacIntel,200,,,,,,down,0,0.5,,0.131707317,0.063414634,1,0,0,0,33,33,199,1,beseffen,images/br_beseffen.png,images/cb_beseffen.png,0,,,,,,,,,,,,,,,,,,,,,,
,,,,,,2023-10-16_09h54.17,vbt_B2_day4,2022.2.4,MacIntel,200,,,,,,down,0,0.7,,0.131707317,0.063414634,1,0,0,0,34,34,155,1,gerucht,images/br_gerucht.png,images/cb_gerucht.png,0,,,,,,,,,,,,,,,,,,,,,,
,,,,,,2023-10-16_09h54.17,vbt_B2_day4,2022.2.4,MacIntel,200,,,,,,down,0,8.284,,0.135365854,0.069512195,1,0,0,0,35,35,185,1,mijnheer,images/br_mijnheer.png,images/cb_mijnheer.png,1,mijnheer,,,,,,,,,,,,,,,,,,,,,
,,,,,,2023-10-16_09h54.17,vbt_B2_day4,2022.2.4,MacIntel,200,,,,,,down,0,7.51,,0.13902439,0.067073171,1,0,0,0,36,36,79,1,nodig,images/br_nodig.png,images/cb_nodig.png,0,,,,,,,,,,,,,,,,,,,,,,
,,,,,,2023-10-16_09h54.17,vbt_B2_day4,2022.2.4,MacIntel,200,,,,,,down,0,4.549,,0.137804878,0.067073171,1,0,0,0,37,37,2,1,jaar,images/br_jaar.png,images/cb_jaar.png,0,,,,,,,,,,,,,,,,,,,,,,
,,,,,,2023-10-16_09h54.17,vbt_B2_day4,2022.2.4,MacIntel,200,,,,,,down,0,1.35,,0.137804878,0.067073171,1,0,0,0,38,38,100,1,geduld,images/br_geduld.png,images/cb_geduld.png,0,,,,,,,,,,,,,,,,,,,,,,
,,,,,,2023-10-16_09h54.17,vbt_B2_day4,2022.2.4,MacIntel,200,,,,,,down,0,4.095,,0.137804878,0.067073171,1,0,0,0,39,39,188,1,strekken,images/br_strekken.png,images/cb_strekken.png,0,,,,,,,,,,,,,,,,,,,,,,
,,,,,,2023-10-16_09h54.17,vbt_B2_day4,2022.2.4,MacIntel,200,,,,,,down,0,1.161,,0.137804878,0.067073171,1,0,0,0,40,40,3,1,mand,images/br_mand.png,images/cb_mand.png,0,,,,,,,,,,,,,,,,,,,,,,
,,,,,,2023-10-16_09h54.17,vbt_B2_day4,2022.2.4,MacIntel,200,,,,,,down,0,4.459,,0.137804878,0.067073171,1,0,0,0,41,41,90,1,geluid,images/br_geluid.png,images/cb_geluid.png,0,,,,,,,,,,,,,,,,,,,,,,
,,,,,,2023-10-16_09h54.17,vbt_B2_day4,2022.2.4,MacIntel,200,,,,,,down,0,6.534,,0.132926829,0.067073171,1,0,0,0,42,42,60,1,jasje,images/br_jasje.png,images/cb_jasje.png,0,,,,,,,,,,,,,,,,,,,,,,
,,,,,,2023-10-16_09h54.17,vbt_B2_day4,2022.2.4,MacIntel,200,,,,,,down,0,2.985,,0.132926829,0.067073171,1,0,0,0,43,43,76,1,afval,images/br_afval.png,images/cb_afval.png,0,,,,,,,,,,,,,,,,,,,,,,
,,,,,,2023-10-16_09h54.17,vbt_B2_day4,2022.2.4,MacIntel,200,,,,,,down,0,1.525,,0.132926829,0.067073171,1,0,0,0,44,44,112,1,lukken,images/br_lukken.png,images/cb_lukken.png,0,,,,,,,,,,,,,,,,,,,,,,
,,,,,,2023-10-16_09h54.17,vbt_B2_day4,2022.2.4,MacIntel,200,,,,,,down,0,4.908,,0.132926829,0.067073171,1,0,0,0,45,45,31,1,poes,images/br_poes.png,images/cb_poes.png,0,,,,,,,,,,,,,,,,,,,,,,
,,,,,,2023-10-16_09h54.17,vbt_B2_day4,2022.2.4,MacIntel,200,,,,,,down,0,0.724,,0.132926829,0.067073171,1,0,0,0,46,46,97,1,loyaal,images/br_loyaal.png,images/cb_loyaal.png,0,,,,,,,,,,,,,,,,,,,,,,
,,,,,,2023-10-16_09h54.17,vbt_B2_day4,2022.2.4,MacIntel,200,,,,,,down,0,7.216,,0.132926829,0.067073171,1,0,0,0,47,47,102,1,legaal,images/br_legaal.png,images/cb_legaal.png,0,,,,,,,,,,,,,,,,,,,,,,
,,,,,,2023-10-16_09h54.17,vbt_B2_day4,2022.2.4,MacIntel,200,,,,,,down,0,2.85,,0.132926829,0.067073171,1,0,0,0,48,48,169,1,oprotten,images/br_oprotten.png,images/cb_oprotten.png,0,,,,,,,,,,,,,,,,,,,,,,
,,,,,,2023-10-16_09h54.17,vbt_B2_day4,2022.2.4,MacIntel,200,,,,,,down,0,6.475,,0.132926829,0.067073171,1,0,0,0,49,49,123,1,hiervan,images/br_hiervan.png,images/cb_hiervan.png,0,,,,,,,,,,,,,,,,,,,,,,
,,,,,,2023-10-16_09h54.17,vbt_B2_day4,2022.2.4,MacIntel,200,,,,,,down,0,0.71,,0.132926829,0.067073171,1,0,0,0,50,50,58,1,tekst,images/br_tekst.png,images/cb_tekst.png,0,,,,,,,,,,,,,,,,,,,,,,
,,,,,,2023-10-16_09h54.17,vbt_B2_day4,2022.2.4,MacIntel,200,,,,,,down,0,1.8,,0.132926829,0.067073171,1,0,0,0,51,51,190,1,goedkoop,images/br_goedkoop.png,images/cb_goedkoop.png,0,,,,,,,,,,,,,,,,,,,,,,
,,,,,,2023-10-16_09h54.17,vbt_B2_day4,2022.2.4,MacIntel,200,,,,,,down,0,1.15,,0.132926829,0.067073171,1,0,0,0,52,52,191,1,opheffen,images/br_opheffen.png,images/cb_opheffen.png,0,,,,,,,,,,,,,,,,,,,,,,
,,,,,,2023-10-16_09h54.17,vbt_B2_day4,2022.2.4,MacIntel,200,,,,,,down,0,6.756,,0.132926829,0.067073171,1,0,0,0,53,53,154,1,aflopen,images/br_aflopen.png,images/cb_aflopen.png,0,,,,,,,,,,,,,,,,,,,,,,
,,,,,,2023-10-16_09h54.17,vbt_B2_day4,2022.2.4,MacIntel,200,,,,,,down,0,4.201,,0.132926829,0.067073171,1,0,0,0,54,54,197,1,spanning,images/br_spanning.png,images/cb_spanning.png,0,,,,,,,,,,,,,,,,,,,,,,
,,,,,,2023-10-16_09h54.17,vbt_B2_day4,2022.2.4,MacIntel,200,,,,,,down,0,2.076,,0.132926829,0.067073171,1,0,0,0,55,55,18,1,blik,images/br_blik.png,images/cb_blik.png,0,,,,,,,,,,,,,,,,,,,,,,
,,,,,,2023-10-16_09h54.17,vbt_B2_day4,2022.2.4,MacIntel,200,,,,,,down,0,0.578,,0.132926829,0.065853659,1,0,0,0,56,56,144,1,eetlust,images/br_eetlust.png,images/cb_eetlust.png,1,eetlust,,,,,,,,,,,,,,,,,,,,,
,,,,,,2023-10-16_09h54.17,vbt_B2_day4,2022.2.4,MacIntel,200,,,,,,down,0,1.826,,0.126829268,0.064634146,1,0,0,0,57,57,1,1,zaal,images/br_zaal.png,images/cb_zaal.png,0,,,,,,,,,,,,,,,,,,,,,,
,,,,,,2023-10-16_09h54.17,vbt_B2_day4,2022.2.4,MacIntel,200,,,,,,down,0,0.828,,0.126829268,0.064634146,1,0,0,0,58,58,138,1,akkoord,images/br_akkoord.png,images/cb_akkoord.png,0,,,,,,,,,,,,,,,,,,,,,,
,,,,,,2023-10-16_09h54.17,vbt_B2_day4,2022.2.4,MacIntel,200,,,,,,down,0,1.635,,0.159756098,0.086585366,1,0,0,0,59,59,129,1,verhaal,images/br_verhaal.png,images/cb_verhaal.png,0,,,,,,,,,,,,,,,,,,,,,,
,,,,,,2023-10-16_09h54.17,vbt_B2_day4,2022.2.4,MacIntel,200,,,,,,down,0,0.5,,0.159756098,0.086585366,1,0,0,0,60,60,78,1,leren,images/br_leren.png,images/cb_leren.png,0,,,,,,,,,,,,,,,,,,,,,,
,,,,,,2023-10-16_09h54.17,vbt_B2_day4,2022.2.4,MacIntel,200,,,,,,down,0,0.335,,0.159756098,0.086585366,1,0,0,0,61,61,29,1,baas,images/br_baas.png,images/cb_baas.png,0,,,,,,,,,,,,,,,,,,,,,,
,,,,,,2023-10-16_09h54.17,vbt_B2_day4,2022.2.4,MacIntel,200,,,,,,down,0,7.267,,0.17195122,0.098780488,1,0,0,0,62,62,49,1,laken,images/br_laken.png,images/cb_laken.png,0,,,,,,,,,,,,,,,,,,,,,,
,,,,,,2023-10-16_09h54.17,vbt_B2_day4,2022.2.4,MacIntel,200,,,,,,down,0,3.075,,0.146341463,0.086585366,1,0,0,0,63,63,118,1,vinger,images/br_vinger.png,images/cb_vinger.png,0,,,,,,,,,,,,,,,,,,,,,,
,,,,,,2023-10-16_09h54.17,vbt_B2_day4,2022.2.4,MacIntel,200,,,,,,down,0,6.782,,0.147560976,0.087804878,1,0,0,0,64,64,136,1,waarbij,images/br_waarbij.png,images/cb_waarbij.png,0,,,,,,,,,,,,,,,,,,,,,,
,,,,,,2023-10-16_09h54.17,vbt_B2_day4,2022.2.4,MacIntel,200,,,,,,down,0,2.132,,0.147560976,0.087804878,1,0,0,0,65,65,66,1,lever,images/br_lever.png,images/cb_lever.png,1,lever,,,,,,,,,,,,,,,,,,,,,
,,,,,,2023-10-16_09h54.17,vbt_B2_day4,2022.2.4,MacIntel,200,,,,,,down,0,0.4,,0.147560976,0.087804878,1,0,0,0,66,66,38,1,baai,images/br_baai.png,images/cb_baai.png,0,,,,,,,,,,,,,,,,,,,,,,
,,,,,,2023-10-16_09h54.17,vbt_B2_day4,2022.2.4,MacIntel,200,,,,,,down,0,0.676,,0.147560976,0.087804878,1,0,0,0,67,67,157,1,uitlaat,images/br_uitlaat.png,images/cb_uitlaat.png,0,,,,,,,,,,,,,,,,,,,,,,
,,,,,,2023-10-16_09h54.17,vbt_B2_day4,2022.2.4,MacIntel,200,,,,,,down,0,4.926,,0.147560976,0.087804878,1,0,0,0,68,68,137,1,trekker,images/br_trekker.png,images/cb_trekker.png,0,,,,,,,,,,,,,,,,,,,,,,
,,,,,,2023-10-16_09h54.17,vbt_B2_day4,2022.2.4,MacIntel,200,,,,,,down,0,2.808,,0.147560976,0.087804878,1,0,0,0,69,69,70,1,ijdel,images/br_ijdel.png,images/cb_ijdel.png,0,,,,,,,,,,,,,,,,,,,,,,
,,,,,,2023-10-16_09h54.17,vbt_B2_day4,2022.2.4,MacIntel,200,,,,,,down,0,0.166,,0.147560976,0.087804878,1,0,0,0,70,70,9,1,hier,images/br_hier.png,images/cb_hier.png,0,,,,,,,,,,,,,,,,,,,,,,
,,,,,,2023-10-16_09h54.17,vbt_B2_day4,2022.2.4,MacIntel,200,,,,,,down,0,2.834,,0.147560976,0.087804878,1,0,0,0,71,71,61,1,groen,images/br_groen.png,images/cb_groen.png,0,,,,,,,,,,,,,,,,,,,,,,
,,,,,,2023-10-16_09h54.17,vbt_B2_day4,2022.2.4,MacIntel,200,,,,,,down,0,2.6,,0.158536585,0.098780488,1,0,0,0,72,72,158,1,innemen,images/br_innemen.png,images/cb_innemen.png,0,,,,,,,,,,,,,,,,,,,,,,
,,,,,,2023-10-16_09h54.17,vbt_B2_day4,2022.2.4,MacIntel,200,,,,,,down,0,6.151,,0.159756098,0.097560976,1,0,0,0,73,73,180,1,openbaar,images/br_openbaar.png,images/cb_openbaar.png,0,,,,,,,,,,,,,,,,,,,,,,
,,,,,,2023-10-16_09h54.17,vbt_B2_day4,2022.2.4,MacIntel,200,,,,,,down,0,2.8,,0.159756098,0.096341463,1,0,0,0,74,74,96,1,slagen,images/br_slagen.png,images/cb_slagen.png,0,,,,,,,,,,,,,,,,,,,,,,
,,,,,,2023-10-16_09h54.17,vbt_B2_day4,2022.2.4,MacIntel,200,,,,,,down,0,2.01,,0.159756098,0.095121951,1,0,0,0,75,75,52,1,wagon,images/br_wagon.png,images/cb_wagon.png,0,,,,,,,,,,,,,,,,,,,,,,
,,,,,,2023-10-16_09h54.17,vbt_B2_day4,2022.2.4,MacIntel,200,,,,,,down,0,1.727,,0.164634146,0.093902439,1,0,0,0,76,76,62,1,knaap,images/br_knaap.png,images/cb_knaap.png,0,,,,,,,,,,,,,,,,,,,,,,
,,,,,,2023-10-16_09h54.17,vbt_B2_day4,2022.2.4,MacIntel,200,,,,,,down,0,5.569,,0.167073171,0.095121951,1,0,0,0,77,77,94,1,oceaan,images/br_oceaan.png,images/cb_oceaan.png,0,,,,,,,,,,,,,,,,,,,,,,
,,,,,,2023-10-16_09h54.17,vbt_B2_day4,2022.2.4,MacIntel,200,,,,,,down,0,4.753,,0.167073171,0.095121951,1,0,0,0,78,78,0,1,slak,images/br_slak.png,images/cb_slak.png,0,,,,,,,,,,,,,,,,,,,,,,
,,,,,,2023-10-16_09h54.17,vbt_B2_day4,2022.2.4,MacIntel,200,,,,,,down,0,0.686,,0.165853659,0.095121951,1,0,0,0,79,79,139,1,stiekem,images/br_stiekem.png,images/cb_stiekem.png,0,,,,,,,,,,,,,,,,,,,,,,
,,,,,,2023-10-16_09h54.17,vbt_B2_day4,2022.2.4,MacIntel,200,,,,,,down,0,2.594,,0.164634146,0.095121951,1,0,0,0,80,80,120,1,klimmen,images/br_klimmen.png,images/cb_klimmen.png,0,,,,,,,,,,,,,,,,,,,,,,
,,,,,,2023-10-16_09h54.17,vbt_B2_day4,2022.2.4,MacIntel,200,,,,,,down,0,1.368,,0.162195122,0.097560976,1,0,0,0,81,81,125,1,aanzien,images/br_aanzien.png,images/cb_aanzien.png,0,,,,,,,,,,,,,,,,,,,,,,
,,,,,,2023-10-16_09h54.17,vbt_B2_day4,2022.2.4,MacIntel,200,,,,,,down,0,0.925,,0.169512195,0.08902439,1,0,0,0,82,82,89,1,slapen,images/br_slapen.png,images/cb_slapen.png,0,,,,,,,,,,,,,,,,,,,,,,
,,,,,,2023-10-16_09h54.17,vbt_B2_day4,2022.2.4,MacIntel,200,,,,,,down,0,0.951,,0.17195122,0.08902439,1,0,0,0,83,83,73,1,volop,images/br_volop.png,images/cb_volop.png,0,,,,,,,,,,,,,,,,,,,,,,
,,,,,,2023-10-16_09h54.17,vbt_B2_day4,2022.2.4,MacIntel,200,,,,,,down,0,0.367,,0.17195122,0.086585366,1,0,0,0,84,84,13,1,kaal,images/br_kaal.png,images/cb_kaal.png,0,,,,,,,,,,,,,,,,,,,,,,
,,,,,,2023-10-16_09h54.17,vbt_B2_day4,2022.2.4,MacIntel,200,,,,,,down,0,0.193,,0.17195122,0.085365854,1,0,0,0,85,85,103,1,joggen,images/br_joggen.png,images/cb_joggen.png,0,,,,,,,,,,,,,,,,,,,,,,
,,,,,,2023-10-16_09h54.17,vbt_B2_day4,2022.2.4,MacIntel,200,,,,,,down,0,1.152,,0.17195122,0.084146341,1,0,0,0,86,86,48,1,steel,images/br_steel.png,images/cb_steel.png,0,,,,,,,,,,,,,,,,,,,,,,
,,,,,,2023-10-16_09h54.17,vbt_B2_day4,2022.2.4,MacIntel,200,,,,,,down,0,0.359,,0.173170732,0.084146341,1,0,0,0,87,87,16,1,ziek,images/br_ziek.png,images/cb_ziek.png,0,,,,,,,,,,,,,,,,,,,,,,
,,,,,,2023-10-16_09h54.17,vbt_B2_day4,2022.2.4,MacIntel,200,,,,,,down,0,8.125,,0.173170732,0.084146341,1,0,0,0,88,88,187,1,opkijken,images/br_opkijken.png,images/cb_opkijken.png,1,opkijken,,,,,,,,,,,,,,,,,,,,,
,,,,,,2023-10-16_09h54.17,vbt_B2_day4,2022.2.4,MacIntel,200,,,,,,down,0,6.25,,0.173170732,0.084146341,1,0,0,0,89,89,196,1,nakijken,images/br_nakijken.png,images/cb_nakijken.png,0,,,,,,,,,,,,,,,,,,,,,,
,,,,,,2023-10-16_09h54.17,vbt_B2_day4,2022.2.4,MacIntel,200,,,,,,down,0,2.199,,0.173170732,0.084146341,1,0,0,0,90,90,192,1,schaamte,images/br_schaamte.png,images/cb_schaamte.png,0,,,,,,,,,,,,,,,,,,,,,,
,,,,,,2023-10-16_09h54.17,vbt_B2_day4,2022.2.4,MacIntel,200,,,,,,down,0,3.782,,0.173170732,0.084146341,1,0,0,0,91,91,172,1,weigeren,images/br_weigeren.png,images/cb_weigeren.png,0,,,,,,,,,,,,,,,,,,,,,,
,,,,,,2023-10-16_09h54.17,vbt_B2_day4,2022.2.4,MacIntel,200,,,,,,down,0,1.566,,0.173170732,0.084146341,1,0,0,0,92,92,182,1,bijkomen,images/br_bijkomen.png,images/cb_bijkomen.png,0,,,,,,,,,,,,,,,,,,,,,,
,,,,,,2023-10-16_09h54.17,vbt_B2_day4,2022.2.4,MacIntel,200,,,,,,down,0,0.883,,0.173170732,0.084146341,1,0,0,0,93,93,146,1,opkomen,images/br_opkomen.png,images/cb_opkomen.png,1,opkomen,,,,,,,,,,,,,,,,,,,,,
,,,,,,2023-10-16_09h54.17,vbt_B2_day4,2022.2.4,MacIntel,200,,,,,,down,0,0.193,,0.173170732,0.084146341,1,0,0,0,94,94,68,1,schat,images/br_schat.png,images/cb_schat.png,0,,,,,,,,,,,,,,,,,,,,,,
,,,,,,2023-10-16_09h54.17,vbt_B2_day4,2022.2.4,MacIntel,200,,,,,,down,0,2.737,,0.176829268,0.086585366,1,0,0,0,95,95,24,1,jurk,images/br_jurk.png,images/cb_jurk.png,1,jurk,,,,,,,,,,,,,,,,,,,,,
,,,,,,2023-10-16_09h54.17,vbt_B2_day4,2022.2.4,MacIntel,200,,,,,,down,0,7.234,,0.176829268,0.086585366,1,0,0,0,96,96,156,1,rechten,images/br_rechten.png,images/cb_rechten.png,0,,,,,,,,,,,,,,,,,,,,,,
,,,,,,2023-10-16_09h54.17,vbt_B2_day4,2022.2.4,MacIntel,200,,,,,,down,0,2.927,,0.176829268,0.086585366,1,0,0,0,97,97,159,1,sufferd,images/br_sufferd.png,images/cb_sufferd.png,0,,,,,,,,,,,,,,,,,,,,,,
,,,,,,2023-10-16_09h54.17,vbt_B2_day4,2022.2.4,MacIntel,200,,,,,,down,0,0.268,,0.176829268,0.086585366,1,0,0,0,98,98,5,1,blad,images/br_blad.png,images/cb_blad.png,0,,,,,,,,,,,,,,,,,,,,,,
,,,,,,2023-10-16_09h54.17,vbt_B2_day4,2022.2.4,MacIntel,200,,,,,,down,0,0.35,,0.17804878,0.085365854,1,0,0,0,99,99,10,1,leek,images/br_leek.png,images/cb_leek.png,0,,,,,,,,,,,,,,,,,,,,,,
,,,,,,2023-10-16_09h54.17,vbt_B2_day4,2022.2.4,MacIntel,200,,,,,,down,0,0.852,,0.17804878,0.086585366,1,0,0,0,100,100,12,1,kust,images/br_kust.png,images/cb_kust.png,0,,,,,,,,,,,,,,,,,,,,,,
,,,,,,2023-10-16_09h54.17,vbt_B2_day4,2022.2.4,MacIntel,200,,,,,,down,0,5.007,,0.176829268,0.087804878,1,0,0,0,101,101,117,1,kennis,images/br_kennis.png,images/cb_kennis.png,0,,,,,,,,,,,,,,,,,,,,,,
,,,,,,2023-10-16_09h54.17,vbt_B2_day4,2022.2.4,MacIntel,200,,,,,,down,0,1.235,,0.17804878,0.087804878,1,0,0,0,102,102,39,1,laag,images/br_laag.png,images/cb_laag.png,0,,,,,,,,,,,,,,,,,,,,,,
,,,,,,2023-10-16_09h54.17,vbt_B2_day4,2022.2.4,MacIntel,200,,,,,,down,0,5.484,,0.17804878,0.086585366,1,0,0,0,103,103,15,1,soda,images/br_soda.png,images/cb_soda.png,0,,,,,,,,,,,,,,,,,,,,,,
,,,,,,2023-10-16_09h54.17,vbt_B2_day4,2022.2.4,MacIntel,200,,,,,,down,0,0.309,,0.17804878,0.086585366,1,0,0,0,104,104,116,1,besmet,images/br_besmet.png,images/cb_besmet.png,0,,,,,,,,,,,,,,,,,,,,,,
,,,,,,2023-10-16_09h54.17,vbt_B2_day4,2022.2.4,MacIntel,200,,,,,,down,0,0.666,,0.17804878,0.086585366,1,0,0,0,105,105,74,1,graaf,images/br_graaf.png,images/cb_graaf.png,0,,,,,,,,,,,,,,,,,,,,,,
,,,,,,2023-10-16_09h54.17,vbt_B2_day4,2022.2.4,MacIntel,200,,,,,,down,0,2.676,,0.17804878,0.084146341,1,0,0,0,106,106,170,1,schatten,images/br_schatten.png,images/cb_schatten.png,0,,,,,,,,,,,,,,,,,,,,,,
,,,,,,2023-10-16_09h54.17,vbt_B2_day4,2022.2.4,MacIntel,200,,,,,,down,0,2.602,,0.17804878,0.082926829,1,0,0,0,107,107,84,1,lokken,images/br_lokken.png,images/cb_lokken.png,0,,,,,,,,,,,,,,,,,,,,,,
,,,,,,2023-10-16_09h54.17,vbt_B2_day4,2022.2.4,MacIntel,200,,,,,,down,0,4.249,,0.17804878,0.082926829,1,0,0,0,108,108,145,1,invloed,images/br_invloed.png,images/cb_invloed.png,1,invloed,,,,,,,,,,,,,,,,,,,,,
,,,,,,2023-10-16_09h54.17,vbt_B2_day4,2022.2.4,MacIntel,200,,,,,,down,0,1.614,,0.190243902,0.069512195,1,0,0,0,109,109,151,1,aanzoek,images/br_aanzoek.png,images/cb_aanzoek.png,0,,,,,,,,,,,,,,,,,,,,,,
,,,,,,2023-10-16_09h54.17,vbt_B2_day4,2022.2.4,MacIntel,200,,,,,,down,0,1.294,,0.190243902,0.069512195,1,0,0,0,110,110,127,1,doodmoe,images/br_doodmoe.png,images/cb_doodmoe.png,0,,,,,,,,,,,,,,,,,,,,,,
,,,,,,2023-10-16_09h54.17,vbt_B2_day4,2022.2.4,MacIntel,200,,,,,,down,0,1.658,,0.187804878,0.07195122,1,0,0,0,111,111,92,1,geheim,images/br_geheim.png,images/cb_geheim.png,0,,,,,,,,,,,,,,,,,,,,,,
,,,,,,2023-10-16_09h54.17,vbt_B2_day4,2022.2.4,MacIntel,200,,,,,,down,0,1.432,,0.191463415,0.07195122,1,0,0,0,112,112,64,1,wegen,images/br_wegen.png,images/cb_wegen.png,1,wegen,,,,,,,,,,,,,,,,,,,,,
,,,,,,2023-10-16_09h54.17,vbt_B2_day4,2022.2.4,MacIntel,200,,,,,,down,0,0.55,,0.191463415,0.07195122,1,0,0,0,113,113,91,1,gezond,images/br_gezond.png,images/cb_gezond.png,0,,,,,,,,,,,,,,,,,,,,,,
,,,,,,2023-10-16_09h54.17,vbt_B2_day4,2022.2.4,MacIntel,200,,,,,,down,0,2.834,,0.192682927,0.07195122,1,0,0,0,114,114,141,1,knielen,images/br_knielen.png,images/cb_knielen.png,0,,,,,,,,,,,,,,,,,,,,,,
,,,,,,2023-10-16_09h54.17,vbt_B2_day4,2022.2.4,MacIntel,200,,,,,,down,0,1.401,,0.192682927,0.070731707,1,0,0,0,115,115,189,1,aanraden,images/br_aanraden.png,images/cb_aanraden.png,0,,,,,,,,,,,,,,,,,,,,,,
,,,,,,2023-10-16_09h54.17,vbt_B2_day4,2022.2.4,MacIntel,200,,,,,,down,0,0.558,,0.192682927,0.070731707,1,0,0,0,116,116,37,1,mijn,images/br_mijn.png,images/cb_mijn.png,0,,,,,,,,,,,,,,,,,,,,,,
,,,,,,2023-10-16_09h54.17,vbt_B2_day4,2022.2.4,MacIntel,200,,,,,,down,0,0.391,,0.193902439,0.069512195,1,0,0,0,117,117,150,1,gegeven,images/br_gegeven.png,images/cb_gegeven.png,0,,,,,,,,,,,,,,,,,,,,,,
,,,,,,2023-10-16_09h54.17,vbt_B2_day4,2022.2.4,MacIntel,200,,,,,,down,0,2.169,,0.195121951,0.068292683,1,0,0,0,118,118,161,1,attentie,images/br_attentie.png,images/cb_attentie.png,0,,,,,,,,,,,,,,,,,,,,,,
,,,,,,2023-10-16_09h54.17,vbt_B2_day4,2022.2.4,MacIntel,200,,,,,,down,0,0.543,,0.195121951,0.069512195,1,0,0,0,119,119,40,1,schep,images/br_schep.png,images/cb_schep.png,0,,,,,,,,,,,,,,,,,,,,,,
,,,,,,2023-10-16_09h54.17,vbt_B2_day4,2022.2.4,MacIntel,200,,,,,,down,0,0.386,,0.195121951,0.070731707,1,0,0,0,120,120,35,1,lust,images/br_lust.png,images/cb_lust.png,0,,,,,,,,,,,,,,,,,,,,,,
,,,,,,2023-10-16_09h54.17,vbt_B2_day4,2022.2.4,MacIntel,200,,,,,,down,0,1.574,,0.195121951,0.070731707,1,0,0,0,121,121,149,1,redding,images/br_redding.png,images/cb_redding.png,0,,,,,,,,,,,,,,,,,,,,,,
,,,,,,2023-10-16_09h54.17,vbt_B2_day4,2022.2.4,MacIntel,200,,,,,,down,0,1.126,,0.195121951,0.069512195,1,0,0,0,122,122,8,1,knie,images/br_knie.png,images/cb_knie.png,0,,,,,,,,,,,,,,,,,,,,,,
,,,,,,2023-10-16_09h54.17,vbt_B2_day4,2022.2.4,MacIntel,200,,,,,,down,0,0.417,,0.196341463,0.070731707,1,0,0,0,123,123,28,1,stal,images/br_stal.png,images/cb_stal.png,0,,,,,,,,,,,,,,,,,,,,,,
,,,,,,2023-10-16_09h54.17,vbt_B2_day4,2022.2.4,MacIntel,200,,,,,,down,0,3.643,,0.196341463,0.070731707,1,0,0,0,124,124,71,1,bever,images/br_bever.png,images/cb_bever.png,0,,,,,,,,,,,,,,,,,,,,,,
,,,,,,2023-10-16_09h54.17,vbt_B2_day4,2022.2.4,MacIntel,200,,,,,,down,0,5.375,,0.196341463,0.069512195,1,0,0,0,125,125,113,1,koppen,images/br_koppen.png,images/cb_koppen.png,0,,,,,,,,,,,,,,,,,,,,,,
,,,,,,2023-10-16_09h54.17,vbt_B2_day4,2022.2.4,MacIntel,200,,,,,,down,0,0.7,,0.196341463,0.068292683,1,0,0,0,126,126,55,1,praat,images/br_praat.png,images/cb_praat.png,0,,,,,,,,,,,,,,,,,,,,,,
,,,,,,2023-10-16_09h54.17,vbt_B2_day4,2022.2.4,MacIntel,200,,,,,,down,0,2.267,,0.197560976,0.065853659,1,0,0,0,127,127,32,1,palm,images/br_palm.png,images/cb_palm.png,0,,,,,,,,,,,,,,,,,,,,,,
,,,,,,2023-10-16_09h54.17,vbt_B2_day4,2022.2.4,MacIntel,200,,,,,,down,0,1.386,,0.196341463,0.069512195,1,0,0,0,128,128,166,1,strikken,images/br_strikken.png,images/cb_strikken.png,0,,,,,,,,,,,,,,,,,,,,,,
,,,,,,2023-10-16_09h54.17,vbt_B2_day4,2022.2.4,MacIntel,200,,,,,,down,0,0.76,,0.196341463,0.069512195,1,0,0,0,129,129,51,1,samen,images/br_samen.png,images/cb_samen.png,0,,,,,,,,,,,,,,,,,,,,,,
,,,,,,2023-10-16_09h54.17,vbt_B2_day4,2022.2.4,MacIntel,200,,,,,,down,0,0.684,,0.196341463,0.069512195,1,0,0,0,130,130,168,1,bisschop,images/br_bisschop.png,images/cb_bisschop.png,0,,,,,,,,,,,,,,,,,,,,,,
,,,,,,2023-10-16_09h54.17,vbt_B2_day4,2022.2.4,MacIntel,200,,,,,,down,0,1.464,,0.196341463,0.069512195,1,0,0,0,131,131,57,1,steek,images/br_steek.png,images/cb_steek.png,0,,,,,,,,,,,,,,,,,,,,,,
,,,,,,2023-10-16_09h54.17,vbt_B2_day4,2022.2.4,MacIntel,200,,,,,,down,0,1.587,,0.196341463,0.068292683,1,0,0,0,132,132,27,1,dans,images/br_dans.png,images/cb_dans.png,1,dans,,,,,,,,,,,,,,,,,,,,,
,,,,,,2023-10-16_09h54.17,vbt_B2_day4,2022.2.4,MacIntel,200,,,,,,down,0,0.6,,0.196341463,0.069512195,1,0,0,0,133,133,186,1,voorraad,images/br_voorraad.png,images/cb_voorraad.png,1,,,,,,,,,,,,,,,,,,,,,,
,,,,,,2023-10-16_09h54.17,vbt_B2_day4,2022.2.4,MacIntel,200,,,,,,down,0,16.35,,0.196341463,0.069512195,1,0,0,0,134,134,41,1,maken,images/br_maken.png,images/cb_maken.png,0,,,,,,,,,,,,,,,,,,,,,,
,,,,,,2023-10-16_09h54.17,vbt_B2_day4,2022.2.4,MacIntel,200,,,,,,down,0,2.995,,0.196341463,0.069512195,1,0,0,0,135,135,194,1,driemaal,images/br_driemaal.png,images/cb_driemaal.png,0,,,,,,,,,,,,,,,,,,,,,,
,,,,,,2023-10-16_09h54.17,vbt_B2_day4,2022.2.4,MacIntel,200,,,,,,down,0,0.858,,0.196341463,0.069512195,1,0,0,0,136,136,131,1,opzicht,images/br_opzicht.png,images/cb_opzicht.png,0,,,,,,,,,,,,,,,,,,,,,,
,,,,,,2023-10-16_09h54.17,vbt_B2_day4,2022.2.4,MacIntel,200,,,,,,down,0,0.01,,0.196341463,0.069512195,1,0,0,0,137,137,22,1,stof,images/br_stof.png,images/cb_stof.png,0,,,,,,,,,,,,,,,,,,,,,,
,,,,,,2023-10-16_09h54.17,vbt_B2_day4,2022.2.4,MacIntel,200,,,,,,down,0,2.087,,0.196341463,0.069512195,1,0,0,0,138,138,106,1,zingen,images/br_zingen.png,images/cb_zingen.png,1,zingen,,,,,,,,,,,,,,,,,,,,,
,,,,,,2023-10-16_09h54.17,vbt_B2_day4,2022.2.4,MacIntel,200,,,,,,down,0,0.249,,0.196341463,0.069512195,1,0,0,0,139,139,109,1,totaal,images/br_totaal.png,images/cb_totaal.png,0,,,,,,,,,,,,,,,,,,,,,,
,,,,,,2023-10-16_09h54.17,vbt_B2_day4,2022.2.4,MacIntel,200,,,,,,down,0,1.984,,0.196341463,0.069512195,1,0,0,0,140,140,122,1,waarvan,images/br_waarvan.png,images/cb_waarvan.png,0,,,,,,,,,,,,,,,,,,,,,,
,,,,,,2023-10-16_09h54.17,vbt_B2_day4,2022.2.4,MacIntel,200,,,,,,down,0,1.242,,0.196341463,0.069512195,1,0,0,0,141,141,133,1,seizoen,images/br_seizoen.png,images/cb_seizoen.png,0,,,,,,,,,,,,,,,,,,,,,,
,,,,,,2023-10-16_09h54.17,vbt_B2_day4,2022.2.4,MacIntel,200,,,,,,down,0,0.527,,0.196341463,0.069512195,1,0,0,0,142,142,69,1,waken,images/br_waken.png,images/cb_waken.png,0,,,,,,,,,,,,,,,,,,,,,,
,,,,,,2023-10-16_09h54.17,vbt_B2_day4,2022.2.4,MacIntel,200,,,,,,down,0,1.067,,0.197560976,0.069512195,1,0,0,0,143,143,175,1,heengaan,images/br_heengaan.png,images/cb_heengaan.png,0,,,,,,,,,,,,,,,,,,,,,,
,,,,,,2023-10-16_09h54.17,vbt_B2_day4,2022.2.4,MacIntel,200,,,,,,down,0,0.036,,0.196341463,0.070731707,1,0,0,0,144,144,87,1,toeval,images/br_toeval.png,images/cb_toeval.png,0,,,,,,,,,,,,,,,,,,,,,,
,,,,,,2023-10-16_09h54.17,vbt_B2_day4,2022.2.4,MacIntel,200,,,,,,down,0,0.591,,0.196341463,0.069512195,1,0,0,0,145,145,34,1,vorm,images/br_vorm.png,images/cb_vorm.png,0,,,,,,,,,,,,,,,,,,,,,,
,,,,,,2023-10-16_09h54.17,vbt_B2_day4,2022.2.4,MacIntel,200,,,,,,down,0,0.867,,0.197560976,0.067073171,1,0,0,0,146,146,21,1,mist,images/br_mist.png,images/cb_mist.png,0,,,,,,,,,,,,,,,,,,,,,,
,,,,,,2023-10-16_09h54.17,vbt_B2_day4,2022.2.4,MacIntel,200,,,,,,down,0,0.685,,0.198780488,0.067073171,1,0,0,0,147,147,23,1,zout,images/br_zout.png,images/cb_zout.png,0,,,,,,,,,,,,,,,,,,,,,,
,,,,,,2023-10-16_09h54.17,vbt_B2_day4,2022.2.4,MacIntel,200,,,,,,down,0,1.868,,0.2,0.064634146,1,0,0,0,148,148,126,1,kasteel,images/br_kasteel.png,images/cb_kasteel.png,0,,,,,,,,,,,,,,,,,,,,,,
,,,,,,2023-10-16_09h54.17,vbt_B2_day4,2022.2.4,MacIntel,200,,,,,,down,0,5.97,,0.201219512,0.064634146,1,0,0,0,149,149,98,1,kreeft,images/br_kreeft.png,images/cb_kreeft.png,0,,,,,,,,,,,,,,,,,,,,,,
,,,,,,2023-10-16_09h54.17,vbt_B2_day4,2022.2.4,MacIntel,200,,,,,,down,0,4.2,,0.202439024,0.064634146,1,0,0,0,150,150,183,1,getuigen,images/br_getuigen.png,images/cb_getuigen.png,0,,,,,,,,,,,,,,,,,,,,,,
,,,,,,2023-10-16_09h54.17,vbt_B2_day4,2022.2.4,MacIntel,200,,,,,,down,0,1.017,,0.202439024,0.064634146,1,0,0,0,151,151,124,1,bloeien,images/br_bloeien.png,images/cb_bloeien.png,0,,,,,,,,,,,,,,,,,,,,,,
,,,,,,2023-10-16_09h54.17,vbt_B2_day4,2022.2.4,MacIntel,200,,,,,,down,0,2.276,,0.204878049,0.063414634,1,0,0,0,152,152,14,1,rijp,images/br_rijp.png,images/cb_rijp.png,0,,,,,,,,,,,,,,,,,,,,,,
,,,,,,2023-10-16_09h54.17,vbt_B2_day4,2022.2.4,MacIntel,200,,,,,,down,0,4.136,,0.203658537,0.064634146,1,0,0,0,153,153,25,1,plek,images/br_plek.png,images/cb_plek.png,1,plek,,,,,,,,,,,,,,,,,,,,,
,,,,,,2023-10-16_09h54.17,vbt_B2_day4,2022.2.4,MacIntel,200,,,,,,down,0,3.969,,0.203658537,0.064634146,1,0,0,0,154,154,162,1,uitdelen,images/br_uitdelen.png,images/cb_uitdelen.png,0,,,,,,,,,,,,,,,,,,,,,,
,,,,,,2023-10-16_09h54.17,vbt_B2_day4,2022.2.4,MacIntel,200,,,,,,down,0,4.26,,0.203658537,0.064634146,1,0,0,0,155,155,152,1,afnemen,images/br_afnemen.png,images/cb_afnemen.png,0,,,,,,,,,,,,,,,,,,,,,,
,,,,,,2023-10-16_09h54.17,vbt_B2_day4,2022.2.4,MacIntel,200,,,,,,down,0,4.346,,0.203658537,0.064634146,1,0,0,0,156,156,147,1,komisch,images/br_komisch.png,images/cb_komisch.png,1,komisch,,,,,,,,,,,,,,,,,,,,,
,,,,,,2023-10-16_09h54.17,vbt_B2_day4,2022.2.4,MacIntel,200,,,,,,down,0,0.949,,0.203658537,0.064634146,1,0,0,0,157,157,165,1,feestdag,images/br_feestdag.png,images/cb_feestdag.png,0,,,,,,,,,,,,,,,,,,,,,,
,,,,,,2023-10-16_09h54.17,vbt_B2_day4,2022.2.4,MacIntel,200,,,,,,down,0,0.651,,0.207317073,0.062195122,1,0,0,0,158,158,33,1,vlek,images/br_vlek.png,images/cb_vlek.png,0,,,,,,,,,,,,,,,,,,,,,,
,,,,,,2023-10-16_09h54.17,vbt_B2_day4,2022.2.4,MacIntel,200,,,,,,down,0,0.832,,0.207317073,0.06097561,1,0,0,0,159,159,85,1,heilig,images/br_heilig.png,images/cb_heilig.png,0,,,,,,,,,,,,,,,,,,,,,,
,,,,,,2023-10-16_09h54.17,vbt_B2_day4,2022.2.4,MacIntel,200,,,,,,down,0,2.434,,0.203658537,0.064634146,1,0,0,0,160,160,104,1,zweven,images/br_zweven.png,images/cb_zweven.png,1,zweven,,,,,,,,,,,,,,,,,,,,,
,,,,,,2023-10-16_09h54.17,vbt_B2_day4,2022.2.4,MacIntel,200,,,,,,down,0,5.667,,0.203658537,0.063414634,1,0,0,0,161,161,4,1,moes,images/br_moes.png,images/cb_moes.png,0,,,,,,,,,,,,,,,,,,,,,,
,,,,,,2023-10-16_09h54.17,vbt_B2_day4,2022.2.4,MacIntel,200,,,,,,down,0,7.222,,0.203658537,0.063414634,1,0,0,0,162,162,111,1,ticket,images/br_ticket.png,images/cb_ticket.png,0,,,,,,,,,,,,,,,,,,,,,,
,,,,,,2023-10-16_09h54.17,vbt_B2_day4,2022.2.4,MacIntel,200,,,,,,down,0,7.868,,0.203658537,0.063414634,1,0,0,0,163,163,36,1,vuur,images/br_vuur.png,images/cb_vuur.png,0,,,,,,,,,,,,,,,,,,,,,,
,,,,,,2023-10-16_09h54.17,vbt_B2_day4,2022.2.4,MacIntel,200,,,,,,down,0,7.068,,0.203658537,0.063414634,1,0,0,0,164,164,135,1,gedicht,images/br_gedicht.png,images/cb_gedicht.png,0,,,,,,,,,,,,,,,,,,,,,,
,,,,,,2023-10-16_09h54.17,vbt_B2_day4,2022.2.4,MacIntel,200,,,,,,down,0,0.474,,0.203658537,0.063414634,1,0,0,0,165,165,86,1,woning,images/br_woning.png,images/cb_woning.png,0,,,,,,,,,,,,,,,,,,,,,,
,,,,,,2023-10-16_09h54.17,vbt_B2_day4,2022.2.4,MacIntel,200,,,,,,down,0,0.828,,0.203658537,0.063414634,1,0,0,0,166,166,72,1,strak,images/br_strak.png,images/cb_strak.png,0,,,,,,,,,,,,,,,,,,,,,,
,,,,,,2023-10-16_09h54.17,vbt_B2_day4,2022.2.4,MacIntel,200,,,,,,down,0,0.316,,0.203658537,0.063414634,1,0,0,0,167,167,140,1,blijven,images/br_blijven.png,images/cb_blijven.png,0,,,,,,,,,,,,,,,,,,,,,,
,,,,,,2023-10-16_09h54.17,vbt_B2_day4,2022.2.4,MacIntel,200,,,,,,down,0,0.468,,0.203658537,0.063414634,1,0,0,0,168,168,50,1,stoom,images/br_stoom.png,images/cb_stoom.png,0,,,,,,,,,,,,,,,,,,,,,,
,,,,,,2023-10-16_09h54.17,vbt_B2_day4,2022.2.4,MacIntel,200,,,,,,down,0,7.259,,0.198780488,0.062195122,1,0,0,0,169,169,153,1,vervoer,images/br_vervoer.png,images/cb_vervoer.png,0,,,,,,,,,,,,,,,,,,,,,,
,,,,,,2023-10-16_09h54.17,vbt_B2_day4,2022.2.4,MacIntel,200,,,,,,down,0,4.81,,0.198780488,0.062195122,1,0,0,0,170,170,59,1,kring,images/br_kring.png,images/cb_kring.png,0,,,,,,,,,,,,,,,,,,,,,,
,,,,,,2023-10-16_09h54.17,vbt_B2_day4,2022.2.4,MacIntel,200,,,,,,down,0,1.484,,0.198780488,0.062195122,1,0,0,0,171,171,114,1,vullen,images/br_vullen.png,images/cb_vullen.png,0,,,,,,,,,,,,,,,,,,,,,,
,,,,,,2023-10-16_09h54.17,vbt_B2_day4,2022.2.4,MacIntel,200,,,,,,down,0,4.283,,0.198780488,0.062195122,1,0,0,0,172,172,198,1,bedoelen,images/br_bedoelen.png,images/cb_bedoelen.png,0,,,,,,,,,,,,,,,,,,,,,,
,,,,,,2023-10-16_09h54.17,vbt_B2_day4,2022.2.4,MacIntel,200,,,,,,down,0,1.468,,0.198780488,0.062195122,1,0,0,0,173,173,65,1,parel,images/br_parel.png,images/cb_parel.png,1,parel,,,,,,,,,,,,,,,,,,,,,
,,,,,,2023-10-16_09h54.17,vbt_B2_day4,2022.2.4,MacIntel,200,,,,,,down,0,33.453,,0.147560976,0.029268293,1,0,0,0,174,174,77,1,woede,images/br_woede.png,images/cb_woede.png,0,,,,,,,,,,,,,,,,,,,,,,
,,,,,,2023-10-16_09h54.17,vbt_B2_day4,2022.2.4,MacIntel,200,,,,,,down,0,1.258,,0.147560976,0.029268293,1,0,0,0,175,175,42,1,bleek,images/br_bleek.png,images/cb_bleek.png,0,,,,,,,,,,,,,,,,,,,,,,
,,,,,,2023-10-16_09h54.17,vbt_B2_day4,2022.2.4,MacIntel,200,,,,,,down,0,0.067,,0.147560976,0.029268293,1,0,0,0,176,176,54,1,gebit,images/br_gebit.png,images/cb_gebit.png,0,,,,,,,,,,,,,,,,,,,,,,
,,,,,,2023-10-16_09h54.17,vbt_B2_day4,2022.2.4,MacIntel,200,,,,,,down,0,2.802,,0.147560976,0.029268293,1,0,0,0,177,177,179,1,woestijn,images/br_woestijn.png,images/cb_woestijn.png,0,,,,,,,,,,,,,,,,,,,,,,
,,,,,,2023-10-16_09h54.17,vbt_B2_day4,2022.2.4,MacIntel,200,,,,,,down,0,3.683,,0.147560976,0.029268293,1,0,0,0,178,178,95,1,vreten,images/br_vreten.png,images/cb_vreten.png,0,,,,,,,,,,,,,,,,,,,,,,
,,,,,,2023-10-16_09h54.17,vbt_B2_day4,2022.2.4,MacIntel,200,,,,,,down,0,2.217,,0.147560976,0.029268293,1,0,0,0,179,179,160,1,daarheen,images/br_daarheen.png,images/cb_daarheen.png,0,,,,,,,,,,,,,,,,,,,,,,
,,,,,,2023-10-16_09h54.17,vbt_B2_day4,2022.2.4,MacIntel,200,,,,,,down,0,5.183,,0.147560976,0.029268293,1,0,0,0,180,180,46,1,jagen,images/br_jagen.png,images/cb_jagen.png,0,,,,,,,,,,,,,,,,,,,,,,
,,,,,,2023-10-16_09h54.17,vbt_B2_day4,2022.2.4,MacIntel,200,,,,,,down,0,2.086,,0.147560976,0.029268293,1,0,0,0,181,181,195,1,middelen,images/br_middelen.png,images/cb_middelen.png,0,,,,,,,,,,,,,,,,,,,,,,
,,,,,,2023-10-16_09h54.17,vbt_B2_day4,2022.2.4,MacIntel,200,,,,,,down,0,7.024,,0.147560976,0.029268293,1,0,0,0,182,182,164,1,anarchie,images/br_anarchie.png,images/cb_anarchie.png,0,,,,,,,,,,,,,,,,,,,,,,
,,,,,,2023-10-16_09h54.17,vbt_B2_day4,2022.2.4,MacIntel,200,,,,,,down,0,0.519,,0.147560976,0.029268293,1,0,0,0,183,183,171,1,aarzelen,images/br_aarzelen.png,images/cb_aarzelen.png,0,,,,,,,,,,,,,,,,,,,,,,
,,,,,,2023-10-16_09h54.17,vbt_B2_day4,2022.2.4,MacIntel,200,,,,,,down,0,1.1,,0.148780488,0.029268293,1,0,0,0,184,184,119,1,liefje,images/br_liefje.png,images/cb_liefje.png,0,,,,,,,,,,,,,,,,,,,,,,
,,,,,,2023-10-16_09h54.17,vbt_B2_day4,2022.2.4,MacIntel,200,,,,,,down,0,3.985,,0.148780488,0.029268293,1,0,0,0,185,185,20,1,site,images/br_site.png,images/cb_site.png,0,,,,,,,,,,,,,,,,,,,,,,
,,,,,,2023-10-16_09h54.17,vbt_B2_day4,2022.2.4,MacIntel,200,,,,,,down,0,0.45,,0.148780488,0.029268293,1,0,0,0,186,186,19,1,geit,images/br_geit.png,images/cb_geit.png,0,,,,,,,,,,,,,,,,,,,,,,
,,,,,,2023-10-16_09h54.17,vbt_B2_day4,2022.2.4,MacIntel,200,,,,,,down,0,0.634,,0.148780488,0.029268293,1,0,0,0,187,187,82,1,muziek,images/br_muziek.png,images/cb_muziek.png,0,,,,,,,,,,,,,,,,,,,,,,
,,,,,,2023-10-16_09h54.17,vbt_B2_day4,2022.2.4,MacIntel,200,,,,,,down,0,4.513,,0.148780488,0.029268293,1,0,0,0,188,188,26,1,leuk,images/br_leuk.png,images/cb_leuk.png,1,leuk,,,,,,,,,,,,,,,,,,,,,
,,,,,,2023-10-16_09h54.17,vbt_B2_day4,2022.2.4,MacIntel,200,,,,,,down,0,2.618,,0.148780488,0.029268293,1,0,0,0,189,189,184,1,aandelen,images/br_aandelen.png,images/cb_aandelen.png,1,aandelen,,,,,,,,,,,,,,,,,,,,,
,,,,,,2023-10-16_09h54.17,vbt_B2_day4,2022.2.4,MacIntel,200,,,,,,down,0,3.594,,0.148780488,0.029268293,1,0,0,0,190,190,174,1,stemming,images/br_stemming.png,images/cb_stemming.png,0,,,,,,,,,,,,,,,,,,,,,,
,,,,,,2023-10-16_09h54.17,vbt_B2_day4,2022.2.4,MacIntel,200,,,,,,down,0,5.385,,0.148780488,0.029268293,1,0,0,0,191,191,143,1,hechten,images/br_hechten.png,images/cb_hechten.png,0,,,,,,,,,,,,,,,,,,,,,,
,,,,,,2023-10-16_09h54.17,vbt_B2_day4,2022.2.4,MacIntel,200,,,,,,down,0,4.118,,0.148780488,0.029268293,1,0,0,0,192,192,30,1,uien,images/br_uien.png,images/cb_uien.png,0,,,,,,,,,,,,,,,,,,,,,,
,,,,,,2023-10-16_09h54.17,vbt_B2_day4,2022.2.4,MacIntel,200,,,,,,down,0,2.977,,0.148780488,0.029268293,1,0,0,0,193,193,81,1,dubbel,images/br_dubbel.png,images/cb_dubbel.png,0,,,,,,,,,,,,,,,,,,,,,,
,,,,,,2023-10-16_09h54.17,vbt_B2_day4,2022.2.4,MacIntel,200,,,,,,down,0,4.493,,0.148780488,0.029268293,1,0,0,0,194,194,181,1,toegeven,images/br_toegeven.png,images/cb_toegeven.png,0,,,,,,,,,,,,,,,,,,,,,,
,,,,,,2023-10-16_09h54.17,vbt_B2_day4,2022.2.4,MacIntel,200,,,,,,down,0,2.927,,0.148780488,0.029268293,1,0,0,0,195,195,53,1,baron,images/br_baron.png,images/cb_baron.png,0,,,,,,,,,,,,,,,,,,,,,,
,,,,,,2023-10-16_09h54.17,vbt_B2_day4,2022.2.4,MacIntel,200,,,,,,down,0,4.466,,0.148780488,0.029268293,1,0,0,0,196,196,176,1,techniek,images/br_techniek.png,images/cb_techniek.png,0,,,,,,,,,,,,,,,,,,,,,,
,,,,,,2023-10-16_09h54.17,vbt_B2_day4,2022.2.4,MacIntel,200,,,,,,down,0,0.493,,0.148780488,0.029268293,1,0,0,0,197,197,101,1,staren,images/br_staren.png,images/cb_staren.png,0,,,,,,,,,,,,,,,,,,,,,,
,,,,,,2023-10-16_09h54.17,vbt_B2_day4,2022.2.4,MacIntel,200,,,,,,down,0,3.551,,0.148780488,0.029268293,1,0,0,0,198,198,167,1,eenhoorn,images/br_eenhoorn.png,images/cb_eenhoorn.png,0,,,,,,,,,,,,,,,,,,,,,,
,,,,,,2023-10-16_09h54.17,vbt_B2_day4,2022.2.4,MacIntel,200,,,,,,down,0,0.565,,0.148780488,0.029268293,1,0,0,0,199,199,6,1,diep,images/br_diep.png,images/cb_diep.png,0,,,,,,,,,,,,,,,,,,,,,,
,,,,,,2023-10-16_09h54.17,vbt_B2_day4,2022.2.4,MacIntel,200,,,,,,,,,,,,,,,,,,,,,,,,,0.012195122,-0.014634146,1,0,0,,,,,,,,,,,,,,,,
,,,,,,2023-10-16_09h54.17,vbt_B2_day4,2022.2.4,MacIntel,200,,,,,,,,,,,,,,,,,,,,,,,,,,,,,,0.012195122,-0.014634146,1,0,0,,,,,,,,,,,
,,,,,,2023-10-16_09h54.17,vbt_B2_day4,2022.2.4,MacIntel,200,,,,,,,,,,,,,,,,,,,,zwek,images/br_zwek.png,images/cb_zwek.png,,zwek,,,,,,,,,,,0.024390244,-0.23902439,1,0,0,zwek,0,0,0,20,1
,,,,,,2023-10-16_09h54.17,vbt_B2_day4,2022.2.4,MacIntel,200,,,,,,,,,,,,,,,,,,,,rijp,images/br_rijp.png,images/cb_rijp.png,,rijp,,,,,,,,,,,0.024390244,-0.23902439,1,0,0,rijp,0,1,1,2,1
,,,,,,2023-10-16_09h54.17,vbt_B2_day4,2022.2.4,MacIntel,200,,,,,,,,,,,,,,,,,,,,kust,images/br_kust.png,images/cb_kust.png,,kust,,,,,,,,,,,0.024390244,-0.23902439,1,0,0,kust,0,2,2,0,1
,,,,,,2023-10-16_09h54.17,vbt_B2_day4,2022.2.4,MacIntel,200,,,,,,,,,,,,,,,,,,,,oceaan,images/br_oceaan.png,images/cb_oceaan.png,,oceaan,,,,,,,,,,,0.024390244,-0.23902439,1,0,0,oceaan,0,3,3,10,1
,,,,,,2023-10-16_09h54.17,vbt_B2_day4,2022.2.4,MacIntel,200,,,,,,,,,,,,,,,,,,,,soda,images/br_soda.png,images/cb_soda.png,,soda,,,,,,,,,,,0.029268293,-0.237804878,1,0,0,soda,0,4,4,3,1
,,,,,,2023-10-16_09h54.17,vbt_B2_day4,2022.2.4,MacIntel,200,,,,,,,,,,,,,,,,,,,,baron,images/br_baron.png,images/cb_baron.png,,baron,,,,,,,,,,,0.029268293,-0.237804878,1,0,0,baron,0,5,5,5,1
,,,,,,2023-10-16_09h54.17,vbt_B2_day4,2022.2.4,MacIntel,200,,,,,,,,,,,,,,,,,,,,weigeren,images/br_weigeren.png,images/cb_weigeren.png,,weigeren,,,,,,,,,,,0.029268293,-0.237804878,1,0,0,weigeren,0,6,6,16,1
,,,,,,2023-10-16_09h54.17,vbt_B2_day4,2022.2.4,MacIntel,200,,,,,,,,,,,,,,,,,,,,pittig,images/br_pittig.png,images/cb_pittig.png,,pittig,,,,,,,,,,,0.029268293,-0.237804878,1,0,0,pittig,0,7,7,51,1
,,,,,,2023-10-16_09h54.17,vbt_B2_day4,2022.2.4,MacIntel,200,,,,,,,,,,,,,,,,,,,,gedicht,images/br_gedicht.png,images/cb_gedicht.png,,gedicht,,,,,,,,,,,0.029268293,-0.237804878,1,0,0,gedicht,0,8,8,15,1
,,,,,,2023-10-16_09h54.17,vbt_B2_day4,2022.2.4,MacIntel,200,,,,,,,,,,,,,,,,,,,,gebit,images/br_gebit.png,images/cb_gebit.png,,gebit,,,,,,,,,,,0.029268293,-0.237804878,1,0,0,gebit,0,9,9,6,1
,,,,,,2023-10-16_09h54.17,vbt_B2_day4,2022.2.4,MacIntel,200,,,,,,,,,,,,,,,,,,,,gijf,images/br_gijf.png,images/cb_gijf.png,,gijf,,,,,,,,,,,0.023170732,-0.259756098,1,0,0,gijf,0,10,10,23,1
,,,,,,2023-10-16_09h54.17,vbt_B2_day4,2022.2.4,MacIntel,200,,,,,,,,,,,,,,,,,,,,kaal,images/br_kaal.png,images/cb_kaal.png,,kaal,,,,,,,,,,,0.023170732,-0.259756098,1,0,0,kaal,0,11,11,1,1
,,,,,,2023-10-16_09h54.17,vbt_B2_day4,2022.2.4,MacIntel,200,,,,,,,,,,,,,,,,,,,,paalbaak,images/br_paalbaak.png,images/cb_paalbaak.png,,paalbaak,,,,,,,,,,,-0.012195122,-0.380487805,1,0,0,paalbaak,0,12,12,39,1
,,,,,,2023-10-16_09h54.17,vbt_B2_day4,2022.2.4,MacIntel,200,,,,,,,,,,,,,,,,,,,,toevol,images/br_toevol.png,images/cb_toevol.png,,toevol,,,,,,,,,,,-0.014634146,-0.423170732,1,0,0,toevol,0,13,13,29,1
,,,,,,2023-10-16_09h54.17,vbt_B2_day4,2022.2.4,MacIntel,200,,,,,,,,,,,,,,,,,,,,drooien,images/br_drooien.png,images/cb_drooien.png,,drooien,,,,,,,,,,,0.031707317,-0.237804878,1,0,0,drooien,0,14,14,32,1
,,,,,,2023-10-16_09h54.17,vbt_B2_day4,2022.2.4,MacIntel,200,,,,,,,,,,,,,,,,,,,,zaalrijk,images/br_zaalrijk.png,images/cb_zaalrijk.png,,zaalrijk,,,,,,,,,,,0.031707317,-0.237804878,1,0,0,zaalrijk,0,15,15,37,1
,,,,,,2023-10-16_09h54.17,vbt_B2_day4,2022.2.4,MacIntel,200,,,,,,,,,,,,,,,,,,,,vreten,images/br_vreten.png,images/cb_vreten.png,,vreten,,,,,,,,,,,0.031707317,-0.237804878,1,0,0,vreten,0,16,16,11,1
,,,,,,2023-10-16_09h54.17,vbt_B2_day4,2022.2.4,MacIntel,200,,,,,,,,,,,,,,,,,,,,haza,images/br_haza.png,images/cb_haza.png,,haza,,,,,,,,,,,0.031707317,-0.237804878,1,0,0,haza,0,17,17,21,1
,,,,,,2023-10-16_09h54.17,vbt_B2_day4,2022.2.4,MacIntel,200,,,,,,,,,,,,,,,,,,,,opruimen,images/br_opruimen.png,images/cb_opruimen.png,,opruimen,,,,,,,,,,,0.031707317,-0.237804878,1,0,0,opruimen,0,18,18,59,1
,,,,,,2023-10-16_09h54.17,vbt_B2_day4,2022.2.4,MacIntel,200,,,,,,,,,,,,,,,,,,,,gebog,images/br_gebog.png,images/cb_gebog.png,,gebog,,,,,,,,,,,0.02804878,-0.245121951,1,0,0,gebog,0,19,19,24,1
,,,,,,2023-10-16_09h54.17,vbt_B2_day4,2022.2.4,MacIntel,200,,,,,,,,,,,,,,,,,,,,drummer,images/br_drummer.png,images/cb_drummer.png,,daumm..,,,,,,,,,,,0.013414634,-0.226829268,1,0,0,daumm..,0,20,20,53,1
,,,,,,2023-10-16_09h54.17,vbt_B2_day4,2022.2.4,MacIntel,200,,,,,,,,,,,,,,,,,,,,gaaf,images/br_gaaf.png,images/cb_gaaf.png,,gaaf,,,,,,,,,,,0.013414634,-0.226829268,1,0,0,gaaf,0,21,21,43,1
,,,,,,2023-10-16_09h54.17,vbt_B2_day4,2022.2.4,MacIntel,200,,,,,,,,,,,,,,,,,,,,snee,images/br_snee.png,images/cb_snee.png,,snee,,,,,,,,,,,0.013414634,-0.226829268,1,0,0,snee,0,22,22,40,1
,,,,,,2023-10-16_09h54.17,vbt_B2_day4,2022.2.4,MacIntel,200,,,,,,,,,,,,,,,,,,,,bisschap,images/br_bisschap.png,images/cb_bisschap.png,,bisschop,,,,,,,,,,,0.013414634,-0.22804878,1,0,0,bisschop,0,23,23,36,1
,,,,,,2023-10-16_09h54.17,vbt_B2_day4,2022.2.4,MacIntel,200,,,,,,,,,,,,,,,,,,,,wozing,images/br_wozing.png,images/cb_wozing.png,,kozing,,,,,,,,,,,0.008536585,-0.27804878,1,0,0,kozing,0,24,24,28,1
,,,,,,2023-10-16_09h54.17,vbt_B2_day4,2022.2.4,MacIntel,200,,,,,,,,,,,,,,,,,,,,aanzwaag,images/br_aanzwaag.png,images/cb_aanzwaag.png,,aanzwaag,,,,,,,,,,,0.017073171,-0.23902439,1,0,0,aanzwaag,0,25,25,38,1
,,,,,,2023-10-16_09h54.17,vbt_B2_day4,2022.2.4,MacIntel,200,,,,,,,,,,,,,,,,,,,,praat,images/br_praat.png,images/cb_praat.png,,praat,,,,,,,,,,,0.017073171,-0.23902439,1,0,0,praat,0,26,26,7,1
,,,,,,2023-10-16_09h54.17,vbt_B2_day4,2022.2.4,MacIntel,200,,,,,,,,,,,,,,,,,,,,heengaan,images/br_heengaan.png,images/cb_heengaan.png,,heengaan,,,,,,,,,,,0.017073171,-0.23902439,1,0,0,heengaan,0,27,27,19,1
,,,,,,2023-10-16_09h54.17,vbt_B2_day4,2022.2.4,MacIntel,200,,,,,,,,,,,,,,,,,,,,dalen,images/br_dalen.png,images/cb_dalen.png,,dalen,,,,,,,,,,,0.017073171,-0.23902439,1,0,0,dalen,0,28,28,46,1
,,,,,,2023-10-16_09h54.17,vbt_B2_day4,2022.2.4,MacIntel,200,,,,,,,,,,,,,,,,,,,,fran,images/br_fran.png,images/cb_fran.png,,fran,,,,,,,,,,,0.017073171,-0.23902439,1,0,0,fran,0,29,29,22,1
,,,,,,2023-10-16_09h54.17,vbt_B2_day4,2022.2.4,MacIntel,200,,,,,,,,,,,,,,,,,,,,sulbon,images/br_sulbon.png,images/cb_sulbon.png,,sulbon,,,,,,,,,,,0.01097561,-0.259756098,1,0,0,sulbon,0,30,30,31,1
,,,,,,2023-10-16_09h54.17,vbt_B2_day4,2022.2.4,MacIntel,200,,,,,,,,,,,,,,,,,,,,mekst,images/br_mekst.png,images/cb_mekst.png,,mikst,,,,,,,,,,,0.01097561,-0.259756098,1,0,0,mikst,0,31,31,27,1
,,,,,,2023-10-16_09h54.17,vbt_B2_day4,2022.2.4,MacIntel,200,,,,,,,,,,,,,,,,,,,,wagon,images/br_wagon.png,images/cb_wagon.png,,wagon,,,,,,,,,,,0.01097561,-0.259756098,1,0,0,wagon,0,32,32,4,1
,,,,,,2023-10-16_09h54.17,vbt_B2_day4,2022.2.4,MacIntel,200,,,,,,,,,,,,,,,,,,,,geheim,images/br_geheim.png,images/cb_geheim.png,,geheim,,,,,,,,,,,0.01097561,-0.259756098,1,0,0,geheim,0,33,33,8,1
,,,,,,2023-10-16_09h54.17,vbt_B2_day4,2022.2.4,MacIntel,200,,,,,,,,,,,,,,,,,,,,geliefd,images/br_geliefd.png,images/cb_geliefd.png,,geliefd,,,,,,,,,,,0.01097561,-0.259756098,1,0,0,geliefd,0,34,34,14,1
,,,,,,2023-10-16_09h54.17,vbt_B2_day4,2022.2.4,MacIntel,200,,,,,,,,,,,,,,,,,,,,steen,images/br_steen.png,images/cb_steen.png,,steen,,,,,,,,,,,0.01097561,-0.259756098,1,0,0,steen,0,35,35,44,1
,,,,,,2023-10-16_09h54.17,vbt_B2_day4,2022.2.4,MacIntel,200,,,,,,,,,,,,,,,,,,,,lappen,images/br_lappen.png,images/cb_lappen.png,,lappen,,,,,,,,,,,0.01097561,-0.259756098,1,0,0,lappen,0,36,36,49,1
,,,,,,2023-10-16_09h54.17,vbt_B2_day4,2022.2.4,MacIntel,200,,,,,,,,,,,,,,,,,,,,broodje,images/br_broodje.png,images/cb_broodje.png,,broodje,,,,,,,,,,,0.01097561,-0.259756098,1,0,0,broodje,0,37,37,55,1
,,,,,,2023-10-16_09h54.17,vbt_B2_day4,2022.2.4,MacIntel,200,,,,,,,,,,,,,,,,,,,,grappen,images/br_grappen.png,images/cb_grappen.png,,grappen,,,,,,,,,,,0.01097561,-0.259756098,1,0,0,grappen,0,38,38,12,1
,,,,,,2023-10-16_09h54.17,vbt_B2_day4,2022.2.4,MacIntel,200,,,,,,,,,,,,,,,,,,,,dozijn,images/br_dozijn.png,images/cb_dozijn.png,,dozijn,,,,,,,,,,,0.01097561,-0.259756098,1,0,0,dozijn,0,39,39,48,1
,,,,,,2023-10-16_09h54.17,vbt_B2_day4,2022.2.4,MacIntel,200,,,,,,,,,,,,,,,,,,,,noodzaak,images/br_noodzaak.png,images/cb_noodzaak.png,,noodzaak,,,,,,,,,,,0.01097561,-0.259756098,1,0,0,noodzaak,0,40,40,56,1
,,,,,,2023-10-16_09h54.17,vbt_B2_day4,2022.2.4,MacIntel,200,,,,,,,,,,,,,,,,,,,,apparaat,images/br_apparaat.png,images/cb_apparaat.png,,apparaat,,,,,,,,,,,0.01097561,-0.259756098,1,0,0,apparaat,0,41,41,17,1
,,,,,,2023-10-16_09h54.17,vbt_B2_day4,2022.2.4,MacIntel,200,,,,,,,,,,,,,,,,,,,,schenden,images/br_schenden.png,images/cb_schenden.png,,schenden,,,,,,,,,,,0.01097561,-0.259756098,1,0,0,schenden,0,42,42,57,1
,,,,,,2023-10-16_09h54.17,vbt_B2_day4,2022.2.4,MacIntel,200,,,,,,,,,,,,,,,,,,,,flippen,images/br_flippen.png,images/cb_flippen.png,,flippen,,,,,,,,,,,0.01097561,-0.259756098,1,0,0,flippen,0,43,43,54,1
,,,,,,2023-10-16_09h54.17,vbt_B2_day4,2022.2.4,MacIntel,200,,,,,,,,,,,,,,,,,,,,tucket,images/br_tucket.png,images/cb_tucket.png,,tucket,,,,,,,,,,,0.02804878,-0.230487805,1,0,0,tucket,0,44,44,30,1
,,,,,,2023-10-16_09h54.17,vbt_B2_day4,2022.2.4,MacIntel,200,,,,,,,,,,,,,,,,,,,,midden,images/br_midden.png,images/cb_midden.png,,midden,,,,,,,,,,,0.02804878,-0.230487805,1,0,0,midden,0,45,45,50,1
,,,,,,2023-10-16_09h54.17,vbt_B2_day4,2022.2.4,MacIntel,200,,,,,,,,,,,,,,,,,,,,seizoen,images/br_seizoen.png,images/cb_seizoen.png,,seizoen,,,,,,,,,,,0.02804878,-0.230487805,1,0,0,seizoen,0,46,46,13,1
,,,,,,2023-10-16_09h54.17,vbt_B2_day4,2022.2.4,MacIntel,200,,,,,,,,,,,,,,,,,,,,ezel,images/br_ezel.png,images/cb_ezel.png,,ezel,,,,,,,,,,,0.02804878,-0.230487805,1,0,0,ezel,0,47,47,42,1
,,,,,,2023-10-16_09h54.17,vbt_B2_day4,2022.2.4,MacIntel,200,,,,,,,,,,,,,,,,,,,,eerst,images/br_eerst.png,images/cb_eerst.png,,eerst,,,,,,,,,,,0.02804878,-0.230487805,1,0,0,eerst,0,48,48,47,1
,,,,,,2023-10-16_09h54.17,vbt_B2_day4,2022.2.4,MacIntel,200,,,,,,,,,,,,,,,,,,,,strok,images/br_strok.png,images/cb_strok.png,,strok,,,,,,,,,,,0.02804878,-0.230487805,1,0,0,strok,0,49,49,25,1
,,,,,,2023-10-16_09h54.17,vbt_B2_day4,2022.2.4,MacIntel,200,,,,,,,,,,,,,,,,,,,,schotel,images/br_schotel.png,images/cb_schotel.png,,schotel,,,,,,,,,,,0.02804878,-0.230487805,1,0,0,schotel,0,50,50,52,1
,,,,,,2023-10-16_09h54.17,vbt_B2_day4,2022.2.4,MacIntel,200,,,,,,,,,,,,,,,,,,,,waarop,images/br_waarop.png,images/cb_waarop.png,,waarop,,,,,,,,,,,0.02804878,-0.230487805,1,0,0,waarop,0,51,51,9,1
,,,,,,2023-10-16_09h54.17,vbt_B2_day4,2022.2.4,MacIntel,200,,,,,,,,,,,,,,,,,,,,warel,images/br_warel.png,images/cb_warel.png,,warel,,,,,,,,,,,0.02804878,-0.230487805,1,0,0,warel,0,52,52,26,1
,,,,,,2023-10-16_09h54.17,vbt_B2_day4,2022.2.4,MacIntel,200,,,,,,,,,,,,,,,,,,,,getucht,images/br_getucht.png,images/cb_getucht.png,,geducht,,,,,,,,,,,-0.004878049,-0.2,1,0,0,geducht,0,53,53,35,1
,,,,,,2023-10-16_09h54.17,vbt_B2_day4,2022.2.4,MacIntel,200,,,,,,,,,,,,,,,,,,,,gaan,images/br_gaan.png,images/cb_gaan.png,,gaan,,,,,,,,,,,-0.004878049,-0.206097561,1,0,0,gaan,0,54,54,41,1
,,,,,,2023-10-16_09h54.17,vbt_B2_day4,2022.2.4,MacIntel,200,,,,,,,,,,,,,,,,,,,,stemming,images/br_stemming.png,images/cb_stemming.png,,stemming,,,,,,,,,,,-0.004878049,-0.206097561,1,0,0,stemming,0,55,55,18,1
,,,,,,2023-10-16_09h54.17,vbt_B2_day4,2022.2.4,MacIntel,200,,,,,,,,,,,,,,,,,,,,pijnlijk,images/br_pijnlijk.png,images/cb_pijnlijk.png,,pijnlijk,,,,,,,,,,,-0.004878049,-0.206097561,1,0,0,pijnlijk,0,56,56,58,1
,,,,,,2023-10-16_09h54.17,vbt_B2_day4,2022.2.4,MacIntel,200,,,,,,,,,,,,,,,,,,,,seizoon,images/br_seizoon.png,images/cb_seizoon.png,,seizoon,,,,,,,,,,,0.01097561,-0.282926829,1,0,0,seizoon,0,57,57,33,1
,,,,,,2023-10-16_09h54.17,vbt_B2_day4,2022.2.4,MacIntel,200,,,,,,,,,,,,,,,,,,,,bruin,images/br_bruin.png,images/cb_bruin.png,,bruin,,,,,,,,,,,0.01097561,-0.282926829,1,0,0,bruin,0,58,58,45,1
,,,,,,2023-10-16_09h54.17,vbt_B2_day4,2022.2.4,MacIntel,200,,,,,,,,,,,,,,,,,,,,opkicht,images/br_opkicht.png,images/cb_opkicht.png,,opkicht,,,,,,,,,,,0.009756098,-0.263414634,1,0,0,opkicht,0,59,59,34,1
,,,,,,2023-10-16_09h54.17,vbt_B2_day4,2022.2.4,MacIntel,200,,,,,,,,,,,,,,,,,,,,,,,,,,,,,,,,,,,,,,,,,,,,,
