welcome_mouse.x,welcome_mouse.y,welcome_mouse.leftButton,welcome_mouse.midButton,welcome_mouse.rightButton,"ID",date,expName,psychopyVersion,OS,frameRate,trainInstr_mouse.x,trainInstr_mouse.y,trainInstr_mouse.leftButton,trainInstr_mouse.midButton,trainInstr_mouse.rightButton,translation_key.keys,translation_key.corr,translation_key.rt,word_rsp.text,trWrd_mouse.x,trWrd_mouse.y,trWrd_mouse.leftButton,trWrd_mouse.midButton,trWrd_mouse.rightButton,train_loop.thisRepN,train_loop.thisTrialN,train_loop.thisN,train_loop.thisIndex,train_loop.ran,nlWrd,brWrd,cbWrd,test,testResp,mouse.x,mouse.y,mouse.leftButton,mouse.midButton,mouse.rightButton,testInstr_mouse.x,testInstr_mouse.y,testInstr_mouse.leftButton,testInstr_mouse.midButton,testInstr_mouse.rightButton,test_mouse.x,test_mouse.y,test_mouse.leftButton,test_mouse.midButton,test_mouse.rightButton,test_response.text,test_loop.thisRepN,test_loop.thisTrialN,test_loop.thisN,test_loop.thisIndex,test_loop.ran
-0.157777778,-0.268888889,1,0,0,00104,2023-11-23_17h54.05.208,vbt_B2_day4,2022.2.4,MacIntel,62.5,,,,,,,,,,,,,,,,,,,,,,,,,,,,,,,,,,,,,,,,,,,,,
,,,,,00104,2023-11-23_17h54.05.208,vbt_B2_day4,2022.2.4,MacIntel,62.5,-0.157777778,-0.268888889,1,0,0,,,,,,,,,,,,,,,,,,,,,,,,,,,,,,,,,,,,,,,,
,,,,,00104,2023-11-23_17h54.05.208,vbt_B2_day4,2022.2.4,MacIntel,62.5,,,,,,down,0,0.885,,-0.157777778,-0.268888889,1,0,0,0,0,0,50,1,stoom,images/br_stoom.png,images/cb_stoom.png,0,,,,,,,,,,,,,,,,,,,,,,
,,,,,00104,2023-11-23_17h54.05.208,vbt_B2_day4,2022.2.4,MacIntel,62.5,,,,,,down,0,3.069,,-0.157777778,-0.268888889,1,0,0,0,1,1,134,1,geliefd,images/br_geliefd.png,images/cb_geliefd.png,0,,,,,,,,,,,,,,,,,,,,,,
,,,,,00104,2023-11-23_17h54.05.208,vbt_B2_day4,2022.2.4,MacIntel,62.5,,,,,,down,0,1.406,,-0.157777778,-0.268888889,1,0,0,0,2,2,35,1,lust,images/br_lust.png,images/cb_lust.png,0,,,,,,,,,,,,,,,,,,,,,,
,,,,,00104,2023-11-23_17h54.05.208,vbt_B2_day4,2022.2.4,MacIntel,62.5,,,,,,down,0,3.617,,-0.157777778,-0.268888889,1,0,0,0,3,3,55,1,praat,images/br_praat.png,images/cb_praat.png,0,,,,,,,,,,,,,,,,,,,,,,
,,,,,00104,2023-11-23_17h54.05.208,vbt_B2_day4,2022.2.4,MacIntel,62.5,,,,,,down,0,7.425,,-0.157777778,-0.268888889,1,0,0,0,4,4,23,1,zout,images/br_zout.png,images/cb_zout.png,0,,,,,,,,,,,,,,,,,,,,,,
,,,,,00104,2023-11-23_17h54.05.208,vbt_B2_day4,2022.2.4,MacIntel,62.5,,,,,,down,0,12.135,,-0.157777778,-0.268888889,1,0,0,0,5,5,5,1,blad,images/br_blad.png,images/cb_blad.png,0,,,,,,,,,,,,,,,,,,,,,,
,,,,,00104,2023-11-23_17h54.05.208,vbt_B2_day4,2022.2.4,MacIntel,62.5,,,,,,down,0,3.285,,-0.157777778,-0.268888889,1,0,0,0,6,6,126,1,kasteel,images/br_kasteel.png,images/cb_kasteel.png,0,,,,,,,,,,,,,,,,,,,,,,
,,,,,00104,2023-11-23_17h54.05.208,vbt_B2_day4,2022.2.4,MacIntel,62.5,,,,,,down,0,2.799,,-0.157777778,-0.268888889,1,0,0,0,7,7,33,1,vlek,images/br_vlek.png,images/cb_vlek.png,0,,,,,,,,,,,,,,,,,,,,,,
,,,,,00104,2023-11-23_17h54.05.208,vbt_B2_day4,2022.2.4,MacIntel,62.5,,,,,,down,0,4.595,,-0.157777778,-0.268888889,1,0,0,0,8,8,188,1,strekken,images/br_strekken.png,images/cb_strekken.png,0,,,,,,,,,,,,,,,,,,,,,,
,,,,,00104,2023-11-23_17h54.05.208,vbt_B2_day4,2022.2.4,MacIntel,62.5,,,,,,down,0,9.317,,-0.157777778,-0.268888889,1,0,0,0,9,9,12,1,kust,images/br_kust.png,images/cb_kust.png,0,,,,,,,,,,,,,,,,,,,,,,
,,,,,00104,2023-11-23_17h54.05.208,vbt_B2_day4,2022.2.4,MacIntel,62.5,,,,,,down,0,17.724,,-0.157777778,-0.268888889,1,0,0,0,10,10,97,1,loyaal,images/br_loyaal.png,images/cb_loyaal.png,0,,,,,,,,,,,,,,,,,,,,,,
,,,,,00104,2023-11-23_17h54.05.208,vbt_B2_day4,2022.2.4,MacIntel,62.5,,,,,,down,0,3.901,,-0.157777778,-0.268888889,1,0,0,0,11,11,87,1,toeval,images/br_toeval.png,images/cb_toeval.png,0,,,,,,,,,,,,,,,,,,,,,,
,,,,,00104,2023-11-23_17h54.05.208,vbt_B2_day4,2022.2.4,MacIntel,62.5,,,,,,down,0,5.751,,-0.157777778,-0.268888889,1,0,0,0,12,12,44,1,flits,images/br_flits.png,images/cb_flits.png,0,,,,,,,,,,,,,,,,,,,,,,
,,,,,00104,2023-11-23_17h54.05.208,vbt_B2_day4,2022.2.4,MacIntel,62.5,,,,,,down,0,1.884,,-0.157777778,-0.268888889,1,0,0,0,13,13,84,1,lokken,images/br_lokken.png,images/cb_lokken.png,0,,,,,,,,,,,,,,,,,,,,,,
,,,,,00104,2023-11-23_17h54.05.208,vbt_B2_day4,2022.2.4,MacIntel,62.5,,,,,,down,0,3.717,,-0.157777778,-0.268888889,1,0,0,0,14,14,109,1,totaal,images/br_totaal.png,images/cb_totaal.png,0,,,,,,,,,,,,,,,,,,,,,,
,,,,,00104,2023-11-23_17h54.05.208,vbt_B2_day4,2022.2.4,MacIntel,62.5,,,,,,down,0,3.483,,-0.157777778,-0.268888889,1,0,0,0,15,15,137,1,trekker,images/br_trekker.png,images/cb_trekker.png,0,,,,,,,,,,,,,,,,,,,,,,
,,,,,00104,2023-11-23_17h54.05.208,vbt_B2_day4,2022.2.4,MacIntel,62.5,,,,,,down,0,14.82,,-0.157777778,-0.268888889,1,0,0,0,16,16,60,1,jasje,images/br_jasje.png,images/cb_jasje.png,0,,,,,,,,,,,,,,,,,,,,,,
,,,,,00104,2023-11-23_17h54.05.208,vbt_B2_day4,2022.2.4,MacIntel,62.5,,,,,,down,0,0.457,,-0.157777778,-0.268888889,1,0,0,0,17,17,29,1,baas,images/br_baas.png,images/cb_baas.png,0,,,,,,,,,,,,,,,,,,,,,,
,,,,,00104,2023-11-23_17h54.05.208,vbt_B2_day4,2022.2.4,MacIntel,62.5,,,,,,down,0,8.557,,-0.157777778,-0.268888889,1,0,0,0,18,18,195,1,middelen,images/br_middelen.png,images/cb_middelen.png,0,,,,,,,,,,,,,,,,,,,,,,
,,,,,00104,2023-11-23_17h54.05.208,vbt_B2_day4,2022.2.4,MacIntel,62.5,,,,,,down,0,17.676,,-0.157777778,-0.268888889,1,0,0,0,19,19,75,1,snoep,images/br_snoep.png,images/cb_snoep.png,0,,,,,,,,,,,,,,,,,,,,,,
,,,,,00104,2023-11-23_17h54.05.208,vbt_B2_day4,2022.2.4,MacIntel,62.5,,,,,,down,0,5.729,,-0.157777778,-0.268888889,1,0,0,0,20,20,179,1,woestijn,images/br_woestijn.png,images/cb_woestijn.png,0,,,,,,,,,,,,,,,,,,,,,,
,,,,,00104,2023-11-23_17h54.05.208,vbt_B2_day4,2022.2.4,MacIntel,62.5,,,,,,down,0,1.423,,-0.157777778,-0.268888889,1,0,0,0,21,21,45,1,piste,images/br_piste.png,images/cb_piste.png,0,,,,,,,,,,,,,,,,,,,,,,
,,,,,00104,2023-11-23_17h54.05.208,vbt_B2_day4,2022.2.4,MacIntel,62.5,,,,,,down,0,12.685,,-0.157777778,-0.268888889,1,0,0,0,22,22,153,1,vervoer,images/br_vervoer.png,images/cb_vervoer.png,0,,,,,,,,,,,,,,,,,,,,,,
,,,,,00104,2023-11-23_17h54.05.208,vbt_B2_day4,2022.2.4,MacIntel,62.5,,,,,,down,0,0.308,,-0.157777778,-0.268888889,1,0,0,0,23,23,21,1,mist,images/br_mist.png,images/cb_mist.png,0,,,,,,,,,,,,,,,,,,,,,,
,,,,,00104,2023-11-23_17h54.05.208,vbt_B2_day4,2022.2.4,MacIntel,62.5,,,,,,down,0,1.601,,-0.157777778,-0.268888889,1,0,0,0,24,24,127,1,doodmoe,images/br_doodmoe.png,images/cb_doodmoe.png,0,,,,,,,,,,,,,,,,,,,,,,
,,,,,00104,2023-11-23_17h54.05.208,vbt_B2_day4,2022.2.4,MacIntel,62.5,,,,,,down,0,3.407,,-0.157777778,-0.268888889,1,0,0,0,25,25,103,1,joggen,images/br_joggen.png,images/cb_joggen.png,0,,,,,,,,,,,,,,,,,,,,,,
,,,,,00104,2023-11-23_17h54.05.208,vbt_B2_day4,2022.2.4,MacIntel,62.5,,,,,,down,0,1.97,,-0.157777778,-0.268888889,1,0,0,0,26,26,46,1,jagen,images/br_jagen.png,images/cb_jagen.png,0,,,,,,,,,,,,,,,,,,,,,,
,,,,,00104,2023-11-23_17h54.05.208,vbt_B2_day4,2022.2.4,MacIntel,62.5,,,,,,down,0,9.624,,-0.157777778,-0.268888889,1,0,0,0,27,27,51,1,samen,images/br_samen.png,images/cb_samen.png,0,,,,,,,,,,,,,,,,,,,,,,
,,,,,00104,2023-11-23_17h54.05.208,vbt_B2_day4,2022.2.4,MacIntel,62.5,,,,,,down,0,8.284,,-0.157777778,-0.268888889,1,0,0,0,28,28,171,1,aarzelen,images/br_aarzelen.png,images/cb_aarzelen.png,0,,,,,,,,,,,,,,,,,,,,,,
,,,,,00104,2023-11-23_17h54.05.208,vbt_B2_day4,2022.2.4,MacIntel,62.5,,,,,,down,0,8.873,,-0.157777778,-0.268888889,1,0,0,0,29,29,47,1,kabel,images/br_kabel.png,images/cb_kabel.png,0,,,,,,,,,,,,,,,,,,,,,,
,,,,,00104,2023-11-23_17h54.05.208,vbt_B2_day4,2022.2.4,MacIntel,62.5,,,,,,down,0,4.952,,-0.151111111,-0.283333333,1,0,0,0,30,30,25,1,plek,images/br_plek.png,images/cb_plek.png,1,plek,,,,,,,,,,,,,,,,,,,,,
,,,,,00104,2023-11-23_17h54.05.208,vbt_B2_day4,2022.2.4,MacIntel,62.5,,,,,,down,0,14.99,,-0.151111111,-0.283333333,1,0,0,0,31,31,172,1,weigeren,images/br_weigeren.png,images/cb_weigeren.png,0,,,,,,,,,,,,,,,,,,,,,,
,,,,,00104,2023-11-23_17h54.05.208,vbt_B2_day4,2022.2.4,MacIntel,62.5,,,,,,down,0,2.874,,-0.151111111,-0.283333333,1,0,0,0,32,32,79,1,nodig,images/br_nodig.png,images/cb_nodig.png,0,,,,,,,,,,,,,,,,,,,,,,
,,,,,00104,2023-11-23_17h54.05.208,vbt_B2_day4,2022.2.4,MacIntel,62.5,,,,,,down,0,6.744,,-0.151111111,-0.283333333,1,0,0,0,33,33,40,1,schep,images/br_schep.png,images/cb_schep.png,0,,,,,,,,,,,,,,,,,,,,,,
,,,,,00104,2023-11-23_17h54.05.208,vbt_B2_day4,2022.2.4,MacIntel,62.5,,,,,,down,0,5.457,,-0.151111111,-0.283333333,1,0,0,0,34,34,4,1,moes,images/br_moes.png,images/cb_moes.png,0,,,,,,,,,,,,,,,,,,,,,,
,,,,,00104,2023-11-23_17h54.05.208,vbt_B2_day4,2022.2.4,MacIntel,62.5,,,,,,down,0,0.667,,-0.151111111,-0.283333333,1,0,0,0,35,35,8,1,knie,images/br_knie.png,images/cb_knie.png,0,,,,,,,,,,,,,,,,,,,,,,
,,,,,00104,2023-11-23_17h54.05.208,vbt_B2_day4,2022.2.4,MacIntel,62.5,,,,,,down,0,10.492,,-0.151111111,-0.283333333,1,0,0,0,36,36,11,1,mode,images/br_mode.png,images/cb_mode.png,0,,,,,,,,,,,,,,,,,,,,,,
,,,,,00104,2023-11-23_17h54.05.208,vbt_B2_day4,2022.2.4,MacIntel,62.5,,,,,,down,0,10.309,,-0.151111111,-0.283333333,1,0,0,0,37,37,144,1,eetlust,images/br_eetlust.png,images/cb_eetlust.png,1,eetlust,,,,,,,,,,,,,,,,,,,,,
,,,,,00104,2023-11-23_17h54.05.208,vbt_B2_day4,2022.2.4,MacIntel,62.5,,,,,,down,0,3.64,,-0.151111111,-0.283333333,1,0,0,0,38,38,88,1,boeien,images/br_boeien.png,images/cb_boeien.png,0,,,,,,,,,,,,,,,,,,,,,,
,,,,,00104,2023-11-23_17h54.05.208,vbt_B2_day4,2022.2.4,MacIntel,62.5,,,,,,down,0,5.217,,-0.151111111,-0.283333333,1,0,0,0,39,39,160,1,daarheen,images/br_daarheen.png,images/cb_daarheen.png,0,,,,,,,,,,,,,,,,,,,,,,
,,,,,00104,2023-11-23_17h54.05.208,vbt_B2_day4,2022.2.4,MacIntel,62.5,,,,,,down,0,8.342,,-0.151111111,-0.283333333,1,0,0,0,40,40,140,1,blijven,images/br_blijven.png,images/cb_blijven.png,0,,,,,,,,,,,,,,,,,,,,,,
,,,,,00104,2023-11-23_17h54.05.208,vbt_B2_day4,2022.2.4,MacIntel,62.5,,,,,,down,0,9.026,,-0.151111111,-0.283333333,1,0,0,0,41,41,91,1,gezond,images/br_gezond.png,images/cb_gezond.png,0,,,,,,,,,,,,,,,,,,,,,,
,,,,,00104,2023-11-23_17h54.05.208,vbt_B2_day4,2022.2.4,MacIntel,62.5,,,,,,down,0,20.468,,-0.151111111,-0.283333333,1,0,0,0,42,42,149,1,redding,images/br_redding.png,images/cb_redding.png,0,,,,,,,,,,,,,,,,,,,,,,
,,,,,00104,2023-11-23_17h54.05.208,vbt_B2_day4,2022.2.4,MacIntel,62.5,,,,,,down,0,7.474,,-0.151111111,-0.283333333,1,0,0,0,43,43,156,1,rechten,images/br_rechten.png,images/cb_rechten.png,0,,,,,,,,,,,,,,,,,,,,,,
,,,,,00104,2023-11-23_17h54.05.208,vbt_B2_day4,2022.2.4,MacIntel,62.5,,,,,,down,0,0.941,,-0.151111111,-0.283333333,1,0,0,0,44,44,49,1,laken,images/br_laken.png,images/cb_laken.png,0,,,,,,,,,,,,,,,,,,,,,,
,,,,,00104,2023-11-23_17h54.05.208,vbt_B2_day4,2022.2.4,MacIntel,62.5,,,,,,down,0,13.101,,-0.151111111,-0.283333333,1,0,0,0,45,45,130,1,keihard,images/br_keihard.png,images/cb_keihard.png,0,,,,,,,,,,,,,,,,,,,,,,
,,,,,00104,2023-11-23_17h54.05.208,vbt_B2_day4,2022.2.4,MacIntel,62.5,,,,,,down,0,0.741,,-0.151111111,-0.283333333,1,0,0,0,46,46,96,1,slagen,images/br_slagen.png,images/cb_slagen.png,0,,,,,,,,,,,,,,,,,,,,,,
,,,,,00104,2023-11-23_17h54.05.208,vbt_B2_day4,2022.2.4,MacIntel,62.5,,,,,,down,0,8.335,,-0.151111111,-0.283333333,1,0,0,0,47,47,119,1,liefje,images/br_liefje.png,images/cb_liefje.png,0,,,,,,,,,,,,,,,,,,,,,,
,,,,,00104,2023-11-23_17h54.05.208,vbt_B2_day4,2022.2.4,MacIntel,62.5,,,,,,down,0,8.373,,-0.151111111,-0.283333333,1,0,0,0,48,48,53,1,baron,images/br_baron.png,images/cb_baron.png,0,,,,,,,,,,,,,,,,,,,,,,
,,,,,00104,2023-11-23_17h54.05.208,vbt_B2_day4,2022.2.4,MacIntel,62.5,,,,,,down,0,0.107,,-0.151111111,-0.283333333,1,0,0,0,49,49,3,1,mand,images/br_mand.png,images/cb_mand.png,0,,,,,,,,,,,,,,,,,,,,,,
,,,,,00104,2023-11-23_17h54.05.208,vbt_B2_day4,2022.2.4,MacIntel,62.5,,,,,,down,0,1.71,,-0.151111111,-0.283333333,1,0,0,0,50,50,1,1,zaal,images/br_zaal.png,images/cb_zaal.png,0,,,,,,,,,,,,,,,,,,,,,,
,,,,,00104,2023-11-23_17h54.05.208,vbt_B2_day4,2022.2.4,MacIntel,62.5,,,,,,down,0,0.05,,-0.151111111,-0.283333333,1,0,0,0,51,51,161,1,attentie,images/br_attentie.png,images/cb_attentie.png,0,,,,,,,,,,,,,,,,,,,,,,
,,,,,00104,2023-11-23_17h54.05.208,vbt_B2_day4,2022.2.4,MacIntel,62.5,,,,,,down,0,12.151,,-0.151111111,-0.283333333,1,0,0,0,52,52,131,1,opzicht,images/br_opzicht.png,images/cb_opzicht.png,0,,,,,,,,,,,,,,,,,,,,,,
,,,,,00104,2023-11-23_17h54.05.208,vbt_B2_day4,2022.2.4,MacIntel,62.5,,,,,,down,0,2.816,,-0.151111111,-0.283333333,1,0,0,0,53,53,89,1,slapen,images/br_slapen.png,images/cb_slapen.png,0,,,,,,,,,,,,,,,,,,,,,,
,,,,,00104,2023-11-23_17h54.05.208,vbt_B2_day4,2022.2.4,MacIntel,62.5,,,,,,down,0,6.618,,-0.151111111,-0.283333333,1,0,0,0,54,54,170,1,schatten,images/br_schatten.png,images/cb_schatten.png,0,,,,,,,,,,,,,,,,,,,,,,
,,,,,00104,2023-11-23_17h54.05.208,vbt_B2_day4,2022.2.4,MacIntel,62.5,,,,,,down,0,0.985,,-0.151111111,-0.283333333,1,0,0,0,55,55,102,1,legaal,images/br_legaal.png,images/cb_legaal.png,0,,,,,,,,,,,,,,,,,,,,,,
,,,,,00104,2023-11-23_17h54.05.208,vbt_B2_day4,2022.2.4,MacIntel,62.5,,,,,,down,0,3.142,,-0.151111111,-0.283333333,1,0,0,0,56,56,183,1,getuigen,images/br_getuigen.png,images/cb_getuigen.png,0,,,,,,,,,,,,,,,,,,,,,,
,,,,,00104,2023-11-23_17h54.05.208,vbt_B2_day4,2022.2.4,MacIntel,62.5,,,,,,down,0,12.751,,-0.151111111,-0.283333333,1,0,0,0,57,57,167,1,eenhoorn,images/br_eenhoorn.png,images/cb_eenhoorn.png,0,,,,,,,,,,,,,,,,,,,,,,
,,,,,00104,2023-11-23_17h54.05.208,vbt_B2_day4,2022.2.4,MacIntel,62.5,,,,,,down,0,3.707,,-0.151111111,-0.283333333,1,0,0,0,58,58,141,1,knielen,images/br_knielen.png,images/cb_knielen.png,0,,,,,,,,,,,,,,,,,,,,,,
,,,,,00104,2023-11-23_17h54.05.208,vbt_B2_day4,2022.2.4,MacIntel,62.5,,,,,,down,0,2.341,,-0.151111111,-0.283333333,1,0,0,0,59,59,114,1,vullen,images/br_vullen.png,images/cb_vullen.png,0,,,,,,,,,,,,,,,,,,,,,,
,,,,,00104,2023-11-23_17h54.05.208,vbt_B2_day4,2022.2.4,MacIntel,62.5,,,,,,down,0,2.459,,-0.151111111,-0.283333333,1,0,0,0,60,60,193,1,weeshuis,images/br_weeshuis.png,images/cb_weeshuis.png,0,,,,,,,,,,,,,,,,,,,,,,
,,,,,00104,2023-11-23_17h54.05.208,vbt_B2_day4,2022.2.4,MacIntel,62.5,,,,,,down,0,1.533,,-0.151111111,-0.283333333,1,0,0,0,61,61,132,1,grappen,images/br_grappen.png,images/cb_grappen.png,0,,,,,,,,,,,,,,,,,,,,,,
,,,,,00104,2023-11-23_17h54.05.208,vbt_B2_day4,2022.2.4,MacIntel,62.5,,,,,,down,0,0.523,,-0.151111111,-0.283333333,1,0,0,0,62,62,41,1,maken,images/br_maken.png,images/cb_maken.png,0,,,,,,,,,,,,,,,,,,,,,,
,,,,,00104,2023-11-23_17h54.05.208,vbt_B2_day4,2022.2.4,MacIntel,62.5,,,,,,down,0,12.391,,-0.151111111,-0.283333333,1,0,0,0,63,63,151,1,aanzoek,images/br_aanzoek.png,images/cb_aanzoek.png,0,,,,,,,,,,,,,,,,,,,,,,
,,,,,00104,2023-11-23_17h54.05.208,vbt_B2_day4,2022.2.4,MacIntel,62.5,,,,,,down,0,2.767,,-0.151111111,-0.283333333,1,0,0,0,64,64,150,1,gegeven,images/br_gegeven.png,images/cb_gegeven.png,0,,,,,,,,,,,,,,,,,,,,,,
,,,,,00104,2023-11-23_17h54.05.208,vbt_B2_day4,2022.2.4,MacIntel,62.5,,,,,,down,0,3.617,,-0.151111111,-0.283333333,1,0,0,0,65,65,154,1,aflopen,images/br_aflopen.png,images/cb_aflopen.png,0,,,,,,,,,,,,,,,,,,,,,,
,,,,,00104,2023-11-23_17h54.05.208,vbt_B2_day4,2022.2.4,MacIntel,62.5,,,,,,down,0,1.373,,-0.151111111,-0.283333333,1,0,0,0,66,66,2,1,jaar,images/br_jaar.png,images/cb_jaar.png,0,,,,,,,,,,,,,,,,,,,,,,
,,,,,00104,2023-11-23_17h54.05.208,vbt_B2_day4,2022.2.4,MacIntel,62.5,,,,,,down,0,1.885,,-0.151111111,-0.283333333,1,0,0,0,67,67,17,1,taal,images/br_taal.png,images/cb_taal.png,0,,,,,,,,,,,,,,,,,,,,,,
,,,,,00104,2023-11-23_17h54.05.208,vbt_B2_day4,2022.2.4,MacIntel,62.5,,,,,,down,0,4.334,,-0.151111111,-0.283333333,1,0,0,0,68,68,15,1,soda,images/br_soda.png,images/cb_soda.png,0,,,,,,,,,,,,,,,,,,,,,,
,,,,,00104,2023-11-23_17h54.05.208,vbt_B2_day4,2022.2.4,MacIntel,62.5,,,,,,down,0,11.409,,-0.151111111,-0.283333333,1,0,0,0,69,69,148,1,smullen,images/br_smullen.png,images/cb_smullen.png,0,,,,,,,,,,,,,,,,,,,,,,
,,,,,00104,2023-11-23_17h54.05.208,vbt_B2_day4,2022.2.4,MacIntel,62.5,,,,,,down,0,9.302,,-0.151111111,-0.283333333,1,0,0,0,70,70,86,1,woning,images/br_woning.png,images/cb_woning.png,0,,,,,,,,,,,,,,,,,,,,,,
,,,,,00104,2023-11-23_17h54.05.208,vbt_B2_day4,2022.2.4,MacIntel,62.5,,,,,,down,0,9.373,,-0.151111111,-0.283333333,1,0,0,0,71,71,54,1,gebit,images/br_gebit.png,images/cb_gebit.png,0,,,,,,,,,,,,,,,,,,,,,,
,,,,,00104,2023-11-23_17h54.05.208,vbt_B2_day4,2022.2.4,MacIntel,62.5,,,,,,down,0,7.484,,-0.151111111,-0.283333333,1,0,0,0,72,72,37,1,mijn,images/br_mijn.png,images/cb_mijn.png,0,,,,,,,,,,,,,,,,,,,,,,
,,,,,00104,2023-11-23_17h54.05.208,vbt_B2_day4,2022.2.4,MacIntel,62.5,,,,,,down,0,0.206,,-0.151111111,-0.283333333,1,0,0,0,73,73,115,1,kleren,images/br_kleren.png,images/cb_kleren.png,0,,,,,,,,,,,,,,,,,,,,,,
,,,,,00104,2023-11-23_17h54.05.208,vbt_B2_day4,2022.2.4,MacIntel,62.5,,,,,,down,0,1.339,,-0.151111111,-0.283333333,1,0,0,0,74,74,6,1,diep,images/br_diep.png,images/cb_diep.png,0,,,,,,,,,,,,,,,,,,,,,,
,,,,,00104,2023-11-23_17h54.05.208,vbt_B2_day4,2022.2.4,MacIntel,62.5,,,,,,down,0,6.752,,-0.151111111,-0.283333333,1,0,0,0,75,75,111,1,ticket,images/br_ticket.png,images/cb_ticket.png,0,,,,,,,,,,,,,,,,,,,,,,
,,,,,00104,2023-11-23_17h54.05.208,vbt_B2_day4,2022.2.4,MacIntel,62.5,,,,,,down,0,5.567,,-0.151111111,-0.283333333,1,0,0,0,76,76,118,1,vinger,images/br_vinger.png,images/cb_vinger.png,0,,,,,,,,,,,,,,,,,,,,,,
,,,,,00104,2023-11-23_17h54.05.208,vbt_B2_day4,2022.2.4,MacIntel,62.5,,,,,,down,0,8.733,,-0.151111111,-0.283333333,1,0,0,0,77,77,143,1,hechten,images/br_hechten.png,images/cb_hechten.png,0,,,,,,,,,,,,,,,,,,,,,,
,,,,,00104,2023-11-23_17h54.05.208,vbt_B2_day4,2022.2.4,MacIntel,62.5,,,,,,down,0,6.366,,-0.151111111,-0.283333333,1,0,0,0,78,78,133,1,seizoen,images/br_seizoen.png,images/cb_seizoen.png,0,,,,,,,,,,,,,,,,,,,,,,
,,,,,00104,2023-11-23_17h54.05.208,vbt_B2_day4,2022.2.4,MacIntel,62.5,,,,,,down,0,2.222,,-0.151111111,-0.283333333,1,0,0,0,79,79,36,1,vuur,images/br_vuur.png,images/cb_vuur.png,0,,,,,,,,,,,,,,,,,,,,,,
,,,,,00104,2023-11-23_17h54.05.208,vbt_B2_day4,2022.2.4,MacIntel,62.5,,,,,,down,0,6.153,,-0.151111111,-0.283333333,1,0,0,0,80,80,184,1,aandelen,images/br_aandelen.png,images/cb_aandelen.png,1,aandelen,,,,,,,,,,,,,,,,,,,,,
,,,,,00104,2023-11-23_17h54.05.208,vbt_B2_day4,2022.2.4,MacIntel,62.5,,,,,,down,0,8.09,,-0.151111111,-0.283333333,1,0,0,0,81,81,98,1,kreeft,images/br_kreeft.png,images/cb_kreeft.png,0,,,,,,,,,,,,,,,,,,,,,,
,,,,,00104,2023-11-23_17h54.05.208,vbt_B2_day4,2022.2.4,MacIntel,62.5,,,,,,down,0,13.934,,-0.151111111,-0.283333333,1,0,0,0,82,82,106,1,zingen,images/br_zingen.png,images/cb_zingen.png,1,zingen,,,,,,,,,,,,,,,,,,,,,
,,,,,00104,2023-11-23_17h54.05.208,vbt_B2_day4,2022.2.4,MacIntel,62.5,,,,,,down,0,4.307,,-0.151111111,-0.283333333,1,0,0,0,83,83,90,1,geluid,images/br_geluid.png,images/cb_geluid.png,0,,,,,,,,,,,,,,,,,,,,,,
,,,,,00104,2023-11-23_17h54.05.208,vbt_B2_day4,2022.2.4,MacIntel,62.5,,,,,,down,0,2.835,,-0.151111111,-0.283333333,1,0,0,0,84,84,62,1,knaap,images/br_knaap.png,images/cb_knaap.png,0,,,,,,,,,,,,,,,,,,,,,,
,,,,,00104,2023-11-23_17h54.05.208,vbt_B2_day4,2022.2.4,MacIntel,62.5,,,,,,down,0,0.44,,-0.151111111,-0.283333333,1,0,0,0,85,85,177,1,maaltijd,images/br_maaltijd.png,images/cb_maaltijd.png,0,,,,,,,,,,,,,,,,,,,,,,
,,,,,00104,2023-11-23_17h54.05.208,vbt_B2_day4,2022.2.4,MacIntel,62.5,,,,,,down,0,16.957,,-0.151111111,-0.283333333,1,0,0,0,86,86,67,1,zwart,images/br_zwart.png,images/cb_zwart.png,1,zwart,,,,,,,,,,,,,,,,,,,,,
,,,,,00104,2023-11-23_17h54.05.208,vbt_B2_day4,2022.2.4,MacIntel,62.5,,,,,,down,0,3.184,,-0.151111111,-0.283333333,1,0,0,0,87,87,56,1,traag,images/br_traag.png,images/cb_traag.png,0,,,,,,,,,,,,,,,,,,,,,,
,,,,,00104,2023-11-23_17h54.05.208,vbt_B2_day4,2022.2.4,MacIntel,62.5,,,,,,down,0,1.469,,-0.151111111,-0.283333333,1,0,0,0,88,88,64,1,wegen,images/br_wegen.png,images/cb_wegen.png,1,wegen,,,,,,,,,,,,,,,,,,,,,
,,,,,00104,2023-11-23_17h54.05.208,vbt_B2_day4,2022.2.4,MacIntel,62.5,,,,,,down,0,6.186,,-0.151111111,-0.283333333,1,0,0,0,89,89,73,1,volop,images/br_volop.png,images/cb_volop.png,0,,,,,,,,,,,,,,,,,,,,,,
,,,,,00104,2023-11-23_17h54.05.208,vbt_B2_day4,2022.2.4,MacIntel,62.5,,,,,,down,0,1.968,,-0.151111111,-0.283333333,1,0,0,0,90,90,27,1,dans,images/br_dans.png,images/cb_dans.png,1,dans,,,,,,,,,,,,,,,,,,,,,
,,,,,00104,2023-11-23_17h54.05.208,vbt_B2_day4,2022.2.4,MacIntel,62.5,,,,,,down,0,5.889,,-0.151111111,-0.283333333,1,0,0,0,91,91,30,1,uien,images/br_uien.png,images/cb_uien.png,0,,,,,,,,,,,,,,,,,,,,,,
,,,,,00104,2023-11-23_17h54.05.208,vbt_B2_day4,2022.2.4,MacIntel,62.5,,,,,,down,0,8.268,,-0.151111111,-0.283333333,1,0,0,0,92,92,107,1,maling,images/br_maling.png,images/cb_maling.png,1,maling,,,,,,,,,,,,,,,,,,,,,
,,,,,00104,2023-11-23_17h54.05.208,vbt_B2_day4,2022.2.4,MacIntel,62.5,,,,,,down,0,9.257,,-0.151111111,-0.283333333,1,0,0,0,93,93,123,1,hiervan,images/br_hiervan.png,images/cb_hiervan.png,0,,,,,,,,,,,,,,,,,,,,,,
,,,,,00104,2023-11-23_17h54.05.208,vbt_B2_day4,2022.2.4,MacIntel,62.5,,,,,,down,0,0.401,,-0.151111111,-0.283333333,1,0,0,0,94,94,121,1,twijfel,images/br_twijfel.png,images/cb_twijfel.png,0,,,,,,,,,,,,,,,,,,,,,,
,,,,,00104,2023-11-23_17h54.05.208,vbt_B2_day4,2022.2.4,MacIntel,62.5,,,,,,down,0,4.333,,-0.151111111,-0.283333333,1,0,0,0,95,95,100,1,geduld,images/br_geduld.png,images/cb_geduld.png,0,,,,,,,,,,,,,,,,,,,,,,
,,,,,00104,2023-11-23_17h54.05.208,vbt_B2_day4,2022.2.4,MacIntel,62.5,,,,,,down,0,1.107,,-0.151111111,-0.283333333,1,0,0,0,96,96,139,1,stiekem,images/br_stiekem.png,images/cb_stiekem.png,0,,,,,,,,,,,,,,,,,,,,,,
,,,,,00104,2023-11-23_17h54.05.208,vbt_B2_day4,2022.2.4,MacIntel,62.5,,,,,,down,0,3.357,,-0.151111111,-0.283333333,1,0,0,0,97,97,187,1,opkijken,images/br_opkijken.png,images/cb_opkijken.png,1,opkijken,,,,,,,,,,,,,,,,,,,,,
,,,,,00104,2023-11-23_17h54.05.208,vbt_B2_day4,2022.2.4,MacIntel,62.5,,,,,,down,0,3.839,,-0.151111111,-0.283333333,1,0,0,0,98,98,124,1,bloeien,images/br_bloeien.png,images/cb_bloeien.png,0,,,,,,,,,,,,,,,,,,,,,,
,,,,,00104,2023-11-23_17h54.05.208,vbt_B2_day4,2022.2.4,MacIntel,62.5,,,,,,down,0,2.674,,-0.151111111,-0.283333333,1,0,0,0,99,99,125,1,aanzien,images/br_aanzien.png,images/cb_aanzien.png,0,,,,,,,,,,,,,,,,,,,,,,
,,,,,00104,2023-11-23_17h54.05.208,vbt_B2_day4,2022.2.4,MacIntel,62.5,,,,,,down,0,2.617,,-0.151111111,-0.283333333,1,0,0,0,100,100,18,1,blik,images/br_blik.png,images/cb_blik.png,0,,,,,,,,,,,,,,,,,,,,,,
,,,,,00104,2023-11-23_17h54.05.208,vbt_B2_day4,2022.2.4,MacIntel,62.5,,,,,,down,0,5.602,,-0.151111111,-0.283333333,1,0,0,0,101,101,120,1,klimmen,images/br_klimmen.png,images/cb_klimmen.png,0,,,,,,,,,,,,,,,,,,,,,,
,,,,,00104,2023-11-23_17h54.05.208,vbt_B2_day4,2022.2.4,MacIntel,62.5,,,,,,down,0,3.65,,-0.151111111,-0.283333333,1,0,0,0,102,102,169,1,oprotten,images/br_oprotten.png,images/cb_oprotten.png,0,,,,,,,,,,,,,,,,,,,,,,
,,,,,00104,2023-11-23_17h54.05.208,vbt_B2_day4,2022.2.4,MacIntel,62.5,,,,,,down,0,2.633,,-0.151111111,-0.283333333,1,0,0,0,103,103,94,1,oceaan,images/br_oceaan.png,images/cb_oceaan.png,0,,,,,,,,,,,,,,,,,,,,,,
,,,,,00104,2023-11-23_17h54.05.208,vbt_B2_day4,2022.2.4,MacIntel,62.5,,,,,,down,0,7.267,,-0.151111111,-0.283333333,1,0,0,0,104,104,105,1,wijlen,images/br_wijlen.png,images/cb_wijlen.png,1,wijlen,,,,,,,,,,,,,,,,,,,,,
,,,,,00104,2023-11-23_17h54.05.208,vbt_B2_day4,2022.2.4,MacIntel,62.5,,,,,,down,0,2.219,,-0.151111111,-0.283333333,1,0,0,0,105,105,101,1,staren,images/br_staren.png,images/cb_staren.png,0,,,,,,,,,,,,,,,,,,,,,,
,,,,,00104,2023-11-23_17h54.05.208,vbt_B2_day4,2022.2.4,MacIntel,62.5,,,,,,down,0,2.544,,-0.151111111,-0.283333333,1,0,0,0,106,106,176,1,techniek,images/br_techniek.png,images/cb_techniek.png,0,,,,,,,,,,,,,,,,,,,,,,
,,,,,00104,2023-11-23_17h54.05.208,vbt_B2_day4,2022.2.4,MacIntel,62.5,,,,,,down,0,11.94,,-0.151111111,-0.283333333,1,0,0,0,107,107,196,1,nakijken,images/br_nakijken.png,images/cb_nakijken.png,0,,,,,,,,,,,,,,,,,,,,,,
,,,,,00104,2023-11-23_17h54.05.208,vbt_B2_day4,2022.2.4,MacIntel,62.5,,,,,,down,0,3.271,,-0.151111111,-0.283333333,1,0,0,0,108,108,65,1,parel,images/br_parel.png,images/cb_parel.png,1,parel,,,,,,,,,,,,,,,,,,,,,
,,,,,00104,2023-11-23_17h54.05.208,vbt_B2_day4,2022.2.4,MacIntel,62.5,,,,,,down,0,0.574,,-0.151111111,-0.283333333,1,0,0,0,109,109,28,1,stal,images/br_stal.png,images/cb_stal.png,0,,,,,,,,,,,,,,,,,,,,,,
,,,,,00104,2023-11-23_17h54.05.208,vbt_B2_day4,2022.2.4,MacIntel,62.5,,,,,,down,0,0.423,,-0.151111111,-0.283333333,1,0,0,0,110,110,38,1,baai,images/br_baai.png,images/cb_baai.png,0,,,,,,,,,,,,,,,,,,,,,,
,,,,,00104,2023-11-23_17h54.05.208,vbt_B2_day4,2022.2.4,MacIntel,62.5,,,,,,down,0,4.474,,-0.151111111,-0.283333333,1,0,0,0,111,111,108,1,excuus,images/br_excuus.png,images/cb_excuus.png,0,,,,,,,,,,,,,,,,,,,,,,
,,,,,00104,2023-11-23_17h54.05.208,vbt_B2_day4,2022.2.4,MacIntel,62.5,,,,,,down,0,4.502,,-0.151111111,-0.283333333,1,0,0,0,112,112,78,1,leren,images/br_leren.png,images/cb_leren.png,0,,,,,,,,,,,,,,,,,,,,,,
,,,,,00104,2023-11-23_17h54.05.208,vbt_B2_day4,2022.2.4,MacIntel,62.5,,,,,,down,0,0.353,,-0.151111111,-0.283333333,1,0,0,0,113,113,48,1,steel,images/br_steel.png,images/cb_steel.png,0,,,,,,,,,,,,,,,,,,,,,,
,,,,,00104,2023-11-23_17h54.05.208,vbt_B2_day4,2022.2.4,MacIntel,62.5,,,,,,down,0,5.656,,-0.151111111,-0.283333333,1,0,0,0,114,114,104,1,zweven,images/br_zweven.png,images/cb_zweven.png,1,zwelen,,,,,,,,,,,,,,,,,,,,,
,,,,,00104,2023-11-23_17h54.05.208,vbt_B2_day4,2022.2.4,MacIntel,62.5,,,,,,down,0,4.966,,-0.151111111,-0.283333333,1,0,0,0,115,115,163,1,schuilen,images/br_schuilen.png,images/cb_schuilen.png,0,,,,,,,,,,,,,,,,,,,,,,
,,,,,00104,2023-11-23_17h54.05.208,vbt_B2_day4,2022.2.4,MacIntel,62.5,,,,,,down,0,1.707,,-0.151111111,-0.283333333,1,0,0,0,116,116,39,1,laag,images/br_laag.png,images/cb_laag.png,0,,,,,,,,,,,,,,,,,,,,,,
,,,,,00104,2023-11-23_17h54.05.208,vbt_B2_day4,2022.2.4,MacIntel,62.5,,,,,,down,0,3.183,,-0.151111111,-0.283333333,1,0,0,0,117,117,136,1,waarbij,images/br_waarbij.png,images/cb_waarbij.png,0,,,,,,,,,,,,,,,,,,,,,,
,,,,,00104,2023-11-23_17h54.05.208,vbt_B2_day4,2022.2.4,MacIntel,62.5,,,,,,down,0,5.25,,-0.151111111,-0.283333333,1,0,0,0,118,118,99,1,koffie,images/br_koffie.png,images/cb_koffie.png,0,,,,,,,,,,,,,,,,,,,,,,
,,,,,00104,2023-11-23_17h54.05.208,vbt_B2_day4,2022.2.4,MacIntel,62.5,,,,,,down,0,29.779,,-0.071111111,-0.3,1,0,0,0,119,119,185,1,mijnheer,images/br_mijnheer.png,images/cb_mijnheer.png,1,mijnheer,,,,,,,,,,,,,,,,,,,,,
,,,,,00104,2023-11-23_17h54.05.208,vbt_B2_day4,2022.2.4,MacIntel,62.5,,,,,,down,0,9.667,,-0.071111111,-0.3,1,0,0,0,120,120,191,1,opheffen,images/br_opheffen.png,images/cb_opheffen.png,0,,,,,,,,,,,,,,,,,,,,,,
,,,,,00104,2023-11-23_17h54.05.208,vbt_B2_day4,2022.2.4,MacIntel,62.5,,,,,,down,0,1.699,,-0.071111111,-0.3,1,0,0,0,121,121,138,1,akkoord,images/br_akkoord.png,images/cb_akkoord.png,0,,,,,,,,,,,,,,,,,,,,,,
,,,,,00104,2023-11-23_17h54.05.208,vbt_B2_day4,2022.2.4,MacIntel,62.5,,,,,,down,0,5.741,,-0.071111111,-0.3,1,0,0,0,122,122,199,1,beseffen,images/br_beseffen.png,images/cb_beseffen.png,0,,,,,,,,,,,,,,,,,,,,,,
,,,,,00104,2023-11-23_17h54.05.208,vbt_B2_day4,2022.2.4,MacIntel,62.5,,,,,,down,0,4.042,,-0.071111111,-0.3,1,0,0,0,123,123,158,1,innemen,images/br_innemen.png,images/cb_innemen.png,0,,,,,,,,,,,,,,,,,,,,,,
,,,,,00104,2023-11-23_17h54.05.208,vbt_B2_day4,2022.2.4,MacIntel,62.5,,,,,,down,0,0.069,,-0.071111111,-0.3,1,0,0,0,124,124,113,1,koppen,images/br_koppen.png,images/cb_koppen.png,0,,,,,,,,,,,,,,,,,,,,,,
,,,,,00104,2023-11-23_17h54.05.208,vbt_B2_day4,2022.2.4,MacIntel,62.5,,,,,,down,0,3.07,,-0.071111111,-0.3,1,0,0,0,125,125,164,1,anarchie,images/br_anarchie.png,images/cb_anarchie.png,0,,,,,,,,,,,,,,,,,,,,,,
,,,,,00104,2023-11-23_17h54.05.208,vbt_B2_day4,2022.2.4,MacIntel,62.5,,,,,,down,0,6.14,,-0.071111111,-0.3,1,0,0,0,126,126,186,1,voorraad,images/br_voorraad.png,images/cb_voorraad.png,1,voorraad,,,,,,,,,,,,,,,,,,,,,
,,,,,00104,2023-11-23_17h54.05.208,vbt_B2_day4,2022.2.4,MacIntel,62.5,,,,,,down,0,3.086,,-0.071111111,-0.3,1,0,0,0,127,127,13,1,kaal,images/br_kaal.png,images/cb_kaal.png,0,,,,,,,,,,,,,,,,,,,,,,
,,,,,00104,2023-11-23_17h54.05.208,vbt_B2_day4,2022.2.4,MacIntel,62.5,,,,,,down,0,2.851,,-0.071111111,-0.3,1,0,0,0,128,128,110,1,zuster,images/br_zuster.png,images/cb_zuster.png,0,,,,,,,,,,,,,,,,,,,,,,
,,,,,00104,2023-11-23_17h54.05.208,vbt_B2_day4,2022.2.4,MacIntel,62.5,,,,,,down,0,3.634,,-0.071111111,-0.3,1,0,0,0,129,129,180,1,openbaar,images/br_openbaar.png,images/cb_openbaar.png,0,,,,,,,,,,,,,,,,,,,,,,
,,,,,00104,2023-11-23_17h54.05.208,vbt_B2_day4,2022.2.4,MacIntel,62.5,,,,,,down,0,4.951,,-0.071111111,-0.3,1,0,0,0,130,130,14,1,rijp,images/br_rijp.png,images/cb_rijp.png,0,,,,,,,,,,,,,,,,,,,,,,
,,,,,00104,2023-11-23_17h54.05.208,vbt_B2_day4,2022.2.4,MacIntel,62.5,,,,,,down,0,3.457,,-0.071111111,-0.3,1,0,0,0,131,131,168,1,bisschop,images/br_bisschop.png,images/cb_bisschop.png,0,,,,,,,,,,,,,,,,,,,,,,
,,,,,00104,2023-11-23_17h54.05.208,vbt_B2_day4,2022.2.4,MacIntel,62.5,,,,,,down,0,9.167,,-0.071111111,-0.3,1,0,0,0,132,132,165,1,feestdag,images/br_feestdag.png,images/cb_feestdag.png,0,,,,,,,,,,,,,,,,,,,,,,
,,,,,00104,2023-11-23_17h54.05.208,vbt_B2_day4,2022.2.4,MacIntel,62.5,,,,,,down,0,3.475,,-0.071111111,-0.3,1,0,0,0,133,133,189,1,aanraden,images/br_aanraden.png,images/cb_aanraden.png,0,,,,,,,,,,,,,,,,,,,,,,
,,,,,00104,2023-11-23_17h54.05.208,vbt_B2_day4,2022.2.4,MacIntel,62.5,,,,,,down,0,2.433,,-0.071111111,-0.3,1,0,0,0,134,134,162,1,uitdelen,images/br_uitdelen.png,images/cb_uitdelen.png,0,,,,,,,,,,,,,,,,,,,,,,
,,,,,00104,2023-11-23_17h54.05.208,vbt_B2_day4,2022.2.4,MacIntel,62.5,,,,,,down,0,1.285,,-0.071111111,-0.3,1,0,0,0,135,135,31,1,poes,images/br_poes.png,images/cb_poes.png,0,,,,,,,,,,,,,,,,,,,,,,
,,,,,00104,2023-11-23_17h54.05.208,vbt_B2_day4,2022.2.4,MacIntel,62.5,,,,,,down,0,6.716,,-0.071111111,-0.3,1,0,0,0,136,136,174,1,stemming,images/br_stemming.png,images/cb_stemming.png,0,,,,,,,,,,,,,,,,,,,,,,
,,,,,00104,2023-11-23_17h54.05.208,vbt_B2_day4,2022.2.4,MacIntel,62.5,,,,,,down,0,1.001,,-0.071111111,-0.3,1,0,0,0,137,137,70,1,ijdel,images/br_ijdel.png,images/cb_ijdel.png,0,,,,,,,,,,,,,,,,,,,,,,
,,,,,00104,2023-11-23_17h54.05.208,vbt_B2_day4,2022.2.4,MacIntel,62.5,,,,,,down,0,2.526,,-0.071111111,-0.3,1,0,0,0,138,138,198,1,bedoelen,images/br_bedoelen.png,images/cb_bedoelen.png,0,,,,,,,,,,,,,,,,,,,,,,
,,,,,00104,2023-11-23_17h54.05.208,vbt_B2_day4,2022.2.4,MacIntel,62.5,,,,,,down,0,0.093,,-0.071111111,-0.3,1,0,0,0,139,139,9,1,hier,images/br_hier.png,images/cb_hier.png,0,,,,,,,,,,,,,,,,,,,,,,
,,,,,00104,2023-11-23_17h54.05.208,vbt_B2_day4,2022.2.4,MacIntel,62.5,,,,,,down,0,9.341,,-0.071111111,-0.3,1,0,0,0,140,140,26,1,leuk,images/br_leuk.png,images/cb_leuk.png,1,leuk,,,,,,,,,,,,,,,,,,,,,
,,,,,00104,2023-11-23_17h54.05.208,vbt_B2_day4,2022.2.4,MacIntel,62.5,,,,,,down,0,7.084,,-0.071111111,-0.3,1,0,0,0,141,141,145,1,invloed,images/br_invloed.png,images/cb_invloed.png,1,invloed,,,,,,,,,,,,,,,,,,,,,
,,,,,00104,2023-11-23_17h54.05.208,vbt_B2_day4,2022.2.4,MacIntel,62.5,,,,,,down,0,2.19,,-0.071111111,-0.3,1,0,0,0,142,142,128,1,prikken,images/br_prikken.png,images/cb_prikken.png,0,,,,,,,,,,,,,,,,,,,,,,
,,,,,00104,2023-11-23_17h54.05.208,vbt_B2_day4,2022.2.4,MacIntel,62.5,,,,,,down,0,2.941,,-0.071111111,-0.3,1,0,0,0,143,143,152,1,afnemen,images/br_afnemen.png,images/cb_afnemen.png,0,,,,,,,,,,,,,,,,,,,,,,
,,,,,00104,2023-11-23_17h54.05.208,vbt_B2_day4,2022.2.4,MacIntel,62.5,,,,,,down,0,3.051,,-0.071111111,-0.3,1,0,0,0,144,144,117,1,kennis,images/br_kennis.png,images/cb_kennis.png,0,,,,,,,,,,,,,,,,,,,,,,
,,,,,00104,2023-11-23_17h54.05.208,vbt_B2_day4,2022.2.4,MacIntel,62.5,,,,,,down,0,0.869,,-0.071111111,-0.3,1,0,0,0,145,145,7,1,geld,images/br_geld.png,images/cb_geld.png,0,,,,,,,,,,,,,,,,,,,,,,
,,,,,00104,2023-11-23_17h54.05.208,vbt_B2_day4,2022.2.4,MacIntel,62.5,,,,,,down,0,0.617,,-0.071111111,-0.3,1,0,0,0,146,146,19,1,geit,images/br_geit.png,images/cb_geit.png,0,,,,,,,,,,,,,,,,,,,,,,
,,,,,00104,2023-11-23_17h54.05.208,vbt_B2_day4,2022.2.4,MacIntel,62.5,,,,,,down,0,1.366,,-0.071111111,-0.3,1,0,0,0,147,147,10,1,leek,images/br_leek.png,images/cb_leek.png,0,,,,,,,,,,,,,,,,,,,,,,
,,,,,00104,2023-11-23_17h54.05.208,vbt_B2_day4,2022.2.4,MacIntel,62.5,,,,,,down,0,0.317,,-0.071111111,-0.3,1,0,0,0,148,148,22,1,stof,images/br_stof.png,images/cb_stof.png,0,,,,,,,,,,,,,,,,,,,,,,
,,,,,00104,2023-11-23_17h54.05.208,vbt_B2_day4,2022.2.4,MacIntel,62.5,,,,,,down,0,4.019,,-0.071111111,-0.3,1,0,0,0,149,149,173,1,apparaat,images/br_apparaat.png,images/cb_apparaat.png,0,,,,,,,,,,,,,,,,,,,,,,
,,,,,00104,2023-11-23_17h54.05.208,vbt_B2_day4,2022.2.4,MacIntel,62.5,,,,,,down,0,2.018,,-0.071111111,-0.3,1,0,0,0,150,150,166,1,strikken,images/br_strikken.png,images/cb_strikken.png,0,,,,,,,,,,,,,,,,,,,,,,
,,,,,00104,2023-11-23_17h54.05.208,vbt_B2_day4,2022.2.4,MacIntel,62.5,,,,,,down,0,0.29,,-0.071111111,-0.3,1,0,0,0,151,151,71,1,bever,images/br_bever.png,images/cb_bever.png,0,,,,,,,,,,,,,,,,,,,,,,
,,,,,00104,2023-11-23_17h54.05.208,vbt_B2_day4,2022.2.4,MacIntel,62.5,,,,,,down,0,0.989,,-0.071111111,-0.3,1,0,0,0,152,152,42,1,bleek,images/br_bleek.png,images/cb_bleek.png,0,,,,,,,,,,,,,,,,,,,,,,
,,,,,00104,2023-11-23_17h54.05.208,vbt_B2_day4,2022.2.4,MacIntel,62.5,,,,,,down,0,11.719,,-0.071111111,-0.3,1,0,0,0,153,153,68,1,schat,images/br_schat.png,images/cb_schat.png,0,,,,,,,,,,,,,,,,,,,,,,
,,,,,00104,2023-11-23_17h54.05.208,vbt_B2_day4,2022.2.4,MacIntel,62.5,,,,,,down,0,3.328,,-0.071111111,-0.3,1,0,0,0,154,154,190,1,goedkoop,images/br_goedkoop.png,images/cb_goedkoop.png,0,,,,,,,,,,,,,,,,,,,,,,
,,,,,00104,2023-11-23_17h54.05.208,vbt_B2_day4,2022.2.4,MacIntel,62.5,,,,,,down,0,3.352,,-0.071111111,-0.3,1,0,0,0,155,155,157,1,uitlaat,images/br_uitlaat.png,images/cb_uitlaat.png,0,,,,,,,,,,,,,,,,,,,,,,
,,,,,00104,2023-11-23_17h54.05.208,vbt_B2_day4,2022.2.4,MacIntel,62.5,,,,,,down,0,4.433,,-0.071111111,-0.3,1,0,0,0,156,156,192,1,schaamte,images/br_schaamte.png,images/cb_schaamte.png,0,,,,,,,,,,,,,,,,,,,,,,
,,,,,00104,2023-11-23_17h54.05.208,vbt_B2_day4,2022.2.4,MacIntel,62.5,,,,,,down,0,8.341,,-0.071111111,-0.3,1,0,0,0,157,157,182,1,bijkomen,images/br_bijkomen.png,images/cb_bijkomen.png,0,,,,,,,,,,,,,,,,,,,,,,
,,,,,00104,2023-11-23_17h54.05.208,vbt_B2_day4,2022.2.4,MacIntel,62.5,,,,,,down,0,7.256,,-0.071111111,-0.3,1,0,0,0,158,158,82,1,muziek,images/br_muziek.png,images/cb_muziek.png,0,,,,,,,,,,,,,,,,,,,,,,
,,,,,00104,2023-11-23_17h54.05.208,vbt_B2_day4,2022.2.4,MacIntel,62.5,,,,,,down,0,1.751,,-0.071111111,-0.3,1,0,0,0,159,159,59,1,kring,images/br_kring.png,images/cb_kring.png,0,,,,,,,,,,,,,,,,,,,,,,
,,,,,00104,2023-11-23_17h54.05.208,vbt_B2_day4,2022.2.4,MacIntel,62.5,,,,,,down,0,0.406,,-0.071111111,-0.3,1,0,0,0,160,160,112,1,lukken,images/br_lukken.png,images/cb_lukken.png,0,,,,,,,,,,,,,,,,,,,,,,
,,,,,00104,2023-11-23_17h54.05.208,vbt_B2_day4,2022.2.4,MacIntel,62.5,,,,,,down,0,0.95,,-0.071111111,-0.3,1,0,0,0,161,161,61,1,groen,images/br_groen.png,images/cb_groen.png,0,,,,,,,,,,,,,,,,,,,,,,
,,,,,00104,2023-11-23_17h54.05.208,vbt_B2_day4,2022.2.4,MacIntel,62.5,,,,,,down,0,1.443,,-0.071111111,-0.3,1,0,0,0,162,162,77,1,woede,images/br_woede.png,images/cb_woede.png,0,,,,,,,,,,,,,,,,,,,,,,
,,,,,00104,2023-11-23_17h54.05.208,vbt_B2_day4,2022.2.4,MacIntel,62.5,,,,,,down,0,1.309,,-0.071111111,-0.3,1,0,0,0,163,163,92,1,geheim,images/br_geheim.png,images/cb_geheim.png,0,,,,,,,,,,,,,,,,,,,,,,
,,,,,00104,2023-11-23_17h54.05.208,vbt_B2_day4,2022.2.4,MacIntel,62.5,,,,,,down,0,2.017,,-0.071111111,-0.3,1,0,0,0,164,164,69,1,waken,images/br_waken.png,images/cb_waken.png,0,,,,,,,,,,,,,,,,,,,,,,
,,,,,00104,2023-11-23_17h54.05.208,vbt_B2_day4,2022.2.4,MacIntel,62.5,,,,,,down,0,1.74,,-0.071111111,-0.3,1,0,0,0,165,165,43,1,klauw,images/br_klauw.png,images/cb_klauw.png,0,,,,,,,,,,,,,,,,,,,,,,
,,,,,00104,2023-11-23_17h54.05.208,vbt_B2_day4,2022.2.4,MacIntel,62.5,,,,,,down,0,0.798,,-0.071111111,-0.3,1,0,0,0,166,166,57,1,steek,images/br_steek.png,images/cb_steek.png,0,,,,,,,,,,,,,,,,,,,,,,
,,,,,00104,2023-11-23_17h54.05.208,vbt_B2_day4,2022.2.4,MacIntel,62.5,,,,,,down,0,1.875,,-0.071111111,-0.3,1,0,0,0,167,167,81,1,dubbel,images/br_dubbel.png,images/cb_dubbel.png,0,,,,,,,,,,,,,,,,,,,,,,
,,,,,00104,2023-11-23_17h54.05.208,vbt_B2_day4,2022.2.4,MacIntel,62.5,,,,,,down,0,2.784,,-0.071111111,-0.3,1,0,0,0,168,168,58,1,tekst,images/br_tekst.png,images/cb_tekst.png,0,,,,,,,,,,,,,,,,,,,,,,
,,,,,00104,2023-11-23_17h54.05.208,vbt_B2_day4,2022.2.4,MacIntel,62.5,,,,,,down,0,2.525,,-0.071111111,-0.3,1,0,0,0,169,169,52,1,wagon,images/br_wagon.png,images/cb_wagon.png,0,,,,,,,,,,,,,,,,,,,,,,
,,,,,00104,2023-11-23_17h54.05.208,vbt_B2_day4,2022.2.4,MacIntel,62.5,,,,,,down,0,2.49,,-0.071111111,-0.3,1,0,0,0,170,170,20,1,site,images/br_site.png,images/cb_site.png,0,,,,,,,,,,,,,,,,,,,,,,
,,,,,00104,2023-11-23_17h54.05.208,vbt_B2_day4,2022.2.4,MacIntel,62.5,,,,,,down,0,7.524,,-0.071111111,-0.3,1,0,0,0,171,171,24,1,jurk,images/br_jurk.png,images/cb_jurk.png,1,jurk,,,,,,,,,,,,,,,,,,,,,
,,,,,00104,2023-11-23_17h54.05.208,vbt_B2_day4,2022.2.4,MacIntel,62.5,,,,,,down,0,5.717,,-0.071111111,-0.3,1,0,0,0,172,172,146,1,opkomen,images/br_opkomen.png,images/cb_opkomen.png,1,opkomen,,,,,,,,,,,,,,,,,,,,,
,,,,,00104,2023-11-23_17h54.05.208,vbt_B2_day4,2022.2.4,MacIntel,62.5,,,,,,down,0,3.089,,-0.071111111,-0.3,1,0,0,0,173,173,175,1,heengaan,images/br_heengaan.png,images/cb_heengaan.png,0,,,,,,,,,,,,,,,,,,,,,,
,,,,,00104,2023-11-23_17h54.05.208,vbt_B2_day4,2022.2.4,MacIntel,62.5,,,,,,down,0,3.706,,-0.071111111,-0.3,1,0,0,0,174,174,194,1,driemaal,images/br_driemaal.png,images/cb_driemaal.png,0,,,,,,,,,,,,,,,,,,,,,,
,,,,,00104,2023-11-23_17h54.05.208,vbt_B2_day4,2022.2.4,MacIntel,62.5,,,,,,down,0,0.999,,-0.071111111,-0.3,1,0,0,0,175,175,0,1,slak,images/br_slak.png,images/cb_slak.png,0,,,,,,,,,,,,,,,,,,,,,,
,,,,,00104,2023-11-23_17h54.05.208,vbt_B2_day4,2022.2.4,MacIntel,62.5,,,,,,down,0,2.024,,-0.071111111,-0.3,1,0,0,0,176,176,122,1,waarvan,images/br_waarvan.png,images/cb_waarvan.png,0,,,,,,,,,,,,,,,,,,,,,,
,,,,,00104,2023-11-23_17h54.05.208,vbt_B2_day4,2022.2.4,MacIntel,62.5,,,,,,down,0,3.267,,-0.071111111,-0.3,1,0,0,0,177,177,197,1,spanning,images/br_spanning.png,images/cb_spanning.png,0,,,,,,,,,,,,,,,,,,,,,,
,,,,,00104,2023-11-23_17h54.05.208,vbt_B2_day4,2022.2.4,MacIntel,62.5,,,,,,down,0,1.485,,-0.071111111,-0.3,1,0,0,0,178,178,16,1,ziek,images/br_ziek.png,images/cb_ziek.png,0,,,,,,,,,,,,,,,,,,,,,,
,,,,,00104,2023-11-23_17h54.05.208,vbt_B2_day4,2022.2.4,MacIntel,62.5,,,,,,down,0,7.237,,-0.071111111,-0.3,1,0,0,0,179,179,178,1,huisdier,images/br_huisdier.png,images/cb_huisdier.png,0,,,,,,,,,,,,,,,,,,,,,,
,,,,,00104,2023-11-23_17h54.05.208,vbt_B2_day4,2022.2.4,MacIntel,62.5,,,,,,down,0,0.616,,-0.071111111,-0.3,1,0,0,0,180,180,72,1,strak,images/br_strak.png,images/cb_strak.png,0,,,,,,,,,,,,,,,,,,,,,,
,,,,,00104,2023-11-23_17h54.05.208,vbt_B2_day4,2022.2.4,MacIntel,62.5,,,,,,down,0,4.757,,-0.071111111,-0.3,1,0,0,0,181,181,155,1,gerucht,images/br_gerucht.png,images/cb_gerucht.png,0,,,,,,,,,,,,,,,,,,,,,,
,,,,,00104,2023-11-23_17h54.05.208,vbt_B2_day4,2022.2.4,MacIntel,62.5,,,,,,down,0,3.568,,-0.071111111,-0.3,1,0,0,0,182,182,63,1,flirt,images/br_flirt.png,images/cb_flirt.png,0,,,,,,,,,,,,,,,,,,,,,,
,,,,,00104,2023-11-23_17h54.05.208,vbt_B2_day4,2022.2.4,MacIntel,62.5,,,,,,down,0,3.626,,-0.071111111,-0.3,1,0,0,0,183,183,135,1,gedicht,images/br_gedicht.png,images/cb_gedicht.png,0,,,,,,,,,,,,,,,,,,,,,,
,,,,,00104,2023-11-23_17h54.05.208,vbt_B2_day4,2022.2.4,MacIntel,62.5,,,,,,down,0,4.106,,-0.071111111,-0.3,1,0,0,0,184,184,116,1,besmet,images/br_besmet.png,images/cb_besmet.png,0,,,,,,,,,,,,,,,,,,,,,,
,,,,,00104,2023-11-23_17h54.05.208,vbt_B2_day4,2022.2.4,MacIntel,62.5,,,,,,down,0,0.858,,-0.071111111,-0.3,1,0,0,0,185,185,93,1,waarop,images/br_waarop.png,images/cb_waarop.png,0,,,,,,,,,,,,,,,,,,,,,,
,,,,,00104,2023-11-23_17h54.05.208,vbt_B2_day4,2022.2.4,MacIntel,62.5,,,,,,down,0,5.349,,-0.071111111,-0.3,1,0,0,0,186,186,76,1,afval,images/br_afval.png,images/cb_afval.png,0,,,,,,,,,,,,,,,,,,,,,,
,,,,,00104,2023-11-23_17h54.05.208,vbt_B2_day4,2022.2.4,MacIntel,62.5,,,,,,down,0,2.351,,-0.071111111,-0.3,1,0,0,0,187,187,32,1,palm,images/br_palm.png,images/cb_palm.png,0,,,,,,,,,,,,,,,,,,,,,,
,,,,,00104,2023-11-23_17h54.05.208,vbt_B2_day4,2022.2.4,MacIntel,62.5,,,,,,down,0,5.866,,-0.071111111,-0.3,1,0,0,0,188,188,147,1,komisch,images/br_komisch.png,images/cb_komisch.png,1,komisch,,,,,,,,,,,,,,,,,,,,,
,,,,,00104,2023-11-23_17h54.05.208,vbt_B2_day4,2022.2.4,MacIntel,62.5,,,,,,down,0,1.035,,-0.071111111,-0.3,1,0,0,0,189,189,181,1,toegeven,images/br_toegeven.png,images/cb_toegeven.png,0,,,,,,,,,,,,,,,,,,,,,,
,,,,,00104,2023-11-23_17h54.05.208,vbt_B2_day4,2022.2.4,MacIntel,62.5,,,,,,down,0,1.434,,-0.071111111,-0.3,1,0,0,0,190,190,80,1,kanjer,images/br_kanjer.png,images/cb_kanjer.png,0,,,,,,,,,,,,,,,,,,,,,,
,,,,,00104,2023-11-23_17h54.05.208,vbt_B2_day4,2022.2.4,MacIntel,62.5,,,,,,down,0,2.651,,-0.071111111,-0.3,1,0,0,0,191,191,74,1,graaf,images/br_graaf.png,images/cb_graaf.png,0,,,,,,,,,,,,,,,,,,,,,,
,,,,,00104,2023-11-23_17h54.05.208,vbt_B2_day4,2022.2.4,MacIntel,62.5,,,,,,down,0,5.81,,-0.071111111,-0.3,1,0,0,0,192,192,83,1,mening,images/br_mening.png,images/cb_mening.png,0,,,,,,,,,,,,,,,,,,,,,,
,,,,,00104,2023-11-23_17h54.05.208,vbt_B2_day4,2022.2.4,MacIntel,62.5,,,,,,down,0,6.235,,-0.071111111,-0.3,1,0,0,0,193,193,95,1,vreten,images/br_vreten.png,images/cb_vreten.png,0,,,,,,,,,,,,,,,,,,,,,,
,,,,,00104,2023-11-23_17h54.05.208,vbt_B2_day4,2022.2.4,MacIntel,62.5,,,,,,down,0,0.559,,-0.071111111,-0.3,1,0,0,0,194,194,129,1,verhaal,images/br_verhaal.png,images/cb_verhaal.png,0,,,,,,,,,,,,,,,,,,,,,,
,,,,,00104,2023-11-23_17h54.05.208,vbt_B2_day4,2022.2.4,MacIntel,62.5,,,,,,down,0,4.534,,-0.071111111,-0.3,1,0,0,0,195,195,85,1,heilig,images/br_heilig.png,images/cb_heilig.png,0,,,,,,,,,,,,,,,,,,,,,,
,,,,,00104,2023-11-23_17h54.05.208,vbt_B2_day4,2022.2.4,MacIntel,62.5,,,,,,down,0,1.456,,-0.071111111,-0.3,1,0,0,0,196,196,34,1,vorm,images/br_vorm.png,images/cb_vorm.png,0,,,,,,,,,,,,,,,,,,,,,,
,,,,,00104,2023-11-23_17h54.05.208,vbt_B2_day4,2022.2.4,MacIntel,62.5,,,,,,down,0,3.384,,-0.071111111,-0.3,1,0,0,0,197,197,66,1,lever,images/br_lever.png,images/cb_lever.png,1,lever,,,,,,,,,,,,,,,,,,,,,
,,,,,00104,2023-11-23_17h54.05.208,vbt_B2_day4,2022.2.4,MacIntel,62.5,,,,,,down,0,3.983,,-0.071111111,-0.3,1,0,0,0,198,198,159,1,sufferd,images/br_sufferd.png,images/cb_sufferd.png,0,,,,,,,,,,,,,,,,,,,,,,
,,,,,00104,2023-11-23_17h54.05.208,vbt_B2_day4,2022.2.4,MacIntel,62.5,,,,,,down,0,2.839,,-0.071111111,-0.3,1,0,0,0,199,199,142,1,snuiven,images/br_snuiven.png,images/cb_snuiven.png,0,,,,,,,,,,,,,,,,,,,,,,
,,,,,00104,2023-11-23_17h54.05.208,vbt_B2_day4,2022.2.4,MacIntel,62.5,,,,,,,,,,,,,,,,,,,,,,,,,-0.071111111,-0.3,1,0,0,,,,,,,,,,,,,,,,
,,,,,00104,2023-11-23_17h54.05.208,vbt_B2_day4,2022.2.4,MacIntel,62.5,,,,,,,,,,,,,,,,,,,,,,,,,,,,,,-0.071111111,-0.3,1,0,0,,,,,,,,,,,
,,,,,00104,2023-11-23_17h54.05.208,vbt_B2_day4,2022.2.4,MacIntel,62.5,,,,,,,,,,,,,,,,,,,,soda,images/br_soda.png,images/cb_soda.png,,soda,,,,,,,,,,,-0.071111111,-0.3,1,0,0,soda,0,0,0,3,1
,,,,,00104,2023-11-23_17h54.05.208,vbt_B2_day4,2022.2.4,MacIntel,62.5,,,,,,,,,,,,,,,,,,,,getucht,images/br_getucht.png,images/cb_getucht.png,,getuih.,,,,,,,,,,,-0.071111111,-0.3,1,0,0,getuih.,0,1,1,35,1
,,,,,00104,2023-11-23_17h54.05.208,vbt_B2_day4,2022.2.4,MacIntel,62.5,,,,,,,,,,,,,,,,,,,,strok,images/br_strok.png,images/cb_strok.png,,strik,,,,,,,,,,,-0.071111111,-0.3,1,0,0,strik,0,2,2,25,1
,,,,,00104,2023-11-23_17h54.05.208,vbt_B2_day4,2022.2.4,MacIntel,62.5,,,,,,,,,,,,,,,,,,,,pittig,images/br_pittig.png,images/cb_pittig.png,,pittig,,,,,,,,,,,-0.071111111,-0.3,1,0,0,pittig,0,3,3,51,1
,,,,,00104,2023-11-23_17h54.05.208,vbt_B2_day4,2022.2.4,MacIntel,62.5,,,,,,,,,,,,,,,,,,,,weigeren,images/br_weigeren.png,images/cb_weigeren.png,,wiegeren,,,,,,,,,,,-0.071111111,-0.3,1,0,0,wiegeren,0,4,4,16,1
,,,,,00104,2023-11-23_17h54.05.208,vbt_B2_day4,2022.2.4,MacIntel,62.5,,,,,,,,,,,,,,,,,,,,snee,images/br_snee.png,images/cb_snee.png,,snee,,,,,,,,,,,-0.071111111,-0.3,1,0,0,snee,0,5,5,40,1
,,,,,00104,2023-11-23_17h54.05.208,vbt_B2_day4,2022.2.4,MacIntel,62.5,,,,,,,,,,,,,,,,,,,,sulbon,images/br_sulbon.png,images/cb_sulbon.png,,sulbo.,,,,,,,,,,,-0.071111111,-0.3,1,0,0,sulbo.,0,6,6,31,1
,,,,,00104,2023-11-23_17h54.05.208,vbt_B2_day4,2022.2.4,MacIntel,62.5,,,,,,,,,,,,,,,,,,,,gebog,images/br_gebog.png,images/cb_gebog.png,,gebog,,,,,,,,,,,-0.071111111,-0.3,1,0,0,gebog,0,7,7,24,1
,,,,,00104,2023-11-23_17h54.05.208,vbt_B2_day4,2022.2.4,MacIntel,62.5,,,,,,,,,,,,,,,,,,,,aanzwaag,images/br_aanzwaag.png,images/cb_aanzwaag.png,,aanz.aag,,,,,,,,,,,-0.071111111,-0.3,1,0,0,aanz.aag,0,8,8,38,1
,,,,,00104,2023-11-23_17h54.05.208,vbt_B2_day4,2022.2.4,MacIntel,62.5,,,,,,,,,,,,,,,,,,,,drummer,images/br_drummer.png,images/cb_drummer.png,,dru..en,,,,,,,,,,,-0.071111111,-0.3,1,0,0,dru..en,0,9,9,53,1
,,,,,00104,2023-11-23_17h54.05.208,vbt_B2_day4,2022.2.4,MacIntel,62.5,,,,,,,,,,,,,,,,,,,,ezel,images/br_ezel.png,images/cb_ezel.png,,ezel,,,,,,,,,,,-0.071111111,-0.3,1,0,0,ezel,0,10,10,42,1
,,,,,00104,2023-11-23_17h54.05.208,vbt_B2_day4,2022.2.4,MacIntel,62.5,,,,,,,,,,,,,,,,,,,,paalbaak,images/br_paalbaak.png,images/cb_paalbaak.png,,paal.aa.,,,,,,,,,,,-0.071111111,-0.3,1,0,0,paal.aa.,0,11,11,39,1
,,,,,00104,2023-11-23_17h54.05.208,vbt_B2_day4,2022.2.4,MacIntel,62.5,,,,,,,,,,,,,,,,,,,,bisschap,images/br_bisschap.png,images/cb_bisschap.png,,bisschop,,,,,,,,,,,-0.071111111,-0.3,1,0,0,bisschop,0,12,12,36,1
,,,,,00104,2023-11-23_17h54.05.208,vbt_B2_day4,2022.2.4,MacIntel,62.5,,,,,,,,,,,,,,,,,,,,zwek,images/br_zwek.png,images/cb_zwek.png,,zw...,,,,,,,,,,,-0.071111111,-0.3,1,0,0,zw...,0,13,13,20,1
,,,,,00104,2023-11-23_17h54.05.208,vbt_B2_day4,2022.2.4,MacIntel,62.5,,,,,,,,,,,,,,,,,,,,tucket,images/br_tucket.png,images/cb_tucket.png,,ticket,,,,,,,,,,,-0.071111111,-0.3,1,0,0,ticket,0,14,14,30,1
,,,,,00104,2023-11-23_17h54.05.208,vbt_B2_day4,2022.2.4,MacIntel,62.5,,,,,,,,,,,,,,,,,,,,gaan,images/br_gaan.png,images/cb_gaan.png,,gaan,,,,,,,,,,,-0.071111111,-0.3,1,0,0,gaan,0,15,15,41,1
,,,,,00104,2023-11-23_17h54.05.208,vbt_B2_day4,2022.2.4,MacIntel,62.5,,,,,,,,,,,,,,,,,,,,warel,images/br_warel.png,images/cb_warel.png,,.are.,,,,,,,,,,,-0.071111111,-0.3,1,0,0,.are.,0,16,16,26,1
,,,,,00104,2023-11-23_17h54.05.208,vbt_B2_day4,2022.2.4,MacIntel,62.5,,,,,,,,,,,,,,,,,,,,rijp,images/br_rijp.png,images/cb_rijp.png,,rijp,,,,,,,,,,,-0.071111111,-0.3,1,0,0,rijp,0,17,17,2,1
,,,,,00104,2023-11-23_17h54.05.208,vbt_B2_day4,2022.2.4,MacIntel,62.5,,,,,,,,,,,,,,,,,,,,heengaan,images/br_heengaan.png,images/cb_heengaan.png,,heengaan,,,,,,,,,,,-0.071111111,-0.3,1,0,0,heengaan,0,18,18,19,1
,,,,,00104,2023-11-23_17h54.05.208,vbt_B2_day4,2022.2.4,MacIntel,62.5,,,,,,,,,,,,,,,,,,,,lappen,images/br_lappen.png,images/cb_lappen.png,,vallen,,,,,,,,,,,-0.071111111,-0.3,1,0,0,vallen,0,19,19,49,1
,,,,,00104,2023-11-23_17h54.05.208,vbt_B2_day4,2022.2.4,MacIntel,62.5,,,,,,,,,,,,,,,,,,,,broodje,images/br_broodje.png,images/cb_broodje.png,,broodje,,,,,,,,,,,-0.071111111,-0.3,1,0,0,broodje,0,20,20,55,1
,,,,,00104,2023-11-23_17h54.05.208,vbt_B2_day4,2022.2.4,MacIntel,62.5,,,,,,,,,,,,,,,,,,,,dozijn,images/br_dozijn.png,images/cb_dozijn.png,,donijn,,,,,,,,,,,-0.071111111,-0.3,1,0,0,donijn,0,21,21,48,1
,,,,,00104,2023-11-23_17h54.05.208,vbt_B2_day4,2022.2.4,MacIntel,62.5,,,,,,,,,,,,,,,,,,,,fran,images/br_fran.png,images/cb_fran.png,,fra.,,,,,,,,,,,-0.071111111,-0.3,1,0,0,fra.,0,22,22,22,1
,,,,,00104,2023-11-23_17h54.05.208,vbt_B2_day4,2022.2.4,MacIntel,62.5,,,,,,,,,,,,,,,,,,,,dalen,images/br_dalen.png,images/cb_dalen.png,,dalen,,,,,,,,,,,-0.071111111,-0.3,1,0,0,dalen,0,23,23,46,1
,,,,,00104,2023-11-23_17h54.05.208,vbt_B2_day4,2022.2.4,MacIntel,62.5,,,,,,,,,,,,,,,,,,,,kust,images/br_kust.png,images/cb_kust.png,,kust,,,,,,,,,,,-0.071111111,-0.3,1,0,0,kust,0,24,24,0,1
,,,,,00104,2023-11-23_17h54.05.208,vbt_B2_day4,2022.2.4,MacIntel,62.5,,,,,,,,,,,,,,,,,,,,oceaan,images/br_oceaan.png,images/cb_oceaan.png,,oceaan,,,,,,,,,,,-0.071111111,-0.3,1,0,0,oceaan,0,25,25,10,1
,,,,,00104,2023-11-23_17h54.05.208,vbt_B2_day4,2022.2.4,MacIntel,62.5,,,,,,,,,,,,,,,,,,,,praat,images/br_praat.png,images/cb_praat.png,,praat,,,,,,,,,,,-0.071111111,-0.3,1,0,0,praat,0,26,26,7,1
,,,,,00104,2023-11-23_17h54.05.208,vbt_B2_day4,2022.2.4,MacIntel,62.5,,,,,,,,,,,,,,,,,,,,midden,images/br_midden.png,images/cb_midden.png,,.idden,,,,,,,,,,,-0.071111111,-0.3,1,0,0,.idden,0,27,27,50,1
,,,,,00104,2023-11-23_17h54.05.208,vbt_B2_day4,2022.2.4,MacIntel,62.5,,,,,,,,,,,,,,,,,,,,schenden,images/br_schenden.png,images/cb_schenden.png,,schanden,,,,,,,,,,,-0.071111111,-0.3,1,0,0,schanden,0,28,28,57,1
,,,,,00104,2023-11-23_17h54.05.208,vbt_B2_day4,2022.2.4,MacIntel,62.5,,,,,,,,,,,,,,,,,,,,wozing,images/br_wozing.png,images/cb_wozing.png,,woning,,,,,,,,,,,-0.071111111,-0.3,1,0,0,woning,0,29,29,28,1
,,,,,00104,2023-11-23_17h54.05.208,vbt_B2_day4,2022.2.4,MacIntel,62.5,,,,,,,,,,,,,,,,,,,,waarop,images/br_waarop.png,images/cb_waarop.png,,waarop,,,,,,,,,,,-0.071111111,-0.3,1,0,0,waarop,0,30,30,9,1
,,,,,00104,2023-11-23_17h54.05.208,vbt_B2_day4,2022.2.4,MacIntel,62.5,,,,,,,,,,,,,,,,,,,,opkicht,images/br_opkicht.png,images/cb_opkicht.png,,opzicht,,,,,,,,,,,-0.071111111,-0.3,1,0,0,opzicht,0,31,31,34,1
,,,,,00104,2023-11-23_17h54.05.208,vbt_B2_day4,2022.2.4,MacIntel,62.5,,,,,,,,,,,,,,,,,,,,seizoen,images/br_seizoen.png,images/cb_seizoen.png,,seizoen,,,,,,,,,,,-0.071111111,-0.3,1,0,0,seizoen,0,32,32,13,1
,,,,,00104,2023-11-23_17h54.05.208,vbt_B2_day4,2022.2.4,MacIntel,62.5,,,,,,,,,,,,,,,,,,,,geheim,images/br_geheim.png,images/cb_geheim.png,,geheim,,,,,,,,,,,-0.071111111,-0.3,1,0,0,geheim,0,33,33,8,1
,,,,,00104,2023-11-23_17h54.05.208,vbt_B2_day4,2022.2.4,MacIntel,62.5,,,,,,,,,,,,,,,,,,,,steen,images/br_steen.png,images/cb_steen.png,,steen,,,,,,,,,,,-0.071111111,-0.3,1,0,0,steen,0,34,34,44,1
,,,,,00104,2023-11-23_17h54.05.208,vbt_B2_day4,2022.2.4,MacIntel,62.5,,,,,,,,,,,,,,,,,,,,kaal,images/br_kaal.png,images/cb_kaal.png,,kaal,,,,,,,,,,,-0.071111111,-0.3,1,0,0,kaal,0,35,35,1,1
,,,,,00104,2023-11-23_17h54.05.208,vbt_B2_day4,2022.2.4,MacIntel,62.5,,,,,,,,,,,,,,,,,,,,wagon,images/br_wagon.png,images/cb_wagon.png,,wagon,,,,,,,,,,,-0.071111111,-0.3,1,0,0,wagon,0,36,36,4,1
,,,,,00104,2023-11-23_17h54.05.208,vbt_B2_day4,2022.2.4,MacIntel,62.5,,,,,,,,,,,,,,,,,,,,gijf,images/br_gijf.png,images/cb_gijf.png,,gijf,,,,,,,,,,,-0.071111111,-0.3,1,0,0,gijf,0,37,37,23,1
,,,,,00104,2023-11-23_17h54.05.208,vbt_B2_day4,2022.2.4,MacIntel,62.5,,,,,,,,,,,,,,,,,,,,flippen,images/br_flippen.png,images/cb_flippen.png,,flippen,,,,,,,,,,,-0.071111111,-0.3,1,0,0,flippen,0,38,38,54,1
,,,,,00104,2023-11-23_17h54.05.208,vbt_B2_day4,2022.2.4,MacIntel,62.5,,,,,,,,,,,,,,,,,,,,seizoon,images/br_seizoon.png,images/cb_seizoon.png,,seizoon,,,,,,,,,,,-0.071111111,-0.3,1,0,0,seizoon,0,39,39,33,1
,,,,,00104,2023-11-23_17h54.05.208,vbt_B2_day4,2022.2.4,MacIntel,62.5,,,,,,,,,,,,,,,,,,,,grappen,images/br_grappen.png,images/cb_grappen.png,,grappen,,,,,,,,,,,-0.071111111,-0.3,1,0,0,grappen,0,40,40,12,1
,,,,,00104,2023-11-23_17h54.05.208,vbt_B2_day4,2022.2.4,MacIntel,62.5,,,,,,,,,,,,,,,,,,,,geliefd,images/br_geliefd.png,images/cb_geliefd.png,,geliefd,,,,,,,,,,,-0.071111111,-0.3,1,0,0,geliefd,0,41,41,14,1
,,,,,00104,2023-11-23_17h54.05.208,vbt_B2_day4,2022.2.4,MacIntel,62.5,,,,,,,,,,,,,,,,,,,,noodzaak,images/br_noodzaak.png,images/cb_noodzaak.png,,noodzaak,,,,,,,,,,,-0.071111111,-0.3,1,0,0,noodzaak,0,42,42,56,1
,,,,,00104,2023-11-23_17h54.05.208,vbt_B2_day4,2022.2.4,MacIntel,62.5,,,,,,,,,,,,,,,,,,,,stemming,images/br_stemming.png,images/cb_stemming.png,,stemming,,,,,,,,,,,-0.071111111,-0.3,1,0,0,stemming,0,43,43,18,1
,,,,,00104,2023-11-23_17h54.05.208,vbt_B2_day4,2022.2.4,MacIntel,62.5,,,,,,,,,,,,,,,,,,,,pijnlijk,images/br_pijnlijk.png,images/cb_pijnlijk.png,,pijnlijk,,,,,,,,,,,-0.071111111,-0.3,1,0,0,pijnlijk,0,44,44,58,1
,,,,,00104,2023-11-23_17h54.05.208,vbt_B2_day4,2022.2.4,MacIntel,62.5,,,,,,,,,,,,,,,,,,,,zaalrijk,images/br_zaalrijk.png,images/cb_zaalrijk.png,,zaal.....,,,,,,,,,,,-0.071111111,-0.3,1,0,0,zaal.....,0,45,45,37,1
,,,,,00104,2023-11-23_17h54.05.208,vbt_B2_day4,2022.2.4,MacIntel,62.5,,,,,,,,,,,,,,,,,,,,mekst,images/br_mekst.png,images/cb_mekst.png,,meks.,,,,,,,,,,,-0.071111111,-0.3,1,0,0,meks.,0,46,46,27,1
,,,,,00104,2023-11-23_17h54.05.208,vbt_B2_day4,2022.2.4,MacIntel,62.5,,,,,,,,,,,,,,,,,,,,gedicht,images/br_gedicht.png,images/cb_gedicht.png,,gedicht,,,,,,,,,,,-0.071111111,-0.3,1,0,0,gedicht,0,47,47,15,1
,,,,,00104,2023-11-23_17h54.05.208,vbt_B2_day4,2022.2.4,MacIntel,62.5,,,,,,,,,,,,,,,,,,,,drooien,images/br_drooien.png,images/cb_drooien.png,,drooe..,,,,,,,,,,,-0.071111111,-0.3,1,0,0,drooe..,0,48,48,32,1
,,,,,00104,2023-11-23_17h54.05.208,vbt_B2_day4,2022.2.4,MacIntel,62.5,,,,,,,,,,,,,,,,,,,,gebit,images/br_gebit.png,images/cb_gebit.png,,gebit,,,,,,,,,,,-0.071111111,-0.3,1,0,0,gebit,0,49,49,6,1
,,,,,00104,2023-11-23_17h54.05.208,vbt_B2_day4,2022.2.4,MacIntel,62.5,,,,,,,,,,,,,,,,,,,,baron,images/br_baron.png,images/cb_baron.png,,baron,,,,,,,,,,,0.172222222,0.094444444,0,0,1,baron,0,50,50,5,1
,,,,,00104,2023-11-23_17h54.05.208,vbt_B2_day4,2022.2.4,MacIntel,62.5,,,,,,,,,,,,,,,,,,,,vreten,images/br_vreten.png,images/cb_vreten.png,,,,,,,,,,,,,-0.084975369,-0.200738916,1,0,0,,0,51,51,11,1
,,,,,00104,2023-11-23_17h54.05.208,vbt_B2_day4,2022.2.4,MacIntel,62.5,,,,,,,,,,,,,,,,,,,,bruin,images/br_bruin.png,images/cb_bruin.png,,,,,,,,,,,,,-0.089901478,-0.200738916,1,0,0,,0,52,52,45,1
,,,,,00104,2023-11-23_17h54.05.208,vbt_B2_day4,2022.2.4,MacIntel,62.5,,,,,,,,,,,,,,,,,,,,opruimen,images/br_opruimen.png,images/cb_opruimen.png,,,,,,,,,,,,,-0.137931034,-0.217980296,1,0,0,,0,53,53,59,1
,,,,,00104,2023-11-23_17h54.05.208,vbt_B2_day4,2022.2.4,MacIntel,62.5,,,,,,,,,,,,,,,,,,,,schotel,images/br_schotel.png,images/cb_schotel.png,,,,,,,,,,,,,-0.229064039,-0.189655172,1,0,1,,0,54,54,52,1
,,,,,00104,2023-11-23_17h54.05.208,vbt_B2_day4,2022.2.4,MacIntel,62.5,,,,,,,,,,,,,,,,,,,,haza,images/br_haza.png,images/cb_haza.png,,,,,,,,,,,,,0.025862069,-0.230295567,1,0,0,,0,55,55,21,1
,,,,,00104,2023-11-23_17h54.05.208,vbt_B2_day4,2022.2.4,MacIntel,62.5,,,,,,,,,,,,,,,,,,,,gaaf,images/br_gaaf.png,images/cb_gaaf.png,,,,,,,,,,,,,0.236453202,0.104679803,1,0,0,,0,56,56,43,1
,,,,,00104,2023-11-23_17h54.05.208,vbt_B2_day4,2022.2.4,MacIntel,62.5,,,,,,,,,,,,,,,,,,,,toevol,images/br_toevol.png,images/cb_toevol.png,,,,,,,,,,,,,-0.052955665,-0.073891626,1,0,0,,0,57,57,29,1
,,,,,00104,2023-11-23_17h54.05.208,vbt_B2_day4,2022.2.4,MacIntel,62.5,,,,,,,,,,,,,,,,,,,,apparaat,images/br_apparaat.png,images/cb_apparaat.png,,,,,,,,,,,,,-0.109605911,-0.194581281,1,0,0,,0,58,58,17,1
,,,,,00104,2023-11-23_17h54.05.208,vbt_B2_day4,2022.2.4,MacIntel,62.5,,,,,,,,,,,,,,,,,,,,eerst,images/br_eerst.png,images/cb_eerst.png,,,,,,,,,,,,,0.25862069,0.048029557,1,0,0,,0,59,59,47,1
,,,,,00104,2023-11-23_17h54.05.208,vbt_B2_day4,2022.2.4,MacIntel,62.5,,,,,,,,,,,,,,,,,,,,,,,,,,,,,,,,,,,,,,,,,,,,,
