welcome_mouse.x,welcome_mouse.y,welcome_mouse.leftButton,welcome_mouse.midButton,welcome_mouse.rightButton,"ID",date,expName,psychopyVersion,OS,frameRate,trainInstr_mouse.x,trainInstr_mouse.y,trainInstr_mouse.leftButton,trainInstr_mouse.midButton,trainInstr_mouse.rightButton,translation_key.keys,translation_key.corr,translation_key.rt,word_rsp.text,trWrd_mouse.x,trWrd_mouse.y,trWrd_mouse.leftButton,trWrd_mouse.midButton,trWrd_mouse.rightButton,train_loop.thisRepN,train_loop.thisTrialN,train_loop.thisN,train_loop.thisIndex,train_loop.ran,nlWrd,brWrd,cbWrd,test,testResp,mouse.x,mouse.y,mouse.leftButton,mouse.midButton,mouse.rightButton,testInstr_mouse.x,testInstr_mouse.y,testInstr_mouse.leftButton,testInstr_mouse.midButton,testInstr_mouse.rightButton,test_mouse.x,test_mouse.y,test_mouse.leftButton,test_mouse.midButton,test_mouse.rightButton,test_response.text,test_loop.thisRepN,test_loop.thisTrialN,test_loop.thisN,test_loop.thisIndex,test_loop.ran
-0.1875,-0.096679688,1,0,0,00070,2023-10-19_21h44.21.561,vbt_B2_day4,2022.2.4,Win32,59.93407252,,,,,,,,,,,,,,,,,,,,,,,,,,,,,,,,,,,,,,,,,,,,,
,,,,,00070,2023-10-19_21h44.21.561,vbt_B2_day4,2022.2.4,Win32,59.93407252,-0.451171875,0.096679688,1,0,0,,,,,,,,,,,,,,,,,,,,,,,,,,,,,,,,,,,,,,,,
,,,,,00070,2023-10-19_21h44.21.561,vbt_B2_day4,2022.2.4,Win32,59.93407252,,,,,,down,0,2.9988,,-0.268554688,-0.076171875,1,0,0,0,0,0,192,1,schaamte,images/br_schaamte.png,images/cb_schaamte.png,0,,,,,,,,,,,,,,,,,,,,,,
,,,,,00070,2023-10-19_21h44.21.561,vbt_B2_day4,2022.2.4,Win32,59.93407252,,,,,,down,0,1.0537,,-0.416015625,-0.056640625,1,0,0,0,1,1,155,1,gerucht,images/br_gerucht.png,images/cb_gerucht.png,0,,,,,,,,,,,,,,,,,,,,,,
,,,,,00070,2023-10-19_21h44.21.561,vbt_B2_day4,2022.2.4,Win32,59.93407252,,,,,,down,0,2.0982,,-0.416015625,-0.056640625,1,0,0,0,2,2,33,1,vlek,images/br_vlek.png,images/cb_vlek.png,0,,,,,,,,,,,,,,,,,,,,,,
,,,,,00070,2023-10-19_21h44.21.561,vbt_B2_day4,2022.2.4,Win32,59.93407252,,,,,,down,0,0.1278,,-0.416015625,-0.056640625,1,0,0,0,3,3,91,1,gezond,images/br_gezond.png,images/cb_gezond.png,0,,,,,,,,,,,,,,,,,,,,,,
,,,,,00070,2023-10-19_21h44.21.561,vbt_B2_day4,2022.2.4,Win32,59.93407252,,,,,,down,0,0.8309,,-0.416015625,-0.056640625,1,0,0,0,4,4,71,1,bever,images/br_bever.png,images/cb_bever.png,0,,,,,,,,,,,,,,,,,,,,,,
,,,,,00070,2023-10-19_21h44.21.561,vbt_B2_day4,2022.2.4,Win32,59.93407252,,,,,,down,0,0.2772,,-0.416992188,-0.055664063,1,0,0,0,5,5,191,1,opheffen,images/br_opheffen.png,images/cb_opheffen.png,0,,,,,,,,,,,,,,,,,,,,,,
,,,,,00070,2023-10-19_21h44.21.561,vbt_B2_day4,2022.2.4,Win32,59.93407252,,,,,,down,0,21.0147,,-0.404296875,-0.109375,1,0,0,0,6,6,146,1,opkomen,images/br_opkomen.png,images/cb_opkomen.png,1,opkomen,,,,,,,,,,,,,,,,,,,,,
,,,,,00070,2023-10-19_21h44.21.561,vbt_B2_day4,2022.2.4,Win32,59.93407252,,,,,,down,0,1.6515,,-0.330078125,-0.14453125,1,0,0,0,7,7,29,1,baas,images/br_baas.png,images/cb_baas.png,0,,,,,,,,,,,,,,,,,,,,,,
,,,,,00070,2023-10-19_21h44.21.561,vbt_B2_day4,2022.2.4,Win32,59.93407252,,,,,,down,0,3.2786,,-0.330078125,-0.14453125,1,0,0,0,8,8,68,1,schat,images/br_schat.png,images/cb_schat.png,0,,,,,,,,,,,,,,,,,,,,,,
,,,,,00070,2023-10-19_21h44.21.561,vbt_B2_day4,2022.2.4,Win32,59.93407252,,,,,,down,0,0.9434,,-0.387695313,-0.005859375,1,0,0,0,9,9,164,1,anarchie,images/br_anarchie.png,images/cb_anarchie.png,0,,,,,,,,,,,,,,,,,,,,,,
,,,,,00070,2023-10-19_21h44.21.561,vbt_B2_day4,2022.2.4,Win32,59.93407252,,,,,,down,0,15.6409,,-0.387695313,-0.005859375,1,0,0,0,10,10,185,1,mijnheer,images/br_mijnheer.png,images/cb_mijnheer.png,1,mijnheer,,,,,,,,,,,,,,,,,,,,,
,,,,,00070,2023-10-19_21h44.21.561,vbt_B2_day4,2022.2.4,Win32,59.93407252,,,,,,down,0,3.5878,,-0.330078125,0.018554688,1,0,0,0,11,11,133,1,seizoen,images/br_seizoen.png,images/cb_seizoen.png,0,,,,,,,,,,,,,,,,,,,,,,
,,,,,00070,2023-10-19_21h44.21.561,vbt_B2_day4,2022.2.4,Win32,59.93407252,,,,,,down,0,2.962,,-0.330078125,0.01953125,1,0,0,0,12,12,160,1,daarheen,images/br_daarheen.png,images/cb_daarheen.png,0,,,,,,,,,,,,,,,,,,,,,,
,,,,,00070,2023-10-19_21h44.21.561,vbt_B2_day4,2022.2.4,Win32,59.93407252,,,,,,down,0,0.0453,,-0.348632813,0.0078125,1,0,0,0,13,13,31,1,poes,images/br_poes.png,images/cb_poes.png,0,,,,,,,,,,,,,,,,,,,,,,
,,,,,00070,2023-10-19_21h44.21.561,vbt_B2_day4,2022.2.4,Win32,59.93407252,,,,,,down,0,0.3814,,-0.348632813,0.0078125,1,0,0,0,14,14,94,1,oceaan,images/br_oceaan.png,images/cb_oceaan.png,0,,,,,,,,,,,,,,,,,,,,,,
,,,,,00070,2023-10-19_21h44.21.561,vbt_B2_day4,2022.2.4,Win32,59.93407252,,,,,,down,0,0.1552,,-0.348632813,0.0078125,1,0,0,0,15,15,171,1,aarzelen,images/br_aarzelen.png,images/cb_aarzelen.png,0,,,,,,,,,,,,,,,,,,,,,,
,,,,,00070,2023-10-19_21h44.21.561,vbt_B2_day4,2022.2.4,Win32,59.93407252,,,,,,down,0,0.4927,,-0.348632813,0.0078125,1,0,0,0,16,16,189,1,aanraden,images/br_aanraden.png,images/cb_aanraden.png,0,,,,,,,,,,,,,,,,,,,,,,
,,,,,00070,2023-10-19_21h44.21.561,vbt_B2_day4,2022.2.4,Win32,59.93407252,,,,,,down,0,0.1182,,-0.348632813,0.0078125,1,0,0,0,17,17,23,1,zout,images/br_zout.png,images/cb_zout.png,0,,,,,,,,,,,,,,,,,,,,,,
,,,,,00070,2023-10-19_21h44.21.561,vbt_B2_day4,2022.2.4,Win32,59.93407252,,,,,,down,0,0.2848,,-0.348632813,0.0078125,1,0,0,0,18,18,116,1,besmet,images/br_besmet.png,images/cb_besmet.png,0,,,,,,,,,,,,,,,,,,,,,,
,,,,,00070,2023-10-19_21h44.21.561,vbt_B2_day4,2022.2.4,Win32,59.93407252,,,,,,down,0,0.0168,,-0.348632813,0.0078125,1,0,0,0,19,19,197,1,spanning,images/br_spanning.png,images/cb_spanning.png,0,,,,,,,,,,,,,,,,,,,,,,
,,,,,00070,2023-10-19_21h44.21.561,vbt_B2_day4,2022.2.4,Win32,59.93407252,,,,,,down,0,0.8911,,-0.348632813,0.0078125,1,0,0,0,20,20,15,1,soda,images/br_soda.png,images/cb_soda.png,0,,,,,,,,,,,,,,,,,,,,,,
,,,,,00070,2023-10-19_21h44.21.561,vbt_B2_day4,2022.2.4,Win32,59.93407252,,,,,,down,0,0.293,,-0.348632813,0.0078125,1,0,0,0,21,21,98,1,kreeft,images/br_kreeft.png,images/cb_kreeft.png,0,,,,,,,,,,,,,,,,,,,,,,
,,,,,00070,2023-10-19_21h44.21.561,vbt_B2_day4,2022.2.4,Win32,59.93407252,,,,,,down,0,10.0495,,-0.298828125,-0.110351563,1,0,0,0,22,22,24,1,jurk,images/br_jurk.png,images/cb_jurk.png,1,jurk,,,,,,,,,,,,,,,,,,,,,
,,,,,00070,2023-10-19_21h44.21.561,vbt_B2_day4,2022.2.4,Win32,59.93407252,,,,,,down,0,162.2641,,-0.399414063,-0.088867188,1,0,0,0,23,23,166,1,strikken,images/br_strikken.png,images/cb_strikken.png,0,,,,,,,,,,,,,,,,,,,,,,
,,,,,00070,2023-10-19_21h44.21.561,vbt_B2_day4,2022.2.4,Win32,59.93407252,,,,,,down,0,0.0146,,-0.399414063,-0.088867188,1,0,0,0,24,24,140,1,blijven,images/br_blijven.png,images/cb_blijven.png,0,,,,,,,,,,,,,,,,,,,,,,
,,,,,00070,2023-10-19_21h44.21.561,vbt_B2_day4,2022.2.4,Win32,59.93407252,,,,,,down,0,0.2579,,-0.399414063,-0.088867188,1,0,0,0,25,25,14,1,rijp,images/br_rijp.png,images/cb_rijp.png,0,,,,,,,,,,,,,,,,,,,,,,
,,,,,00070,2023-10-19_21h44.21.561,vbt_B2_day4,2022.2.4,Win32,59.93407252,,,,,,down,0,0.2513,,-0.399414063,-0.088867188,1,0,0,0,26,26,172,1,weigeren,images/br_weigeren.png,images/cb_weigeren.png,0,,,,,,,,,,,,,,,,,,,,,,
,,,,,00070,2023-10-19_21h44.21.561,vbt_B2_day4,2022.2.4,Win32,59.93407252,,,,,,down,0,0.084,,-0.399414063,-0.088867188,1,0,0,0,27,27,173,1,apparaat,images/br_apparaat.png,images/cb_apparaat.png,0,,,,,,,,,,,,,,,,,,,,,,
,,,,,00070,2023-10-19_21h44.21.561,vbt_B2_day4,2022.2.4,Win32,59.93407252,,,,,,down,0,0.1676,,-0.399414063,-0.088867188,1,0,0,0,28,28,99,1,koffie,images/br_koffie.png,images/cb_koffie.png,0,,,,,,,,,,,,,,,,,,,,,,
,,,,,00070,2023-10-19_21h44.21.561,vbt_B2_day4,2022.2.4,Win32,59.93407252,,,,,,down,0,0.5894,,-0.399414063,-0.088867188,1,0,0,0,29,29,174,1,stemming,images/br_stemming.png,images/cb_stemming.png,0,,,,,,,,,,,,,,,,,,,,,,
,,,,,00070,2023-10-19_21h44.21.561,vbt_B2_day4,2022.2.4,Win32,59.93407252,,,,,,down,0,0.55,,-0.399414063,-0.088867188,1,0,0,0,30,30,51,1,samen,images/br_samen.png,images/cb_samen.png,0,,,,,,,,,,,,,,,,,,,,,,
,,,,,00070,2023-10-19_21h44.21.561,vbt_B2_day4,2022.2.4,Win32,59.93407252,,,,,,down,0,2.6967,,-0.399414063,-0.088867188,1,0,0,0,31,31,129,1,verhaal,images/br_verhaal.png,images/cb_verhaal.png,0,,,,,,,,,,,,,,,,,,,,,,
,,,,,00070,2023-10-19_21h44.21.561,vbt_B2_day4,2022.2.4,Win32,59.93407252,,,,,,down,0,0.174,,-0.399414063,-0.088867188,1,0,0,0,32,32,42,1,bleek,images/br_bleek.png,images/cb_bleek.png,0,,,,,,,,,,,,,,,,,,,,,,
,,,,,00070,2023-10-19_21h44.21.561,vbt_B2_day4,2022.2.4,Win32,59.93407252,,,,,,down,0,0.1901,,-0.399414063,-0.088867188,1,0,0,0,33,33,2,1,jaar,images/br_jaar.png,images/cb_jaar.png,0,,,,,,,,,,,,,,,,,,,,,,
,,,,,00070,2023-10-19_21h44.21.561,vbt_B2_day4,2022.2.4,Win32,59.93407252,,,,,,down,0,13.0835,,-0.399414063,-0.088867188,1,0,0,0,34,34,145,1,invloed,images/br_invloed.png,images/cb_invloed.png,1,invloed,,,,,,,,,,,,,,,,,,,,,
,,,,,00070,2023-10-19_21h44.21.561,vbt_B2_day4,2022.2.4,Win32,59.93407252,,,,,,down,0,0.9934,,-0.39453125,-0.088867188,1,0,0,0,35,35,168,1,bisschop,images/br_bisschop.png,images/cb_bisschop.png,0,,,,,,,,,,,,,,,,,,,,,,
,,,,,00070,2023-10-19_21h44.21.561,vbt_B2_day4,2022.2.4,Win32,59.93407252,,,,,,down,0,0.0681,,-0.39453125,-0.088867188,1,0,0,0,36,36,79,1,nodig,images/br_nodig.png,images/cb_nodig.png,0,,,,,,,,,,,,,,,,,,,,,,
,,,,,00070,2023-10-19_21h44.21.561,vbt_B2_day4,2022.2.4,Win32,59.93407252,,,,,,down,0,0.412,,-0.39453125,-0.088867188,1,0,0,0,37,37,194,1,driemaal,images/br_driemaal.png,images/cb_driemaal.png,0,,,,,,,,,,,,,,,,,,,,,,
,,,,,00070,2023-10-19_21h44.21.561,vbt_B2_day4,2022.2.4,Win32,59.93407252,,,,,,down,0,0.6408,,-0.39453125,-0.088867188,1,0,0,0,38,38,55,1,praat,images/br_praat.png,images/cb_praat.png,0,,,,,,,,,,,,,,,,,,,,,,
,,,,,00070,2023-10-19_21h44.21.561,vbt_B2_day4,2022.2.4,Win32,59.93407252,,,,,,down,0,1.0809,,-0.39453125,-0.088867188,1,0,0,0,39,39,135,1,gedicht,images/br_gedicht.png,images/cb_gedicht.png,0,,,,,,,,,,,,,,,,,,,,,,
,,,,,00070,2023-10-19_21h44.21.561,vbt_B2_day4,2022.2.4,Win32,59.93407252,,,,,,down,0,1.101,,-0.397460938,-0.098632813,1,0,0,0,40,40,58,1,tekst,images/br_tekst.png,images/cb_tekst.png,0,,,,,,,,,,,,,,,,,,,,,,
,,,,,00070,2023-10-19_21h44.21.561,vbt_B2_day4,2022.2.4,Win32,59.93407252,,,,,,down,0,8.065,,-0.397460938,-0.098632813,1,0,0,0,41,41,183,1,getuigen,images/br_getuigen.png,images/cb_getuigen.png,0,,,,,,,,,,,,,,,,,,,,,,
,,,,,00070,2023-10-19_21h44.21.561,vbt_B2_day4,2022.2.4,Win32,59.93407252,,,,,,down,0,0.8445,,-0.513671875,-0.0859375,1,0,0,0,42,42,178,1,huisdier,images/br_huisdier.png,images/cb_huisdier.png,0,,,,,,,,,,,,,,,,,,,,,,
,,,,,00070,2023-10-19_21h44.21.561,vbt_B2_day4,2022.2.4,Win32,59.93407252,,,,,,down,0,0.4852,,-0.513671875,-0.0859375,1,0,0,0,43,43,118,1,vinger,images/br_vinger.png,images/cb_vinger.png,0,,,,,,,,,,,,,,,,,,,,,,
,,,,,00070,2023-10-19_21h44.21.561,vbt_B2_day4,2022.2.4,Win32,59.93407252,,,,,,down,0,0.5301,,-0.513671875,-0.0859375,1,0,0,0,44,44,21,1,mist,images/br_mist.png,images/cb_mist.png,0,,,,,,,,,,,,,,,,,,,,,,
,,,,,00070,2023-10-19_21h44.21.561,vbt_B2_day4,2022.2.4,Win32,59.93407252,,,,,,down,0,0.6569,,-0.513671875,-0.0859375,1,0,0,0,45,45,108,1,excuus,images/br_excuus.png,images/cb_excuus.png,0,,,,,,,,,,,,,,,,,,,,,,
,,,,,00070,2023-10-19_21h44.21.561,vbt_B2_day4,2022.2.4,Win32,59.93407252,,,,,,down,0,1.2314,,-0.513671875,-0.0859375,1,0,0,0,46,46,36,1,vuur,images/br_vuur.png,images/cb_vuur.png,0,,,,,,,,,,,,,,,,,,,,,,
,,,,,00070,2023-10-19_21h44.21.561,vbt_B2_day4,2022.2.4,Win32,59.93407252,,,,,,down,0,0.809,,-0.513671875,-0.0859375,1,0,0,0,47,47,193,1,weeshuis,images/br_weeshuis.png,images/cb_weeshuis.png,0,,,,,,,,,,,,,,,,,,,,,,
,,,,,00070,2023-10-19_21h44.21.561,vbt_B2_day4,2022.2.4,Win32,59.93407252,,,,,,down,0,3.2286,,-0.513671875,-0.0859375,1,0,0,0,48,48,125,1,aanzien,images/br_aanzien.png,images/cb_aanzien.png,0,,,,,,,,,,,,,,,,,,,,,,
,,,,,00070,2023-10-19_21h44.21.561,vbt_B2_day4,2022.2.4,Win32,59.93407252,,,,,,down,0,0.613,,-0.513671875,-0.0859375,1,0,0,0,49,49,110,1,zuster,images/br_zuster.png,images/cb_zuster.png,0,,,,,,,,,,,,,,,,,,,,,,
,,,,,00070,2023-10-19_21h44.21.561,vbt_B2_day4,2022.2.4,Win32,59.93407252,,,,,,down,0,0.5618,,-0.436523438,-0.078125,1,0,0,0,50,50,22,1,stof,images/br_stof.png,images/cb_stof.png,0,,,,,,,,,,,,,,,,,,,,,,
,,,,,00070,2023-10-19_21h44.21.561,vbt_B2_day4,2022.2.4,Win32,59.93407252,,,,,,down,0,0.662,,-0.434570313,-0.078125,1,0,0,0,51,51,157,1,uitlaat,images/br_uitlaat.png,images/cb_uitlaat.png,0,,,,,,,,,,,,,,,,,,,,,,
,,,,,00070,2023-10-19_21h44.21.561,vbt_B2_day4,2022.2.4,Win32,59.93407252,,,,,,down,0,0.3182,,-0.432617188,-0.076171875,1,0,0,0,52,52,89,1,slapen,images/br_slapen.png,images/cb_slapen.png,0,,,,,,,,,,,,,,,,,,,,,,
,,,,,00070,2023-10-19_21h44.21.561,vbt_B2_day4,2022.2.4,Win32,59.93407252,,,,,,down,0,0.5679,,-0.430664063,-0.07421875,1,0,0,0,53,53,136,1,waarbij,images/br_waarbij.png,images/cb_waarbij.png,0,,,,,,,,,,,,,,,,,,,,,,
,,,,,00070,2023-10-19_21h44.21.561,vbt_B2_day4,2022.2.4,Win32,59.93407252,,,,,,down,0,0.6451,,-0.431640625,-0.07421875,1,0,0,0,54,54,101,1,staren,images/br_staren.png,images/cb_staren.png,0,,,,,,,,,,,,,,,,,,,,,,
,,,,,00070,2023-10-19_21h44.21.561,vbt_B2_day4,2022.2.4,Win32,59.93407252,,,,,,down,0,0.787,,-0.431640625,-0.07421875,1,0,0,0,55,55,77,1,woede,images/br_woede.png,images/cb_woede.png,0,,,,,,,,,,,,,,,,,,,,,,
,,,,,00070,2023-10-19_21h44.21.561,vbt_B2_day4,2022.2.4,Win32,59.93407252,,,,,,down,0,2.175,,-0.431640625,-0.075195313,1,0,0,0,56,56,16,1,ziek,images/br_ziek.png,images/cb_ziek.png,0,,,,,,,,,,,,,,,,,,,,,,
,,,,,00070,2023-10-19_21h44.21.561,vbt_B2_day4,2022.2.4,Win32,59.93407252,,,,,,down,0,13.2068,,-0.434570313,-0.083007813,1,0,0,0,57,57,147,1,komisch,images/br_komisch.png,images/cb_komisch.png,1,komisch,,,,,,,,,,,,,,,,,,,,,
,,,,,00070,2023-10-19_21h44.21.561,vbt_B2_day4,2022.2.4,Win32,59.93407252,,,,,,down,0,0.969,,-0.434570313,-0.083007813,1,0,0,0,58,58,190,1,goedkoop,images/br_goedkoop.png,images/cb_goedkoop.png,0,,,,,,,,,,,,,,,,,,,,,,
,,,,,00070,2023-10-19_21h44.21.561,vbt_B2_day4,2022.2.4,Win32,59.93407252,,,,,,down,0,0.29,,-0.434570313,-0.083007813,1,0,0,0,59,59,28,1,stal,images/br_stal.png,images/cb_stal.png,0,,,,,,,,,,,,,,,,,,,,,,
,,,,,00070,2023-10-19_21h44.21.561,vbt_B2_day4,2022.2.4,Win32,59.93407252,,,,,,down,0,0.8289,,-0.434570313,-0.083007813,1,0,0,0,60,60,138,1,akkoord,images/br_akkoord.png,images/cb_akkoord.png,0,,,,,,,,,,,,,,,,,,,,,,
,,,,,00070,2023-10-19_21h44.21.561,vbt_B2_day4,2022.2.4,Win32,59.93407252,,,,,,down,0,0.3355,,-0.434570313,-0.083007813,1,0,0,0,61,61,179,1,woestijn,images/br_woestijn.png,images/cb_woestijn.png,0,,,,,,,,,,,,,,,,,,,,,,
,,,,,00070,2023-10-19_21h44.21.561,vbt_B2_day4,2022.2.4,Win32,59.93407252,,,,,,down,0,1.0043,,-0.434570313,-0.083007813,1,0,0,0,62,62,161,1,attentie,images/br_attentie.png,images/cb_attentie.png,0,,,,,,,,,,,,,,,,,,,,,,
,,,,,00070,2023-10-19_21h44.21.561,vbt_B2_day4,2022.2.4,Win32,59.93407252,,,,,,down,0,1.073,,-0.434570313,-0.083007813,1,0,0,0,63,63,43,1,klauw,images/br_klauw.png,images/cb_klauw.png,0,,,,,,,,,,,,,,,,,,,,,,
,,,,,00070,2023-10-19_21h44.21.561,vbt_B2_day4,2022.2.4,Win32,59.93407252,,,,,,down,0,0.1675,,-0.434570313,-0.083007813,1,0,0,0,64,64,49,1,laken,images/br_laken.png,images/cb_laken.png,0,,,,,,,,,,,,,,,,,,,,,,
,,,,,00070,2023-10-19_21h44.21.561,vbt_B2_day4,2022.2.4,Win32,59.93407252,,,,,,down,0,0.3567,,-0.434570313,-0.083007813,1,0,0,0,65,65,41,1,maken,images/br_maken.png,images/cb_maken.png,0,,,,,,,,,,,,,,,,,,,,,,
,,,,,00070,2023-10-19_21h44.21.561,vbt_B2_day4,2022.2.4,Win32,59.93407252,,,,,,down,0,0.4405,,-0.434570313,-0.083007813,1,0,0,0,66,66,134,1,geliefd,images/br_geliefd.png,images/cb_geliefd.png,0,,,,,,,,,,,,,,,,,,,,,,
,,,,,00070,2023-10-19_21h44.21.561,vbt_B2_day4,2022.2.4,Win32,59.93407252,,,,,,down,0,0.1953,,-0.434570313,-0.083007813,1,0,0,0,67,67,7,1,geld,images/br_geld.png,images/cb_geld.png,0,,,,,,,,,,,,,,,,,,,,,,
,,,,,00070,2023-10-19_21h44.21.561,vbt_B2_day4,2022.2.4,Win32,59.93407252,,,,,,down,0,0.8284,,-0.434570313,-0.083007813,1,0,0,0,68,68,32,1,palm,images/br_palm.png,images/cb_palm.png,0,,,,,,,,,,,,,,,,,,,,,,
,,,,,00070,2023-10-19_21h44.21.561,vbt_B2_day4,2022.2.4,Win32,59.93407252,,,,,,down,0,0.9766,,-0.434570313,-0.083007813,1,0,0,0,69,69,93,1,waarop,images/br_waarop.png,images/cb_waarop.png,0,,,,,,,,,,,,,,,,,,,,,,
,,,,,00070,2023-10-19_21h44.21.561,vbt_B2_day4,2022.2.4,Win32,59.93407252,,,,,,down,0,186.8959,,-0.434570313,-0.083007813,1,0,0,0,70,70,130,1,keihard,images/br_keihard.png,images/cb_keihard.png,0,,,,,,,,,,,,,,,,,,,,,,
,,,,,00070,2023-10-19_21h44.21.561,vbt_B2_day4,2022.2.4,Win32,59.93407252,,,,,,down,0,0.4909,,-0.434570313,-0.083007813,1,0,0,0,71,71,1,1,zaal,images/br_zaal.png,images/cb_zaal.png,0,,,,,,,,,,,,,,,,,,,,,,
,,,,,00070,2023-10-19_21h44.21.561,vbt_B2_day4,2022.2.4,Win32,59.93407252,,,,,,down,0,0.1728,,-0.434570313,-0.083007813,1,0,0,0,72,72,35,1,lust,images/br_lust.png,images/cb_lust.png,0,,,,,,,,,,,,,,,,,,,,,,
,,,,,00070,2023-10-19_21h44.21.561,vbt_B2_day4,2022.2.4,Win32,59.93407252,,,,,,down,0,0.2898,,-0.434570313,-0.083007813,1,0,0,0,73,73,114,1,vullen,images/br_vullen.png,images/cb_vullen.png,0,,,,,,,,,,,,,,,,,,,,,,
,,,,,00070,2023-10-19_21h44.21.561,vbt_B2_day4,2022.2.4,Win32,59.93407252,,,,,,down,0,0.1499,,-0.434570313,-0.083007813,1,0,0,0,74,74,132,1,grappen,images/br_grappen.png,images/cb_grappen.png,0,,,,,,,,,,,,,,,,,,,,,,
,,,,,00070,2023-10-19_21h44.21.561,vbt_B2_day4,2022.2.4,Win32,59.93407252,,,,,,down,0,0.344,,-0.434570313,-0.083007813,1,0,0,0,75,75,109,1,totaal,images/br_totaal.png,images/cb_totaal.png,0,,,,,,,,,,,,,,,,,,,,,,
,,,,,00070,2023-10-19_21h44.21.561,vbt_B2_day4,2022.2.4,Win32,59.93407252,,,,,,down,0,0.0127,,-0.434570313,-0.083007813,1,0,0,0,76,76,60,1,jasje,images/br_jasje.png,images/cb_jasje.png,0,,,,,,,,,,,,,,,,,,,,,,
,,,,,00070,2023-10-19_21h44.21.561,vbt_B2_day4,2022.2.4,Win32,59.93407252,,,,,,down,0,0.0795,,-0.434570313,-0.083007813,1,0,0,0,77,77,92,1,geheim,images/br_geheim.png,images/cb_geheim.png,0,,,,,,,,,,,,,,,,,,,,,,
,,,,,00070,2023-10-19_21h44.21.561,vbt_B2_day4,2022.2.4,Win32,59.93407252,,,,,,down,0,0.6792,,-0.434570313,-0.083007813,1,0,0,0,78,78,90,1,geluid,images/br_geluid.png,images/cb_geluid.png,0,,,,,,,,,,,,,,,,,,,,,,
,,,,,00070,2023-10-19_21h44.21.561,vbt_B2_day4,2022.2.4,Win32,59.93407252,,,,,,down,0,2.4322,,-0.434570313,-0.083007813,1,0,0,0,79,79,57,1,steek,images/br_steek.png,images/cb_steek.png,0,,,,,,,,,,,,,,,,,,,,,,
,,,,,00070,2023-10-19_21h44.21.561,vbt_B2_day4,2022.2.4,Win32,59.93407252,,,,,,down,0,0.2671,,-0.434570313,-0.083007813,1,0,0,0,80,80,48,1,steel,images/br_steel.png,images/cb_steel.png,0,,,,,,,,,,,,,,,,,,,,,,
,,,,,00070,2023-10-19_21h44.21.561,vbt_B2_day4,2022.2.4,Win32,59.93407252,,,,,,down,0,0.4753,,-0.434570313,-0.083007813,1,0,0,0,81,81,97,1,loyaal,images/br_loyaal.png,images/cb_loyaal.png,0,,,,,,,,,,,,,,,,,,,,,,
,,,,,00070,2023-10-19_21h44.21.561,vbt_B2_day4,2022.2.4,Win32,59.93407252,,,,,,down,0,0.2674,,-0.456054688,-0.131835938,1,0,0,0,82,82,177,1,maaltijd,images/br_maaltijd.png,images/cb_maaltijd.png,0,,,,,,,,,,,,,,,,,,,,,,
,,,,,00070,2023-10-19_21h44.21.561,vbt_B2_day4,2022.2.4,Win32,59.93407252,,,,,,down,0,0.3782,,-0.456054688,-0.131835938,1,0,0,0,83,83,46,1,jagen,images/br_jagen.png,images/cb_jagen.png,0,,,,,,,,,,,,,,,,,,,,,,
,,,,,00070,2023-10-19_21h44.21.561,vbt_B2_day4,2022.2.4,Win32,59.93407252,,,,,,down,0,0.5173,,-0.456054688,-0.1328125,1,0,0,0,84,84,3,1,mand,images/br_mand.png,images/cb_mand.png,0,,,,,,,,,,,,,,,,,,,,,,
,,,,,00070,2023-10-19_21h44.21.561,vbt_B2_day4,2022.2.4,Win32,59.93407252,,,,,,down,0,0.522,,-0.456054688,-0.1328125,1,0,0,0,85,85,121,1,twijfel,images/br_twijfel.png,images/cb_twijfel.png,0,,,,,,,,,,,,,,,,,,,,,,
,,,,,00070,2023-10-19_21h44.21.561,vbt_B2_day4,2022.2.4,Win32,59.93407252,,,,,,down,0,0.517,,-0.456054688,-0.1328125,1,0,0,0,86,86,196,1,nakijken,images/br_nakijken.png,images/cb_nakijken.png,0,,,,,,,,,,,,,,,,,,,,,,
,,,,,00070,2023-10-19_21h44.21.561,vbt_B2_day4,2022.2.4,Win32,59.93407252,,,,,,down,0,0.4567,,-0.456054688,-0.1328125,1,0,0,0,87,87,199,1,beseffen,images/br_beseffen.png,images/cb_beseffen.png,0,,,,,,,,,,,,,,,,,,,,,,
,,,,,00070,2023-10-19_21h44.21.561,vbt_B2_day4,2022.2.4,Win32,59.93407252,,,,,,down,0,3.7724,,-0.456054688,-0.1328125,1,0,0,0,88,88,25,1,plek,images/br_plek.png,images/cb_plek.png,1,plek,,,,,,,,,,,,,,,,,,,,,
,,,,,00070,2023-10-19_21h44.21.561,vbt_B2_day4,2022.2.4,Win32,59.93407252,,,,,,down,0,5.3258,,-0.466796875,-0.109375,1,0,0,0,89,89,72,1,strak,images/br_strak.png,images/cb_strak.png,0,,,,,,,,,,,,,,,,,,,,,,
,,,,,00070,2023-10-19_21h44.21.561,vbt_B2_day4,2022.2.4,Win32,59.93407252,,,,,,down,0,0.935,,-0.502929688,-0.1171875,1,0,0,0,90,90,142,1,snuiven,images/br_snuiven.png,images/cb_snuiven.png,0,,,,,,,,,,,,,,,,,,,,,,
,,,,,00070,2023-10-19_21h44.21.561,vbt_B2_day4,2022.2.4,Win32,59.93407252,,,,,,down,0,0.7517,,-0.502929688,-0.1171875,1,0,0,0,91,91,181,1,toegeven,images/br_toegeven.png,images/cb_toegeven.png,0,,,,,,,,,,,,,,,,,,,,,,
,,,,,00070,2023-10-19_21h44.21.561,vbt_B2_day4,2022.2.4,Win32,59.93407252,,,,,,down,0,0.3172,,-0.502929688,-0.1171875,1,0,0,0,92,92,96,1,slagen,images/br_slagen.png,images/cb_slagen.png,0,,,,,,,,,,,,,,,,,,,,,,
,,,,,00070,2023-10-19_21h44.21.561,vbt_B2_day4,2022.2.4,Win32,59.93407252,,,,,,down,0,10.4918,,-0.551757813,-0.099609375,1,0,0,0,93,93,64,1,wegen,images/br_wegen.png,images/cb_wegen.png,1,wegen,,,,,,,,,,,,,,,,,,,,,
,,,,,00070,2023-10-19_21h44.21.561,vbt_B2_day4,2022.2.4,Win32,59.93407252,,,,,,down,0,2.2148,,-0.551757813,-0.099609375,1,0,0,0,94,94,170,1,schatten,images/br_schatten.png,images/cb_schatten.png,0,,,,,,,,,,,,,,,,,,,,,,
,,,,,00070,2023-10-19_21h44.21.561,vbt_B2_day4,2022.2.4,Win32,59.93407252,,,,,,down,0,0.676,,-0.54296875,-0.1015625,1,0,0,0,95,95,115,1,kleren,images/br_kleren.png,images/cb_kleren.png,0,,,,,,,,,,,,,,,,,,,,,,
,,,,,00070,2023-10-19_21h44.21.561,vbt_B2_day4,2022.2.4,Win32,59.93407252,,,,,,down,0,0.4842,,-0.54296875,-0.1015625,1,0,0,0,96,96,40,1,schep,images/br_schep.png,images/cb_schep.png,0,,,,,,,,,,,,,,,,,,,,,,
,,,,,00070,2023-10-19_21h44.21.561,vbt_B2_day4,2022.2.4,Win32,59.93407252,,,,,,down,0,3.9572,,-0.54296875,-0.1015625,1,0,0,0,97,97,167,1,eenhoorn,images/br_eenhoorn.png,images/cb_eenhoorn.png,0,,,,,,,,,,,,,,,,,,,,,,
,,,,,00070,2023-10-19_21h44.21.561,vbt_B2_day4,2022.2.4,Win32,59.93407252,,,,,,down,0,0.5764,,-0.54296875,-0.1015625,1,0,0,0,98,98,148,1,smullen,images/br_smullen.png,images/cb_smullen.png,0,,,,,,,,,,,,,,,,,,,,,,
,,,,,00070,2023-10-19_21h44.21.561,vbt_B2_day4,2022.2.4,Win32,59.93407252,,,,,,down,0,5.056,,-0.54296875,-0.1015625,1,0,0,0,99,99,18,1,blik,images/br_blik.png,images/cb_blik.png,0,,,,,,,,,,,,,,,,,,,,,,
,,,,,00070,2023-10-19_21h44.21.561,vbt_B2_day4,2022.2.4,Win32,59.93407252,,,,,,down,0,0.4047,,-0.54296875,-0.1015625,1,0,0,0,100,100,54,1,gebit,images/br_gebit.png,images/cb_gebit.png,0,,,,,,,,,,,,,,,,,,,,,,
,,,,,00070,2023-10-19_21h44.21.561,vbt_B2_day4,2022.2.4,Win32,59.93407252,,,,,,down,0,0.639,,-0.54296875,-0.1015625,1,0,0,0,101,101,8,1,knie,images/br_knie.png,images/cb_knie.png,0,,,,,,,,,,,,,,,,,,,,,,
,,,,,00070,2023-10-19_21h44.21.561,vbt_B2_day4,2022.2.4,Win32,59.93407252,,,,,,down,0,0.1837,,-0.54296875,-0.1015625,1,0,0,0,102,102,122,1,waarvan,images/br_waarvan.png,images/cb_waarvan.png,0,,,,,,,,,,,,,,,,,,,,,,
,,,,,00070,2023-10-19_21h44.21.561,vbt_B2_day4,2022.2.4,Win32,59.93407252,,,,,,down,0,0.2198,,-0.54296875,-0.1015625,1,0,0,0,103,103,117,1,kennis,images/br_kennis.png,images/cb_kennis.png,0,,,,,,,,,,,,,,,,,,,,,,
,,,,,00070,2023-10-19_21h44.21.561,vbt_B2_day4,2022.2.4,Win32,59.93407252,,,,,,down,0,0.384,,-0.54296875,-0.1015625,1,0,0,0,104,104,182,1,bijkomen,images/br_bijkomen.png,images/cb_bijkomen.png,0,,,,,,,,,,,,,,,,,,,,,,
,,,,,00070,2023-10-19_21h44.21.561,vbt_B2_day4,2022.2.4,Win32,59.93407252,,,,,,down,0,0.7192,,-0.54296875,-0.1015625,1,0,0,0,105,105,50,1,stoom,images/br_stoom.png,images/cb_stoom.png,0,,,,,,,,,,,,,,,,,,,,,,
,,,,,00070,2023-10-19_21h44.21.561,vbt_B2_day4,2022.2.4,Win32,59.93407252,,,,,,down,0,0.4554,,-0.54296875,-0.1015625,1,0,0,0,106,106,150,1,gegeven,images/br_gegeven.png,images/cb_gegeven.png,0,,,,,,,,,,,,,,,,,,,,,,
,,,,,00070,2023-10-19_21h44.21.561,vbt_B2_day4,2022.2.4,Win32,59.93407252,,,,,,down,0,9.995,,-0.149414063,-0.27734375,1,0,0,0,107,107,184,1,aandelen,images/br_aandelen.png,images/cb_aandelen.png,1,aandelen,,,,,,,,,,,,,,,,,,,,,
,,,,,00070,2023-10-19_21h44.21.561,vbt_B2_day4,2022.2.4,Win32,59.93407252,,,,,,down,0,2.7986,,-0.392578125,-0.245117188,1,0,0,0,108,108,149,1,redding,images/br_redding.png,images/cb_redding.png,0,,,,,,,,,,,,,,,,,,,,,,
,,,,,00070,2023-10-19_21h44.21.561,vbt_B2_day4,2022.2.4,Win32,59.93407252,,,,,,down,0,1.9032,,-0.392578125,-0.245117188,1,0,0,0,109,109,131,1,opzicht,images/br_opzicht.png,images/cb_opzicht.png,0,,,,,,,,,,,,,,,,,,,,,,
,,,,,00070,2023-10-19_21h44.21.561,vbt_B2_day4,2022.2.4,Win32,59.93407252,,,,,,down,0,0.054,,-0.392578125,-0.245117188,1,0,0,0,110,110,4,1,moes,images/br_moes.png,images/cb_moes.png,0,,,,,,,,,,,,,,,,,,,,,,
,,,,,00070,2023-10-19_21h44.21.561,vbt_B2_day4,2022.2.4,Win32,59.93407252,,,,,,down,0,0.0568,,-0.392578125,-0.245117188,1,0,0,0,111,111,127,1,doodmoe,images/br_doodmoe.png,images/cb_doodmoe.png,0,,,,,,,,,,,,,,,,,,,,,,
,,,,,00070,2023-10-19_21h44.21.561,vbt_B2_day4,2022.2.4,Win32,59.93407252,,,,,,down,0,0.3205,,-0.392578125,-0.245117188,1,0,0,0,112,112,195,1,middelen,images/br_middelen.png,images/cb_middelen.png,0,,,,,,,,,,,,,,,,,,,,,,
,,,,,00070,2023-10-19_21h44.21.561,vbt_B2_day4,2022.2.4,Win32,59.93407252,,,,,,down,0,0.3861,,-0.392578125,-0.245117188,1,0,0,0,113,113,75,1,snoep,images/br_snoep.png,images/cb_snoep.png,0,,,,,,,,,,,,,,,,,,,,,,
,,,,,00070,2023-10-19_21h44.21.561,vbt_B2_day4,2022.2.4,Win32,59.93407252,,,,,,down,0,1.2683,,-0.392578125,-0.245117188,1,0,0,0,114,114,83,1,mening,images/br_mening.png,images/cb_mening.png,0,,,,,,,,,,,,,,,,,,,,,,
,,,,,00070,2023-10-19_21h44.21.561,vbt_B2_day4,2022.2.4,Win32,59.93407252,,,,,,down,0,0.0411,,-0.392578125,-0.245117188,1,0,0,0,115,115,44,1,flits,images/br_flits.png,images/cb_flits.png,0,,,,,,,,,,,,,,,,,,,,,,
,,,,,00070,2023-10-19_21h44.21.561,vbt_B2_day4,2022.2.4,Win32,59.93407252,,,,,,down,0,12.6414,,-0.443359375,-0.1875,1,0,0,0,116,116,104,1,zweven,images/br_zweven.png,images/cb_zweven.png,1,zweven,,,,,,,,,,,,,,,,,,,,,
,,,,,00070,2023-10-19_21h44.21.561,vbt_B2_day4,2022.2.4,Win32,59.93407252,,,,,,down,0,9.6876,,-0.4765625,-0.045898438,1,0,0,0,117,117,187,1,opkijken,images/br_opkijken.png,images/cb_opkijken.png,1,opkijken,,,,,,,,,,,,,,,,,,,,,
,,,,,00070,2023-10-19_21h44.21.561,vbt_B2_day4,2022.2.4,Win32,59.93407252,,,,,,down,0,1.7216,,-0.333984375,-0.157226563,1,0,0,0,118,118,70,1,ijdel,images/br_ijdel.png,images/cb_ijdel.png,0,,,,,,,,,,,,,,,,,,,,,,
,,,,,00070,2023-10-19_21h44.21.561,vbt_B2_day4,2022.2.4,Win32,59.93407252,,,,,,down,0,0.6347,,-0.333984375,-0.157226563,1,0,0,0,119,119,10,1,leek,images/br_leek.png,images/cb_leek.png,0,,,,,,,,,,,,,,,,,,,,,,
,,,,,00070,2023-10-19_21h44.21.561,vbt_B2_day4,2022.2.4,Win32,59.93407252,,,,,,down,0,0.7095,,-0.338867188,-0.216796875,1,0,0,0,120,120,62,1,knaap,images/br_knaap.png,images/cb_knaap.png,0,,,,,,,,,,,,,,,,,,,,,,
,,,,,00070,2023-10-19_21h44.21.561,vbt_B2_day4,2022.2.4,Win32,59.93407252,,,,,,down,0,5.4684,,-0.34375,-0.265625,1,0,0,0,121,121,26,1,leuk,images/br_leuk.png,images/cb_leuk.png,1,leuk,,,,,,,,,,,,,,,,,,,,,
,,,,,00070,2023-10-19_21h44.21.561,vbt_B2_day4,2022.2.4,Win32,59.93407252,,,,,,down,0,4.7232,,-0.34375,-0.265625,1,0,0,0,122,122,159,1,sufferd,images/br_sufferd.png,images/cb_sufferd.png,0,,,,,,,,,,,,,,,,,,,,,,
,,,,,00070,2023-10-19_21h44.21.561,vbt_B2_day4,2022.2.4,Win32,59.93407252,,,,,,down,0,0.4681,,-0.359375,-0.266601563,1,0,0,0,123,123,103,1,joggen,images/br_joggen.png,images/cb_joggen.png,0,,,,,,,,,,,,,,,,,,,,,,
,,,,,00070,2023-10-19_21h44.21.561,vbt_B2_day4,2022.2.4,Win32,59.93407252,,,,,,down,0,13.3706,,-0.359375,-0.266601563,1,0,0,0,124,124,67,1,zwart,images/br_zwart.png,images/cb_zwart.png,1,zwart,,,,,,,,,,,,,,,,,,,,,
,,,,,00070,2023-10-19_21h44.21.561,vbt_B2_day4,2022.2.4,Win32,59.93407252,,,,,,down,0,4.6805,,-0.401367188,-0.268554688,1,0,0,0,125,125,102,1,legaal,images/br_legaal.png,images/cb_legaal.png,0,,,,,,,,,,,,,,,,,,,,,,
,,,,,00070,2023-10-19_21h44.21.561,vbt_B2_day4,2022.2.4,Win32,59.93407252,,,,,,down,0,0.2688,,-0.4609375,-0.141601563,1,0,0,0,126,126,20,1,site,images/br_site.png,images/cb_site.png,0,,,,,,,,,,,,,,,,,,,,,,
,,,,,00070,2023-10-19_21h44.21.561,vbt_B2_day4,2022.2.4,Win32,59.93407252,,,,,,down,0,3.5992,,-0.403320313,-0.00390625,1,0,0,0,127,127,141,1,knielen,images/br_knielen.png,images/cb_knielen.png,0,,,,,,,,,,,,,,,,,,,,,,
,,,,,00070,2023-10-19_21h44.21.561,vbt_B2_day4,2022.2.4,Win32,59.93407252,,,,,,down,0,20.0388,,-0.403320313,-0.00390625,1,0,0,0,128,128,12,1,kust,images/br_kust.png,images/cb_kust.png,0,,,,,,,,,,,,,,,,,,,,,,
,,,,,00070,2023-10-19_21h44.21.561,vbt_B2_day4,2022.2.4,Win32,59.93407252,,,,,,down,0,9.907,,-0.403320313,-0.00390625,1,0,0,0,129,129,82,1,muziek,images/br_muziek.png,images/cb_muziek.png,0,,,,,,,,,,,,,,,,,,,,,,
,,,,,00070,2023-10-19_21h44.21.561,vbt_B2_day4,2022.2.4,Win32,59.93407252,,,,,,down,0,0.4289,,-0.41015625,-0.004882813,1,0,0,0,130,130,124,1,bloeien,images/br_bloeien.png,images/cb_bloeien.png,0,,,,,,,,,,,,,,,,,,,,,,
,,,,,00070,2023-10-19_21h44.21.561,vbt_B2_day4,2022.2.4,Win32,59.93407252,,,,,,down,0,0.2896,,-0.411132813,-0.004882813,1,0,0,0,131,131,169,1,oprotten,images/br_oprotten.png,images/cb_oprotten.png,0,,,,,,,,,,,,,,,,,,,,,,
,,,,,00070,2023-10-19_21h44.21.561,vbt_B2_day4,2022.2.4,Win32,59.93407252,,,,,,down,0,0.9349,,-0.415039063,-0.004882813,1,0,0,0,132,132,34,1,vorm,images/br_vorm.png,images/cb_vorm.png,0,,,,,,,,,,,,,,,,,,,,,,
,,,,,00070,2023-10-19_21h44.21.561,vbt_B2_day4,2022.2.4,Win32,59.93407252,,,,,,down,0,2.0615,,-0.424804688,-0.026367188,1,0,0,0,133,133,47,1,kabel,images/br_kabel.png,images/cb_kabel.png,0,,,,,,,,,,,,,,,,,,,,,,
,,,,,00070,2023-10-19_21h44.21.561,vbt_B2_day4,2022.2.4,Win32,59.93407252,,,,,,down,0,1.2519,,-0.424804688,-0.026367188,1,0,0,0,134,134,128,1,prikken,images/br_prikken.png,images/cb_prikken.png,0,,,,,,,,,,,,,,,,,,,,,,
,,,,,00070,2023-10-19_21h44.21.561,vbt_B2_day4,2022.2.4,Win32,59.93407252,,,,,,down,0,9.856,,-0.424804688,-0.026367188,1,0,0,0,135,135,158,1,innemen,images/br_innemen.png,images/cb_innemen.png,0,,,,,,,,,,,,,,,,,,,,,,
,,,,,00070,2023-10-19_21h44.21.561,vbt_B2_day4,2022.2.4,Win32,59.93407252,,,,,,down,0,0.1922,,-0.471679688,-0.033203125,1,0,0,0,136,136,9,1,hier,images/br_hier.png,images/cb_hier.png,0,,,,,,,,,,,,,,,,,,,,,,
,,,,,00070,2023-10-19_21h44.21.561,vbt_B2_day4,2022.2.4,Win32,59.93407252,,,,,,down,0,0.3514,,-0.47265625,-0.033203125,1,0,0,0,137,137,63,1,flirt,images/br_flirt.png,images/cb_flirt.png,0,,,,,,,,,,,,,,,,,,,,,,
,,,,,00070,2023-10-19_21h44.21.561,vbt_B2_day4,2022.2.4,Win32,59.93407252,,,,,,down,0,4.9805,,-0.47265625,-0.033203125,1,0,0,0,138,138,27,1,dans,images/br_dans.png,images/cb_dans.png,1,dans,,,,,,,,,,,,,,,,,,,,,
,,,,,00070,2023-10-19_21h44.21.561,vbt_B2_day4,2022.2.4,Win32,59.93407252,,,,,,down,0,0.4381,,-0.47265625,-0.033203125,1,0,0,0,139,139,162,1,uitdelen,images/br_uitdelen.png,images/cb_uitdelen.png,0,,,,,,,,,,,,,,,,,,,,,,
,,,,,00070,2023-10-19_21h44.21.561,vbt_B2_day4,2022.2.4,Win32,59.93407252,,,,,,down,0,0.7017,,-0.47265625,-0.033203125,1,0,0,0,140,140,153,1,vervoer,images/br_vervoer.png,images/cb_vervoer.png,0,,,,,,,,,,,,,,,,,,,,,,
,,,,,00070,2023-10-19_21h44.21.561,vbt_B2_day4,2022.2.4,Win32,59.93407252,,,,,,down,0,15.3947,,-0.427734375,-0.005859375,1,0,0,0,141,141,19,1,geit,images/br_geit.png,images/cb_geit.png,0,,,,,,,,,,,,,,,,,,,,,,
,,,,,00070,2023-10-19_21h44.21.561,vbt_B2_day4,2022.2.4,Win32,59.93407252,,,,,,down,0,0.6603,,-0.427734375,-0.005859375,1,0,0,0,142,142,87,1,toeval,images/br_toeval.png,images/cb_toeval.png,0,,,,,,,,,,,,,,,,,,,,,,
,,,,,00070,2023-10-19_21h44.21.561,vbt_B2_day4,2022.2.4,Win32,59.93407252,,,,,,down,0,0.934,,-0.427734375,-0.005859375,1,0,0,0,143,143,84,1,lokken,images/br_lokken.png,images/cb_lokken.png,0,,,,,,,,,,,,,,,,,,,,,,
,,,,,00070,2023-10-19_21h44.21.561,vbt_B2_day4,2022.2.4,Win32,59.93407252,,,,,,down,0,0.3866,,-0.431640625,-0.008789063,1,0,0,0,144,144,74,1,graaf,images/br_graaf.png,images/cb_graaf.png,0,,,,,,,,,,,,,,,,,,,,,,
,,,,,00070,2023-10-19_21h44.21.561,vbt_B2_day4,2022.2.4,Win32,59.93407252,,,,,,down,0,0.7649,,-0.4453125,-0.005859375,1,0,0,0,145,145,152,1,afnemen,images/br_afnemen.png,images/cb_afnemen.png,0,,,,,,,,,,,,,,,,,,,,,,
,,,,,00070,2023-10-19_21h44.21.561,vbt_B2_day4,2022.2.4,Win32,59.93407252,,,,,,down,0,1.0979,,-0.4453125,-0.005859375,1,0,0,0,146,146,100,1,geduld,images/br_geduld.png,images/cb_geduld.png,0,,,,,,,,,,,,,,,,,,,,,,
,,,,,00070,2023-10-19_21h44.21.561,vbt_B2_day4,2022.2.4,Win32,59.93407252,,,,,,down,0,9.0439,,-0.37109375,-0.041992188,1,0,0,0,147,147,180,1,openbaar,images/br_openbaar.png,images/cb_openbaar.png,0,,,,,,,,,,,,,,,,,,,,,,
,,,,,00070,2023-10-19_21h44.21.561,vbt_B2_day4,2022.2.4,Win32,59.93407252,,,,,,down,0,3.9657,,-0.37109375,-0.041992188,1,0,0,0,148,148,106,1,zingen,images/br_zingen.png,images/cb_zingen.png,1,zingen,,,,,,,,,,,,,,,,,,,,,
,,,,,00070,2023-10-19_21h44.21.561,vbt_B2_day4,2022.2.4,Win32,59.93407252,,,,,,down,0,46.2783,,0.24609375,-0.10546875,1,0,0,0,149,149,6,1,diep,images/br_diep.png,images/cb_diep.png,0,,,,,,,,,,,,,,,,,,,,,,
,,,,,00070,2023-10-19_21h44.21.561,vbt_B2_day4,2022.2.4,Win32,59.93407252,,,,,,down,0,0.1932,,0.276367188,-0.154296875,1,0,0,0,150,150,81,1,dubbel,images/br_dubbel.png,images/cb_dubbel.png,0,,,,,,,,,,,,,,,,,,,,,,
,,,,,00070,2023-10-19_21h44.21.561,vbt_B2_day4,2022.2.4,Win32,59.93407252,,,,,,down,0,0.9933,,0.27734375,-0.16015625,1,0,0,0,151,151,165,1,feestdag,images/br_feestdag.png,images/cb_feestdag.png,0,,,,,,,,,,,,,,,,,,,,,,
,,,,,00070,2023-10-19_21h44.21.561,vbt_B2_day4,2022.2.4,Win32,59.93407252,,,,,,down,0,0.4017,,0.408203125,0.147460938,1,0,0,0,152,152,61,1,groen,images/br_groen.png,images/cb_groen.png,0,,,,,,,,,,,,,,,,,,,,,,
,,,,,00070,2023-10-19_21h44.21.561,vbt_B2_day4,2022.2.4,Win32,59.93407252,,,,,,down,0,4.6486,,0.3984375,0.130859375,1,0,0,0,153,153,65,1,parel,images/br_parel.png,images/cb_parel.png,1,parel,,,,,,,,,,,,,,,,,,,,,
,,,,,00070,2023-10-19_21h44.21.561,vbt_B2_day4,2022.2.4,Win32,59.93407252,,,,,,down,0,0.268,,0.3984375,0.130859375,1,0,0,0,154,154,80,1,kanjer,images/br_kanjer.png,images/cb_kanjer.png,0,,,,,,,,,,,,,,,,,,,,,,
,,,,,00070,2023-10-19_21h44.21.561,vbt_B2_day4,2022.2.4,Win32,59.93407252,,,,,,down,0,23.7722,,0.3984375,0.130859375,1,0,0,0,155,155,123,1,hiervan,images/br_hiervan.png,images/cb_hiervan.png,0,,,,,,,,,,,,,,,,,,,,,,
,,,,,00070,2023-10-19_21h44.21.561,vbt_B2_day4,2022.2.4,Win32,59.93407252,,,,,,down,0,5.8448,,0.397460938,0.127929688,1,0,0,0,156,156,107,1,maling,images/br_maling.png,images/cb_maling.png,1,maling,,,,,,,,,,,,,,,,,,,,,
,,,,,00070,2023-10-19_21h44.21.561,vbt_B2_day4,2022.2.4,Win32,59.93407252,,,,,,down,0,0.2192,,0.329101563,0.151367188,1,0,0,0,157,157,119,1,liefje,images/br_liefje.png,images/cb_liefje.png,0,,,,,,,,,,,,,,,,,,,,,,
,,,,,00070,2023-10-19_21h44.21.561,vbt_B2_day4,2022.2.4,Win32,59.93407252,,,,,,down,0,0.6418,,0.329101563,0.151367188,1,0,0,0,158,158,126,1,kasteel,images/br_kasteel.png,images/cb_kasteel.png,0,,,,,,,,,,,,,,,,,,,,,,
,,,,,00070,2023-10-19_21h44.21.561,vbt_B2_day4,2022.2.4,Win32,59.93407252,,,,,,down,0,8.4695,,0.329101563,0.151367188,1,0,0,0,159,159,186,1,voorraad,images/br_voorraad.png,images/cb_voorraad.png,1,voorraad,,,,,,,,,,,,,,,,,,,,,
,,,,,00070,2023-10-19_21h44.21.561,vbt_B2_day4,2022.2.4,Win32,59.93407252,,,,,,down,0,0.2296,,0.263671875,0.048828125,1,0,0,0,160,160,154,1,aflopen,images/br_aflopen.png,images/cb_aflopen.png,0,,,,,,,,,,,,,,,,,,,,,,
,,,,,00070,2023-10-19_21h44.21.561,vbt_B2_day4,2022.2.4,Win32,59.93407252,,,,,,down,0,0.2682,,0.263671875,0.048828125,1,0,0,0,161,161,76,1,afval,images/br_afval.png,images/cb_afval.png,0,,,,,,,,,,,,,,,,,,,,,,
,,,,,00070,2023-10-19_21h44.21.561,vbt_B2_day4,2022.2.4,Win32,59.93407252,,,,,,down,0,0.467,,0.254882813,0.040039063,1,0,0,0,162,162,188,1,strekken,images/br_strekken.png,images/cb_strekken.png,0,,,,,,,,,,,,,,,,,,,,,,
,,,,,00070,2023-10-19_21h44.21.561,vbt_B2_day4,2022.2.4,Win32,59.93407252,,,,,,down,0,0.3554,,0.25390625,0.040039063,1,0,0,0,163,163,56,1,traag,images/br_traag.png,images/cb_traag.png,0,,,,,,,,,,,,,,,,,,,,,,
,,,,,00070,2023-10-19_21h44.21.561,vbt_B2_day4,2022.2.4,Win32,59.93407252,,,,,,down,0,8.8008,,0.23046875,0.064453125,1,0,0,0,164,164,105,1,wijlen,images/br_wijlen.png,images/cb_wijlen.png,1,wijlen,,,,,,,,,,,,,,,,,,,,,
,,,,,00070,2023-10-19_21h44.21.561,vbt_B2_day4,2022.2.4,Win32,59.93407252,,,,,,down,0,2.1136,,0.2265625,0.061523438,1,0,0,0,165,165,111,1,ticket,images/br_ticket.png,images/cb_ticket.png,0,,,,,,,,,,,,,,,,,,,,,,
,,,,,00070,2023-10-19_21h44.21.561,vbt_B2_day4,2022.2.4,Win32,59.93407252,,,,,,down,0,0.2564,,0.2265625,0.061523438,1,0,0,0,166,166,52,1,wagon,images/br_wagon.png,images/cb_wagon.png,0,,,,,,,,,,,,,,,,,,,,,,
,,,,,00070,2023-10-19_21h44.21.561,vbt_B2_day4,2022.2.4,Win32,59.93407252,,,,,,down,0,1.9916,,0.2265625,0.073242188,1,0,0,0,167,167,112,1,lukken,images/br_lukken.png,images/cb_lukken.png,0,,,,,,,,,,,,,,,,,,,,,,
,,,,,00070,2023-10-19_21h44.21.561,vbt_B2_day4,2022.2.4,Win32,59.93407252,,,,,,down,0,0.6064,,0.229492188,0.073242188,1,0,0,0,168,168,5,1,blad,images/br_blad.png,images/cb_blad.png,0,,,,,,,,,,,,,,,,,,,,,,
,,,,,00070,2023-10-19_21h44.21.561,vbt_B2_day4,2022.2.4,Win32,59.93407252,,,,,,down,0,0.4138,,0.229492188,0.073242188,1,0,0,0,169,169,143,1,hechten,images/br_hechten.png,images/cb_hechten.png,0,,,,,,,,,,,,,,,,,,,,,,
,,,,,00070,2023-10-19_21h44.21.561,vbt_B2_day4,2022.2.4,Win32,59.93407252,,,,,,down,0,0.7515,,0.25,0.078125,1,0,0,0,170,170,137,1,trekker,images/br_trekker.png,images/cb_trekker.png,0,,,,,,,,,,,,,,,,,,,,,,
,,,,,00070,2023-10-19_21h44.21.561,vbt_B2_day4,2022.2.4,Win32,59.93407252,,,,,,down,0,0.3573,,0.256835938,0.100585938,1,0,0,0,171,171,69,1,waken,images/br_waken.png,images/cb_waken.png,0,,,,,,,,,,,,,,,,,,,,,,
,,,,,00070,2023-10-19_21h44.21.561,vbt_B2_day4,2022.2.4,Win32,59.93407252,,,,,,down,0,4.3426,,0.256835938,0.100585938,1,0,0,0,172,172,88,1,boeien,images/br_boeien.png,images/cb_boeien.png,0,,,,,,,,,,,,,,,,,,,,,,
,,,,,00070,2023-10-19_21h44.21.561,vbt_B2_day4,2022.2.4,Win32,59.93407252,,,,,,down,0,0.7346,,0.256835938,0.100585938,1,0,0,0,173,173,86,1,woning,images/br_woning.png,images/cb_woning.png,0,,,,,,,,,,,,,,,,,,,,,,
,,,,,00070,2023-10-19_21h44.21.561,vbt_B2_day4,2022.2.4,Win32,59.93407252,,,,,,down,0,0.1015,,0.256835938,0.100585938,1,0,0,0,174,174,39,1,laag,images/br_laag.png,images/cb_laag.png,0,,,,,,,,,,,,,,,,,,,,,,
,,,,,00070,2023-10-19_21h44.21.561,vbt_B2_day4,2022.2.4,Win32,59.93407252,,,,,,down,0,0.456,,0.256835938,0.100585938,1,0,0,0,175,175,139,1,stiekem,images/br_stiekem.png,images/cb_stiekem.png,0,,,,,,,,,,,,,,,,,,,,,,
,,,,,00070,2023-10-19_21h44.21.561,vbt_B2_day4,2022.2.4,Win32,59.93407252,,,,,,down,0,0.7759,,0.256835938,0.100585938,1,0,0,0,176,176,38,1,baai,images/br_baai.png,images/cb_baai.png,0,,,,,,,,,,,,,,,,,,,,,,
,,,,,00070,2023-10-19_21h44.21.561,vbt_B2_day4,2022.2.4,Win32,59.93407252,,,,,,down,0,1.3012,,0.256835938,0.100585938,1,0,0,0,177,177,30,1,uien,images/br_uien.png,images/cb_uien.png,0,,,,,,,,,,,,,,,,,,,,,,
,,,,,00070,2023-10-19_21h44.21.561,vbt_B2_day4,2022.2.4,Win32,59.93407252,,,,,,down,0,1.4451,,0.256835938,0.100585938,1,0,0,0,178,178,198,1,bedoelen,images/br_bedoelen.png,images/cb_bedoelen.png,0,,,,,,,,,,,,,,,,,,,,,,
,,,,,00070,2023-10-19_21h44.21.561,vbt_B2_day4,2022.2.4,Win32,59.93407252,,,,,,down,0,0.4843,,0.256835938,0.100585938,1,0,0,0,179,179,53,1,baron,images/br_baron.png,images/cb_baron.png,0,,,,,,,,,,,,,,,,,,,,,,
,,,,,00070,2023-10-19_21h44.21.561,vbt_B2_day4,2022.2.4,Win32,59.93407252,,,,,,down,0,0.3034,,0.256835938,0.100585938,1,0,0,0,180,180,85,1,heilig,images/br_heilig.png,images/cb_heilig.png,0,,,,,,,,,,,,,,,,,,,,,,
,,,,,00070,2023-10-19_21h44.21.561,vbt_B2_day4,2022.2.4,Win32,59.93407252,,,,,,down,0,0.2447,,0.256835938,0.100585938,1,0,0,0,181,181,151,1,aanzoek,images/br_aanzoek.png,images/cb_aanzoek.png,0,,,,,,,,,,,,,,,,,,,,,,
,,,,,00070,2023-10-19_21h44.21.561,vbt_B2_day4,2022.2.4,Win32,59.93407252,,,,,,down,0,11.9017,,0.47265625,-0.129882813,1,0,0,0,182,182,144,1,eetlust,images/br_eetlust.png,images/cb_eetlust.png,1,eetlust,,,,,,,,,,,,,,,,,,,,,
,,,,,00070,2023-10-19_21h44.21.561,vbt_B2_day4,2022.2.4,Win32,59.93407252,,,,,,down,0,8.0779,,0.466796875,-0.1328125,1,0,0,0,183,183,37,1,mijn,images/br_mijn.png,images/cb_mijn.png,0,,,,,,,,,,,,,,,,,,,,,,
,,,,,00070,2023-10-19_21h44.21.561,vbt_B2_day4,2022.2.4,Win32,59.93407252,,,,,,down,0,0.5672,,0.466796875,-0.1328125,1,0,0,0,184,184,156,1,rechten,images/br_rechten.png,images/cb_rechten.png,0,,,,,,,,,,,,,,,,,,,,,,
,,,,,00070,2023-10-19_21h44.21.561,vbt_B2_day4,2022.2.4,Win32,59.93407252,,,,,,down,0,3.8904,,0.463867188,-0.1328125,1,0,0,0,185,185,17,1,taal,images/br_taal.png,images/cb_taal.png,0,,,,,,,,,,,,,,,,,,,,,,
,,,,,00070,2023-10-19_21h44.21.561,vbt_B2_day4,2022.2.4,Win32,59.93407252,,,,,,down,0,13.0762,,0.463867188,-0.1328125,1,0,0,0,186,186,120,1,klimmen,images/br_klimmen.png,images/cb_klimmen.png,0,,,,,,,,,,,,,,,,,,,,,,
,,,,,00070,2023-10-19_21h44.21.561,vbt_B2_day4,2022.2.4,Win32,59.93407252,,,,,,down,0,0.447,,0.463867188,-0.1328125,1,0,0,0,187,187,78,1,leren,images/br_leren.png,images/cb_leren.png,0,,,,,,,,,,,,,,,,,,,,,,
,,,,,00070,2023-10-19_21h44.21.561,vbt_B2_day4,2022.2.4,Win32,59.93407252,,,,,,down,0,1.7987,,-0.095703125,0.018554688,1,0,0,0,188,188,163,1,schuilen,images/br_schuilen.png,images/cb_schuilen.png,0,,,,,,,,,,,,,,,,,,,,,,
,,,,,00070,2023-10-19_21h44.21.561,vbt_B2_day4,2022.2.4,Win32,59.93407252,,,,,,down,0,0.566,,-0.095703125,0.018554688,1,0,0,0,189,189,45,1,piste,images/br_piste.png,images/cb_piste.png,0,,,,,,,,,,,,,,,,,,,,,,
,,,,,00070,2023-10-19_21h44.21.561,vbt_B2_day4,2022.2.4,Win32,59.93407252,,,,,,down,0,0.4306,,-0.095703125,0.018554688,1,0,0,0,190,190,113,1,koppen,images/br_koppen.png,images/cb_koppen.png,0,,,,,,,,,,,,,,,,,,,,,,
,,,,,00070,2023-10-19_21h44.21.561,vbt_B2_day4,2022.2.4,Win32,59.93407252,,,,,,down,0,0.7536,,-0.095703125,0.018554688,1,0,0,0,191,191,13,1,kaal,images/br_kaal.png,images/cb_kaal.png,0,,,,,,,,,,,,,,,,,,,,,,
,,,,,00070,2023-10-19_21h44.21.561,vbt_B2_day4,2022.2.4,Win32,59.93407252,,,,,,down,0,0.4858,,-0.095703125,0.018554688,1,0,0,0,192,192,59,1,kring,images/br_kring.png,images/cb_kring.png,0,,,,,,,,,,,,,,,,,,,,,,
,,,,,00070,2023-10-19_21h44.21.561,vbt_B2_day4,2022.2.4,Win32,59.93407252,,,,,,down,0,1.5599,,-0.095703125,0.018554688,1,0,0,0,193,193,73,1,volop,images/br_volop.png,images/cb_volop.png,0,,,,,,,,,,,,,,,,,,,,,,
,,,,,00070,2023-10-19_21h44.21.561,vbt_B2_day4,2022.2.4,Win32,59.93407252,,,,,,down,0,1.1966,,-0.095703125,0.018554688,1,0,0,0,194,194,0,1,slak,images/br_slak.png,images/cb_slak.png,0,,,,,,,,,,,,,,,,,,,,,,
,,,,,00070,2023-10-19_21h44.21.561,vbt_B2_day4,2022.2.4,Win32,59.93407252,,,,,,down,0,10.2063,,-0.096679688,0.018554688,1,0,0,0,195,195,66,1,lever,images/br_lever.png,images/cb_lever.png,1,lever,,,,,,,,,,,,,,,,,,,,,
,,,,,00070,2023-10-19_21h44.21.561,vbt_B2_day4,2022.2.4,Win32,59.93407252,,,,,,down,0,0.6729,,-0.096679688,0.018554688,1,0,0,0,196,196,95,1,vreten,images/br_vreten.png,images/cb_vreten.png,0,,,,,,,,,,,,,,,,,,,,,,
,,,,,00070,2023-10-19_21h44.21.561,vbt_B2_day4,2022.2.4,Win32,59.93407252,,,,,,down,0,0.1552,,-0.096679688,0.017578125,1,0,0,0,197,197,11,1,mode,images/br_mode.png,images/cb_mode.png,0,,,,,,,,,,,,,,,,,,,,,,
,,,,,00070,2023-10-19_21h44.21.561,vbt_B2_day4,2022.2.4,Win32,59.93407252,,,,,,down,0,0.359,,-0.096679688,0.017578125,1,0,0,0,198,198,175,1,heengaan,images/br_heengaan.png,images/cb_heengaan.png,0,,,,,,,,,,,,,,,,,,,,,,
,,,,,00070,2023-10-19_21h44.21.561,vbt_B2_day4,2022.2.4,Win32,59.93407252,,,,,,down,0,1.2558,,-0.096679688,0.017578125,1,0,0,0,199,199,176,1,techniek,images/br_techniek.png,images/cb_techniek.png,0,,,,,,,,,,,,,,,,,,,,,,
,,,,,00070,2023-10-19_21h44.21.561,vbt_B2_day4,2022.2.4,Win32,59.93407252,,,,,,,,,,,,,,,,,,,,,,,,,-0.096679688,0.017578125,1,0,0,,,,,,,,,,,,,,,,
,,,,,00070,2023-10-19_21h44.21.561,vbt_B2_day4,2022.2.4,Win32,59.93407252,,,,,,,,,,,,,,,,,,,,,,,,,,,,,,0.05859375,-0.099609375,1,0,0,,,,,,,,,,,
,,,,,00070,2023-10-19_21h44.21.561,vbt_B2_day4,2022.2.4,Win32,59.93407252,,,,,,,,,,,,,,,,,,,,praat,images/br_praat.png,images/cb_praat.png,,praat,,,,,,,,,,,0.05859375,-0.099609375,1,0,0,praat,0,0,0,7,1
,,,,,00070,2023-10-19_21h44.21.561,vbt_B2_day4,2022.2.4,Win32,59.93407252,,,,,,,,,,,,,,,,,,,,gaaf,images/br_gaaf.png,images/cb_gaaf.png,,gaaf,,,,,,,,,,,0.383789063,-0.165039063,1,0,0,gaaf,0,1,1,43,1
,,,,,00070,2023-10-19_21h44.21.561,vbt_B2_day4,2022.2.4,Win32,59.93407252,,,,,,,,,,,,,,,,,,,,kaal,images/br_kaal.png,images/cb_kaal.png,,kaal,,,,,,,,,,,0.383789063,-0.165039063,1,0,0,kaal,0,2,2,1,1
,,,,,00070,2023-10-19_21h44.21.561,vbt_B2_day4,2022.2.4,Win32,59.93407252,,,,,,,,,,,,,,,,,,,,gebog,images/br_gebog.png,images/cb_gebog.png,,gebog,,,,,,,,,,,0.375,-0.153320313,1,0,0,gebog,0,3,3,24,1
,,,,,00070,2023-10-19_21h44.21.561,vbt_B2_day4,2022.2.4,Win32,59.93407252,,,,,,,,,,,,,,,,,,,,gijf,images/br_gijf.png,images/cb_gijf.png,,gijf,,,,,,,,,,,0.375,-0.153320313,1,0,0,gijf,0,4,4,23,1
,,,,,00070,2023-10-19_21h44.21.561,vbt_B2_day4,2022.2.4,Win32,59.93407252,,,,,,,,,,,,,,,,,,,,snee,images/br_snee.png,images/cb_snee.png,,snee,,,,,,,,,,,0.375,-0.153320313,1,0,0,snee,0,5,5,40,1
,,,,,00070,2023-10-19_21h44.21.561,vbt_B2_day4,2022.2.4,Win32,59.93407252,,,,,,,,,,,,,,,,,,,,rijp,images/br_rijp.png,images/cb_rijp.png,,rijk,,,,,,,,,,,0.375,-0.153320313,1,0,0,rijk,0,6,6,2,1
,,,,,00070,2023-10-19_21h44.21.561,vbt_B2_day4,2022.2.4,Win32,59.93407252,,,,,,,,,,,,,,,,,,,,pittig,images/br_pittig.png,images/cb_pittig.png,,pitt..,,,,,,,,,,,0.375,-0.153320313,1,0,0,pitt..,0,7,7,51,1
,,,,,00070,2023-10-19_21h44.21.561,vbt_B2_day4,2022.2.4,Win32,59.93407252,,,,,,,,,,,,,,,,,,,,grappen,images/br_grappen.png,images/cb_grappen.png,,graffen,,,,,,,,,,,0.375,-0.153320313,1,0,0,graffen,0,8,8,12,1
,,,,,00070,2023-10-19_21h44.21.561,vbt_B2_day4,2022.2.4,Win32,59.93407252,,,,,,,,,,,,,,,,,,,,midden,images/br_midden.png,images/cb_midden.png,,midden,,,,,,,,,,,0.309570313,-0.184570313,1,0,0,midden,0,9,9,50,1
,,,,,00070,2023-10-19_21h44.21.561,vbt_B2_day4,2022.2.4,Win32,59.93407252,,,,,,,,,,,,,,,,,,,,bisschap,images/br_bisschap.png,images/cb_bisschap.png,,bisschop,,,,,,,,,,,0.548828125,-0.255859375,1,0,0,bisschop,0,10,10,36,1
,,,,,00070,2023-10-19_21h44.21.561,vbt_B2_day4,2022.2.4,Win32,59.93407252,,,,,,,,,,,,,,,,,,,,eerst,images/br_eerst.png,images/cb_eerst.png,,eerst,,,,,,,,,,,0.548828125,-0.255859375,1,0,0,eerst,0,11,11,47,1
,,,,,00070,2023-10-19_21h44.21.561,vbt_B2_day4,2022.2.4,Win32,59.93407252,,,,,,,,,,,,,,,,,,,,warel,images/br_warel.png,images/cb_warel.png,,karel,,,,,,,,,,,0.548828125,-0.255859375,1,0,0,karel,0,12,12,26,1
,,,,,00070,2023-10-19_21h44.21.561,vbt_B2_day4,2022.2.4,Win32,59.93407252,,,,,,,,,,,,,,,,,,,,gaan,images/br_gaan.png,images/cb_gaan.png,,gaan,,,,,,,,,,,0.548828125,-0.255859375,1,0,0,gaan,0,13,13,41,1
,,,,,00070,2023-10-19_21h44.21.561,vbt_B2_day4,2022.2.4,Win32,59.93407252,,,,,,,,,,,,,,,,,,,,seizoon,images/br_seizoon.png,images/cb_seizoon.png,,seizoon,,,,,,,,,,,0.548828125,-0.255859375,1,0,0,seizoon,0,14,14,33,1
,,,,,00070,2023-10-19_21h44.21.561,vbt_B2_day4,2022.2.4,Win32,59.93407252,,,,,,,,,,,,,,,,,,,,zwek,images/br_zwek.png,images/cb_zwek.png,,............,,,,,,,,,,,0.548828125,-0.255859375,1,0,0,............,0,15,15,20,1
,,,,,00070,2023-10-19_21h44.21.561,vbt_B2_day4,2022.2.4,Win32,59.93407252,,,,,,,,,,,,,,,,,,,,pijnlijk,images/br_pijnlijk.png,images/cb_pijnlijk.png,,pij....,,,,,,,,,,,0.547851563,-0.260742188,1,0,0,pij....,0,16,16,58,1
,,,,,00070,2023-10-19_21h44.21.561,vbt_B2_day4,2022.2.4,Win32,59.93407252,,,,,,,,,,,,,,,,,,,,getucht,images/br_getucht.png,images/cb_getucht.png,,getucen,,,,,,,,,,,0.547851563,-0.260742188,1,0,0,getucen,0,17,17,35,1
,,,,,00070,2023-10-19_21h44.21.561,vbt_B2_day4,2022.2.4,Win32,59.93407252,,,,,,,,,,,,,,,,,,,,aanzwaag,images/br_aanzwaag.png,images/cb_aanzwaag.png,,aanzetten,,,,,,,,,,,0.547851563,-0.260742188,1,0,0,aanzetten,0,18,18,38,1
,,,,,00070,2023-10-19_21h44.21.561,vbt_B2_day4,2022.2.4,Win32,59.93407252,,,,,,,,,,,,,,,,,,,,baron,images/br_baron.png,images/cb_baron.png,,baron,,,,,,,,,,,0.547851563,-0.260742188,1,0,0,baron,0,19,19,5,1
,,,,,00070,2023-10-19_21h44.21.561,vbt_B2_day4,2022.2.4,Win32,59.93407252,,,,,,,,,,,,,,,,,,,,strok,images/br_strok.png,images/cb_strok.png,,staok,,,,,,,,,,,0.547851563,-0.260742188,1,0,0,staok,0,20,20,25,1
,,,,,00070,2023-10-19_21h44.21.561,vbt_B2_day4,2022.2.4,Win32,59.93407252,,,,,,,,,,,,,,,,,,,,noodzaak,images/br_noodzaak.png,images/cb_noodzaak.png,,noodzaak,,,,,,,,,,,0.547851563,-0.260742188,1,0,0,noodzaak,0,21,21,56,1
,,,,,00070,2023-10-19_21h44.21.561,vbt_B2_day4,2022.2.4,Win32,59.93407252,,,,,,,,,,,,,,,,,,,,wozing,images/br_wozing.png,images/cb_wozing.png,,woning,,,,,,,,,,,0.537109375,0.00390625,1,0,0,woning,0,22,22,28,1
,,,,,00070,2023-10-19_21h44.21.561,vbt_B2_day4,2022.2.4,Win32,59.93407252,,,,,,,,,,,,,,,,,,,,toevol,images/br_toevol.png,images/cb_toevol.png,,toevol,,,,,,,,,,,0.608398438,0.059570313,1,0,0,toevol,0,23,23,29,1
,,,,,00070,2023-10-19_21h44.21.561,vbt_B2_day4,2022.2.4,Win32,59.93407252,,,,,,,,,,,,,,,,,,,,vreten,images/br_vreten.png,images/cb_vreten.png,,vaeten,,,,,,,,,,,0.599609375,0.075195313,1,0,0,vaeten,0,24,24,11,1
,,,,,00070,2023-10-19_21h44.21.561,vbt_B2_day4,2022.2.4,Win32,59.93407252,,,,,,,,,,,,,,,,,,,,lappen,images/br_lappen.png,images/cb_lappen.png,,lappen,,,,,,,,,,,0.599609375,0.075195313,1,0,0,lappen,0,25,25,49,1
,,,,,00070,2023-10-19_21h44.21.561,vbt_B2_day4,2022.2.4,Win32,59.93407252,,,,,,,,,,,,,,,,,,,,stemming,images/br_stemming.png,images/cb_stemming.png,,sti..........,,,,,,,,,,,0.599609375,0.075195313,1,0,0,sti..........,0,26,26,18,1
,,,,,00070,2023-10-19_21h44.21.561,vbt_B2_day4,2022.2.4,Win32,59.93407252,,,,,,,,,,,,,,,,,,,,zaalrijk,images/br_zaalrijk.png,images/cb_zaalrijk.png,,noolti....,,,,,,,,,,,0.599609375,0.075195313,1,0,0,noolti....,0,27,27,37,1
,,,,,00070,2023-10-19_21h44.21.561,vbt_B2_day4,2022.2.4,Win32,59.93407252,,,,,,,,,,,,,,,,,,,,seizoen,images/br_seizoen.png,images/cb_seizoen.png,,seino....,,,,,,,,,,,0.599609375,0.075195313,1,0,0,seino....,0,28,28,13,1
,,,,,00070,2023-10-19_21h44.21.561,vbt_B2_day4,2022.2.4,Win32,59.93407252,,,,,,,,,,,,,,,,,,,,waarop,images/br_waarop.png,images/cb_waarop.png,,waarom,,,,,,,,,,,0.599609375,0.075195313,1,0,0,waarom,0,29,29,9,1
,,,,,00070,2023-10-19_21h44.21.561,vbt_B2_day4,2022.2.4,Win32,59.93407252,,,,,,,,,,,,,,,,,,,,geheim,images/br_geheim.png,images/cb_geheim.png,,gehecht,,,,,,,,,,,0.579101563,0.090820313,1,0,0,gehecht,0,30,30,8,1
,,,,,00070,2023-10-19_21h44.21.561,vbt_B2_day4,2022.2.4,Win32,59.93407252,,,,,,,,,,,,,,,,,,,,weigeren,images/br_weigeren.png,images/cb_weigeren.png,,weigeren,,,,,,,,,,,0.579101563,0.090820313,1,0,0,weigeren,0,31,31,16,1
,,,,,00070,2023-10-19_21h44.21.561,vbt_B2_day4,2022.2.4,Win32,59.93407252,,,,,,,,,,,,,,,,,,,,paalbaak,images/br_paalbaak.png,images/cb_paalbaak.png,,paalbaak,,,,,,,,,,,0.623046875,0.1796875,1,0,0,paalbaak,0,32,32,39,1
,,,,,00070,2023-10-19_21h44.21.561,vbt_B2_day4,2022.2.4,Win32,59.93407252,,,,,,,,,,,,,,,,,,,,kust,images/br_kust.png,images/cb_kust.png,,kust,,,,,,,,,,,0.624023438,0.21875,1,0,0,kust,0,33,33,0,1
,,,,,00070,2023-10-19_21h44.21.561,vbt_B2_day4,2022.2.4,Win32,59.93407252,,,,,,,,,,,,,,,,,,,,dalen,images/br_dalen.png,images/cb_dalen.png,,dalen,,,,,,,,,,,0.624023438,0.217773438,1,0,0,dalen,0,34,34,46,1
,,,,,00070,2023-10-19_21h44.21.561,vbt_B2_day4,2022.2.4,Win32,59.93407252,,,,,,,,,,,,,,,,,,,,haza,images/br_haza.png,images/cb_haza.png,,hana,,,,,,,,,,,0.624023438,0.217773438,1,0,0,hana,0,35,35,21,1
,,,,,00070,2023-10-19_21h44.21.561,vbt_B2_day4,2022.2.4,Win32,59.93407252,,,,,,,,,,,,,,,,,,,,flippen,images/br_flippen.png,images/cb_flippen.png,,fliqqen,,,,,,,,,,,0.624023438,0.315429688,1,0,0,fliqqen,0,36,36,54,1
,,,,,00070,2023-10-19_21h44.21.561,vbt_B2_day4,2022.2.4,Win32,59.93407252,,,,,,,,,,,,,,,,,,,,steen,images/br_steen.png,images/cb_steen.png,,steen,,,,,,,,,,,0.624023438,0.381835938,1,0,0,steen,0,37,37,44,1
,,,,,00070,2023-10-19_21h44.21.561,vbt_B2_day4,2022.2.4,Win32,59.93407252,,,,,,,,,,,,,,,,,,,,oceaan,images/br_oceaan.png,images/cb_oceaan.png,,oceaan,,,,,,,,,,,0.624023438,0.271484375,1,0,0,oceaan,0,38,38,10,1
,,,,,00070,2023-10-19_21h44.21.561,vbt_B2_day4,2022.2.4,Win32,59.93407252,,,,,,,,,,,,,,,,,,,,tucket,images/br_tucket.png,images/cb_tucket.png,,tucket,,,,,,,,,,,0.624023438,0.311523438,1,0,0,tucket,0,39,39,30,1
,,,,,00070,2023-10-19_21h44.21.561,vbt_B2_day4,2022.2.4,Win32,59.93407252,,,,,,,,,,,,,,,,,,,,schotel,images/br_schotel.png,images/cb_schotel.png,,schotel,,,,,,,,,,,0.624023438,0.463867188,1,0,0,schotel,0,40,40,52,1
,,,,,00070,2023-10-19_21h44.21.561,vbt_B2_day4,2022.2.4,Win32,59.93407252,,,,,,,,,,,,,,,,,,,,ezel,images/br_ezel.png,images/cb_ezel.png,,ezel,,,,,,,,,,,0.270507813,0.06640625,1,0,0,ezel,0,41,41,42,1
,,,,,00070,2023-10-19_21h44.21.561,vbt_B2_day4,2022.2.4,Win32,59.93407252,,,,,,,,,,,,,,,,,,,,broodje,images/br_broodje.png,images/cb_broodje.png,,brood,,,,,,,,,,,0.591796875,0.098632813,1,0,0,brood,0,42,42,55,1
,,,,,00070,2023-10-19_21h44.21.561,vbt_B2_day4,2022.2.4,Win32,59.93407252,,,,,,,,,,,,,,,,,,,,sulbon,images/br_sulbon.png,images/cb_sulbon.png,,sulboo,,,,,,,,,,,0.591796875,0.098632813,1,0,0,sulboo,0,43,43,31,1
,,,,,00070,2023-10-19_21h44.21.561,vbt_B2_day4,2022.2.4,Win32,59.93407252,,,,,,,,,,,,,,,,,,,,wagon,images/br_wagon.png,images/cb_wagon.png,,wagon,,,,,,,,,,,0.591796875,0.098632813,1,0,0,wagon,0,44,44,4,1
,,,,,00070,2023-10-19_21h44.21.561,vbt_B2_day4,2022.2.4,Win32,59.93407252,,,,,,,,,,,,,,,,,,,,gedicht,images/br_gedicht.png,images/cb_gedicht.png,,gedenk,,,,,,,,,,,0.591796875,0.098632813,1,0,0,gedenk,0,45,45,15,1
,,,,,00070,2023-10-19_21h44.21.561,vbt_B2_day4,2022.2.4,Win32,59.93407252,,,,,,,,,,,,,,,,,,,,heengaan,images/br_heengaan.png,images/cb_heengaan.png,,hee......,,,,,,,,,,,0.573242188,0.100585938,1,0,0,hee......,0,46,46,19,1
,,,,,00070,2023-10-19_21h44.21.561,vbt_B2_day4,2022.2.4,Win32,59.93407252,,,,,,,,,,,,,,,,,,,,drooien,images/br_drooien.png,images/cb_drooien.png,,drooien,,,,,,,,,,,0.573242188,0.100585938,1,0,0,drooien,0,47,47,32,1
,,,,,00070,2023-10-19_21h44.21.561,vbt_B2_day4,2022.2.4,Win32,59.93407252,,,,,,,,,,,,,,,,,,,,dozijn,images/br_dozijn.png,images/cb_dozijn.png,,doni...,,,,,,,,,,,0.573242188,0.100585938,1,0,0,doni...,0,48,48,48,1
,,,,,00070,2023-10-19_21h44.21.561,vbt_B2_day4,2022.2.4,Win32,59.93407252,,,,,,,,,,,,,,,,,,,,drummer,images/br_drummer.png,images/cb_drummer.png,,daumm,,,,,,,,,,,0.573242188,0.100585938,1,0,0,daumm,0,49,49,53,1
,,,,,00070,2023-10-19_21h44.21.561,vbt_B2_day4,2022.2.4,Win32,59.93407252,,,,,,,,,,,,,,,,,,,,fran,images/br_fran.png,images/cb_fran.png,,far,,,,,,,,,,,0.573242188,0.100585938,1,0,0,far,0,50,50,22,1
,,,,,00070,2023-10-19_21h44.21.561,vbt_B2_day4,2022.2.4,Win32,59.93407252,,,,,,,,,,,,,,,,,,,,opkicht,images/br_opkicht.png,images/cb_opkicht.png,,opkies,,,,,,,,,,,0.573242188,0.100585938,1,0,0,opkies,0,51,51,34,1
,,,,,00070,2023-10-19_21h44.21.561,vbt_B2_day4,2022.2.4,Win32,59.93407252,,,,,,,,,,,,,,,,,,,,schenden,images/br_schenden.png,images/cb_schenden.png,,schenen,,,,,,,,,,,0.573242188,0.100585938,1,0,0,schenen,0,52,52,57,1
,,,,,00070,2023-10-19_21h44.21.561,vbt_B2_day4,2022.2.4,Win32,59.93407252,,,,,,,,,,,,,,,,,,,,opruimen,images/br_opruimen.png,images/cb_opruimen.png,,opau....,,,,,,,,,,,0.573242188,0.100585938,1,0,0,opau....,0,53,53,59,1
,,,,,00070,2023-10-19_21h44.21.561,vbt_B2_day4,2022.2.4,Win32,59.93407252,,,,,,,,,,,,,,,,,,,,geliefd,images/br_geliefd.png,images/cb_geliefd.png,,gelijk,,,,,,,,,,,0.573242188,0.100585938,1,0,0,gelijk,0,54,54,14,1
,,,,,00070,2023-10-19_21h44.21.561,vbt_B2_day4,2022.2.4,Win32,59.93407252,,,,,,,,,,,,,,,,,,,,bruin,images/br_bruin.png,images/cb_bruin.png,,bauin,,,,,,,,,,,0.573242188,0.100585938,1,0,0,bauin,0,55,55,45,1
,,,,,00070,2023-10-19_21h44.21.561,vbt_B2_day4,2022.2.4,Win32,59.93407252,,,,,,,,,,,,,,,,,,,,mekst,images/br_mekst.png,images/cb_mekst.png,,meket,,,,,,,,,,,0.624023438,0.060546875,1,0,0,meket,0,56,56,27,1
,,,,,00070,2023-10-19_21h44.21.561,vbt_B2_day4,2022.2.4,Win32,59.93407252,,,,,,,,,,,,,,,,,,,,gebit,images/br_gebit.png,images/cb_gebit.png,,gebit,,,,,,,,,,,0.624023438,0.060546875,1,0,0,gebit,0,57,57,6,1
,,,,,00070,2023-10-19_21h44.21.561,vbt_B2_day4,2022.2.4,Win32,59.93407252,,,,,,,,,,,,,,,,,,,,soda,images/br_soda.png,images/cb_soda.png,,sofa,,,,,,,,,,,0.624023438,0.048828125,1,0,0,sofa,0,58,58,3,1
,,,,,00070,2023-10-19_21h44.21.561,vbt_B2_day4,2022.2.4,Win32,59.93407252,,,,,,,,,,,,,,,,,,,,apparaat,images/br_apparaat.png,images/cb_apparaat.png,,appartheid,,,,,,,,,,,0.248046875,-0.270507813,1,0,0,appartheid,0,59,59,17,1
,,,,,00070,2023-10-19_21h44.21.561,vbt_B2_day4,2022.2.4,Win32,59.93407252,,,,,,,,,,,,,,,,,,,,,,,,,,,,,,,,,,,,,,,,,,,,,
