welcome_mouse.x,welcome_mouse.y,welcome_mouse.leftButton,welcome_mouse.midButton,welcome_mouse.rightButton,"ID",date,expName,psychopyVersion,OS,frameRate,trainInstr_mouse.x,trainInstr_mouse.y,trainInstr_mouse.leftButton,trainInstr_mouse.midButton,trainInstr_mouse.rightButton,translation_key.keys,translation_key.corr,translation_key.rt,word_rsp.text,trWrd_mouse.x,trWrd_mouse.y,trWrd_mouse.leftButton,trWrd_mouse.midButton,trWrd_mouse.rightButton,train_loop.thisRepN,train_loop.thisTrialN,train_loop.thisN,train_loop.thisIndex,train_loop.ran,nlWrd,brWrd,cbWrd,test,testResp,mouse.x,mouse.y,mouse.leftButton,mouse.midButton,mouse.rightButton,testInstr_mouse.x,testInstr_mouse.y,testInstr_mouse.leftButton,testInstr_mouse.midButton,testInstr_mouse.rightButton,test_mouse.x,test_mouse.y,test_mouse.leftButton,test_mouse.midButton,test_mouse.rightButton,test_response.text,test_loop.thisRepN,test_loop.thisTrialN,test_loop.thisN,test_loop.thisIndex,test_loop.ran
-0.155555556,-0.252222222,1,0,0,00071,2023-10-16_16h05.44.389,vbt_B2_day4,2022.2.4,MacIntel,58.82352941,,,,,,,,,,,,,,,,,,,,,,,,,,,,,,,,,,,,,,,,,,,,,
,,,,,00071,2023-10-16_16h05.44.389,vbt_B2_day4,2022.2.4,MacIntel,58.82352941,-0.154444444,-0.253333333,1,0,0,,,,,,,,,,,,,,,,,,,,,,,,,,,,,,,,,,,,,,,,
,,,,,00071,2023-10-16_16h05.44.389,vbt_B2_day4,2022.2.4,MacIntel,58.82352941,,,,,,down,0,3.436,,-0.155555556,-0.254444444,1,0,0,0,0,0,82,1,muziek,images/br_muziek.png,images/cb_muziek.png,0,,,,,,,,,,,,,,,,,,,,,,
,,,,,00071,2023-10-16_16h05.44.389,vbt_B2_day4,2022.2.4,MacIntel,58.82352941,,,,,,down,0,5.476,,-0.155555556,-0.254444444,1,0,0,0,1,1,143,1,hechten,images/br_hechten.png,images/cb_hechten.png,0,,,,,,,,,,,,,,,,,,,,,,
,,,,,00071,2023-10-16_16h05.44.389,vbt_B2_day4,2022.2.4,MacIntel,58.82352941,,,,,,down,0,3.983,,-0.155555556,-0.254444444,1,0,0,0,2,2,117,1,kennis,images/br_kennis.png,images/cb_kennis.png,0,,,,,,,,,,,,,,,,,,,,,,
,,,,,00071,2023-10-16_16h05.44.389,vbt_B2_day4,2022.2.4,MacIntel,58.82352941,,,,,,down,0,1.838,,-0.155555556,-0.254444444,1,0,0,0,3,3,126,1,kasteel,images/br_kasteel.png,images/cb_kasteel.png,0,,,,,,,,,,,,,,,,,,,,,,
,,,,,00071,2023-10-16_16h05.44.389,vbt_B2_day4,2022.2.4,MacIntel,58.82352941,,,,,,down,0,7.809,,-0.155555556,-0.254444444,1,0,0,0,4,4,105,1,wijlen,images/br_wijlen.png,images/cb_wijlen.png,1,wijlen,,,,,,,,,,,,,,,,,,,,,
,,,,,00071,2023-10-16_16h05.44.389,vbt_B2_day4,2022.2.4,MacIntel,58.82352941,,,,,,down,0,0.359,,-0.155555556,-0.254444444,1,0,0,0,5,5,8,1,knie,images/br_knie.png,images/cb_knie.png,0,,,,,,,,,,,,,,,,,,,,,,
,,,,,00071,2023-10-16_16h05.44.389,vbt_B2_day4,2022.2.4,MacIntel,58.82352941,,,,,,down,0,0.674,,-0.155555556,-0.252222222,1,0,0,0,6,6,108,1,excuus,images/br_excuus.png,images/cb_excuus.png,0,,,,,,,,,,,,,,,,,,,,,,
,,,,,00071,2023-10-16_16h05.44.389,vbt_B2_day4,2022.2.4,MacIntel,58.82352941,,,,,,down,0,2.072,,-0.184444444,0.04,1,0,0,0,7,7,34,1,vorm,images/br_vorm.png,images/cb_vorm.png,0,,,,,,,,,,,,,,,,,,,,,,
,,,,,00071,2023-10-16_16h05.44.389,vbt_B2_day4,2022.2.4,MacIntel,58.82352941,,,,,,down,0,6.593,,-0.221111111,0.052222222,1,0,0,0,8,8,67,1,zwart,images/br_zwart.png,images/cb_zwart.png,1,zwart,,,,,,,,,,,,,,,,,,,,,
,,,,,00071,2023-10-16_16h05.44.389,vbt_B2_day4,2022.2.4,MacIntel,58.82352941,,,,,,down,0,16.939,,-0.193333333,0.108888889,1,0,0,0,9,9,145,1,invloed,images/br_invloed.png,images/cb_invloed.png,1,invloed,,,,,,,,,,,,,,,,,,,,,
,,,,,00071,2023-10-16_16h05.44.389,vbt_B2_day4,2022.2.4,MacIntel,58.82352941,,,,,,down,0,8.824,,-0.194444444,0.107777778,1,0,0,0,10,10,159,1,sufferd,images/br_sufferd.png,images/cb_sufferd.png,0,,,,,,,,,,,,,,,,,,,,,,
,,,,,00071,2023-10-16_16h05.44.389,vbt_B2_day4,2022.2.4,MacIntel,58.82352941,,,,,,down,0,24.225,,-0.194444444,0.107777778,1,0,0,0,11,11,80,1,kanjer,images/br_kanjer.png,images/cb_kanjer.png,0,,,,,,,,,,,,,,,,,,,,,,
,,,,,00071,2023-10-16_16h05.44.389,vbt_B2_day4,2022.2.4,MacIntel,58.82352941,,,,,,down,0,6.417,,-0.194444444,0.107777778,1,0,0,0,12,12,179,1,woestijn,images/br_woestijn.png,images/cb_woestijn.png,0,,,,,,,,,,,,,,,,,,,,,,
,,,,,00071,2023-10-16_16h05.44.389,vbt_B2_day4,2022.2.4,MacIntel,58.82352941,,,,,,down,0,1.268,,-0.194444444,0.107777778,1,0,0,0,13,13,166,1,strikken,images/br_strikken.png,images/cb_strikken.png,0,,,,,,,,,,,,,,,,,,,,,,
,,,,,00071,2023-10-16_16h05.44.389,vbt_B2_day4,2022.2.4,MacIntel,58.82352941,,,,,,down,0,4.716,,-0.194444444,0.107777778,1,0,0,0,14,14,27,1,dans,images/br_dans.png,images/cb_dans.png,1,dans,,,,,,,,,,,,,,,,,,,,,
,,,,,00071,2023-10-16_16h05.44.389,vbt_B2_day4,2022.2.4,MacIntel,58.82352941,,,,,,down,0,2.556,,-0.252222222,-0.063333333,1,0,0,0,15,15,194,1,driemaal,images/br_driemaal.png,images/cb_driemaal.png,0,,,,,,,,,,,,,,,,,,,,,,
,,,,,00071,2023-10-16_16h05.44.389,vbt_B2_day4,2022.2.4,MacIntel,58.82352941,,,,,,down,0,9.687,,-0.252222222,-0.063333333,1,0,0,0,16,16,147,1,komisch,images/br_komisch.png,images/cb_komisch.png,1,komisch,,,,,,,,,,,,,,,,,,,,,
,,,,,00071,2023-10-16_16h05.44.389,vbt_B2_day4,2022.2.4,MacIntel,58.82352941,,,,,,down,0,0.441,,-0.252222222,-0.063333333,1,0,0,0,17,17,12,1,kust,images/br_kust.png,images/cb_kust.png,0,,,,,,,,,,,,,,,,,,,,,,
,,,,,00071,2023-10-16_16h05.44.389,vbt_B2_day4,2022.2.4,MacIntel,58.82352941,,,,,,down,0,8.376,,-0.252222222,-0.063333333,1,0,0,0,18,18,104,1,zweven,images/br_zweven.png,images/cb_zweven.png,1,zweven,,,,,,,,,,,,,,,,,,,,,
,,,,,00071,2023-10-16_16h05.44.389,vbt_B2_day4,2022.2.4,MacIntel,58.82352941,,,,,,down,0,0.601,,-0.252222222,-0.063333333,1,0,0,0,19,19,171,1,aarzelen,images/br_aarzelen.png,images/cb_aarzelen.png,0,,,,,,,,,,,,,,,,,,,,,,
,,,,,00071,2023-10-16_16h05.44.389,vbt_B2_day4,2022.2.4,MacIntel,58.82352941,,,,,,down,0,0.454,,-0.252222222,-0.063333333,1,0,0,0,20,20,48,1,steel,images/br_steel.png,images/cb_steel.png,0,,,,,,,,,,,,,,,,,,,,,,
,,,,,00071,2023-10-16_16h05.44.389,vbt_B2_day4,2022.2.4,MacIntel,58.82352941,,,,,,down,0,0.39,,-0.252222222,-0.063333333,1,0,0,0,21,21,19,1,geit,images/br_geit.png,images/cb_geit.png,0,,,,,,,,,,,,,,,,,,,,,,
,,,,,00071,2023-10-16_16h05.44.389,vbt_B2_day4,2022.2.4,MacIntel,58.82352941,,,,,,down,0,3.085,,-0.252222222,-0.063333333,1,0,0,0,22,22,157,1,uitlaat,images/br_uitlaat.png,images/cb_uitlaat.png,0,,,,,,,,,,,,,,,,,,,,,,
,,,,,00071,2023-10-16_16h05.44.389,vbt_B2_day4,2022.2.4,MacIntel,58.82352941,,,,,,down,0,11.925,,-0.252222222,-0.063333333,1,0,0,0,23,23,59,1,kring,images/br_kring.png,images/cb_kring.png,0,,,,,,,,,,,,,,,,,,,,,,
,,,,,00071,2023-10-16_16h05.44.389,vbt_B2_day4,2022.2.4,MacIntel,58.82352941,,,,,,down,0,1.292,,-0.252222222,-0.063333333,1,0,0,0,24,24,114,1,vullen,images/br_vullen.png,images/cb_vullen.png,0,,,,,,,,,,,,,,,,,,,,,,
,,,,,00071,2023-10-16_16h05.44.389,vbt_B2_day4,2022.2.4,MacIntel,58.82352941,,,,,,down,0,3.24,,-0.252222222,-0.063333333,1,0,0,0,25,25,83,1,mening,images/br_mening.png,images/cb_mening.png,0,,,,,,,,,,,,,,,,,,,,,,
,,,,,00071,2023-10-16_16h05.44.389,vbt_B2_day4,2022.2.4,MacIntel,58.82352941,,,,,,down,0,0.649,,-0.252222222,-0.063333333,1,0,0,0,26,26,17,1,taal,images/br_taal.png,images/cb_taal.png,0,,,,,,,,,,,,,,,,,,,,,,
,,,,,00071,2023-10-16_16h05.44.389,vbt_B2_day4,2022.2.4,MacIntel,58.82352941,,,,,,down,0,1.833,,-0.252222222,-0.063333333,1,0,0,0,27,27,170,1,schatten,images/br_schatten.png,images/cb_schatten.png,0,,,,,,,,,,,,,,,,,,,,,,
,,,,,00071,2023-10-16_16h05.44.389,vbt_B2_day4,2022.2.4,MacIntel,58.82352941,,,,,,down,0,1.933,,-0.252222222,-0.063333333,1,0,0,0,28,28,23,1,zout,images/br_zout.png,images/cb_zout.png,0,,,,,,,,,,,,,,,,,,,,,,
,,,,,00071,2023-10-16_16h05.44.389,vbt_B2_day4,2022.2.4,MacIntel,58.82352941,,,,,,down,0,2.418,,-0.213333333,-0.018888889,1,0,0,0,29,29,66,1,lever,images/br_lever.png,images/cb_lever.png,1,lever,,,,,,,,,,,,,,,,,,,,,
,,,,,00071,2023-10-16_16h05.44.389,vbt_B2_day4,2022.2.4,MacIntel,58.82352941,,,,,,down,0,8.641,,-0.218888889,-0.025555556,1,0,0,0,30,30,168,1,bisschop,images/br_bisschop.png,images/cb_bisschop.png,0,,,,,,,,,,,,,,,,,,,,,,
,,,,,00071,2023-10-16_16h05.44.389,vbt_B2_day4,2022.2.4,MacIntel,58.82352941,,,,,,down,0,0.949,,-0.218888889,-0.025555556,1,0,0,0,31,31,60,1,jasje,images/br_jasje.png,images/cb_jasje.png,0,,,,,,,,,,,,,,,,,,,,,,
,,,,,00071,2023-10-16_16h05.44.389,vbt_B2_day4,2022.2.4,MacIntel,58.82352941,,,,,,down,0,46.789,,-0.213333333,-0.013333333,1,0,0,0,32,32,120,1,klimmen,images/br_klimmen.png,images/cb_klimmen.png,0,,,,,,,,,,,,,,,,,,,,,,
,,,,,00071,2023-10-16_16h05.44.389,vbt_B2_day4,2022.2.4,MacIntel,58.82352941,,,,,,down,0,0.833,,-0.213333333,-0.013333333,1,0,0,0,33,33,125,1,aanzien,images/br_aanzien.png,images/cb_aanzien.png,0,,,,,,,,,,,,,,,,,,,,,,
,,,,,00071,2023-10-16_16h05.44.389,vbt_B2_day4,2022.2.4,MacIntel,58.82352941,,,,,,down,0,2.533,,-0.213333333,-0.013333333,1,0,0,0,34,34,13,1,kaal,images/br_kaal.png,images/cb_kaal.png,0,,,,,,,,,,,,,,,,,,,,,,
,,,,,00071,2023-10-16_16h05.44.389,vbt_B2_day4,2022.2.4,MacIntel,58.82352941,,,,,,down,0,1.133,,-0.213333333,-0.013333333,1,0,0,0,35,35,45,1,piste,images/br_piste.png,images/cb_piste.png,0,,,,,,,,,,,,,,,,,,,,,,
,,,,,00071,2023-10-16_16h05.44.389,vbt_B2_day4,2022.2.4,MacIntel,58.82352941,,,,,,down,0,1.792,,-0.213333333,-0.013333333,1,0,0,0,36,36,58,1,tekst,images/br_tekst.png,images/cb_tekst.png,0,,,,,,,,,,,,,,,,,,,,,,
,,,,,00071,2023-10-16_16h05.44.389,vbt_B2_day4,2022.2.4,MacIntel,58.82352941,,,,,,down,0,3.188,,-0.213333333,-0.013333333,1,0,0,0,37,37,63,1,flirt,images/br_flirt.png,images/cb_flirt.png,0,,,,,,,,,,,,,,,,,,,,,,
,,,,,00071,2023-10-16_16h05.44.389,vbt_B2_day4,2022.2.4,MacIntel,58.82352941,,,,,,down,0,1.424,,-0.213333333,-0.013333333,1,0,0,0,38,38,81,1,dubbel,images/br_dubbel.png,images/cb_dubbel.png,0,,,,,,,,,,,,,,,,,,,,,,
,,,,,00071,2023-10-16_16h05.44.389,vbt_B2_day4,2022.2.4,MacIntel,58.82352941,,,,,,down,0,3.562,,-0.213333333,-0.013333333,1,0,0,0,39,39,146,1,opkomen,images/br_opkomen.png,images/cb_opkomen.png,1,opkomen,,,,,,,,,,,,,,,,,,,,,
,,,,,00071,2023-10-16_16h05.44.389,vbt_B2_day4,2022.2.4,MacIntel,58.82352941,,,,,,down,0,1.767,,-0.213333333,-0.013333333,1,0,0,0,40,40,65,1,parel,images/br_parel.png,images/cb_parel.png,1,parel,,,,,,,,,,,,,,,,,,,,,
,,,,,00071,2023-10-16_16h05.44.389,vbt_B2_day4,2022.2.4,MacIntel,58.82352941,,,,,,down,0,1.372,,-0.213333333,-0.013333333,1,0,0,0,41,41,55,1,praat,images/br_praat.png,images/cb_praat.png,0,,,,,,,,,,,,,,,,,,,,,,
,,,,,00071,2023-10-16_16h05.44.389,vbt_B2_day4,2022.2.4,MacIntel,58.82352941,,,,,,down,0,4.632,,-0.213333333,-0.013333333,1,0,0,0,42,42,149,1,redding,images/br_redding.png,images/cb_redding.png,0,,,,,,,,,,,,,,,,,,,,,,
,,,,,00071,2023-10-16_16h05.44.389,vbt_B2_day4,2022.2.4,MacIntel,58.82352941,,,,,,down,0,1.018,,-0.213333333,-0.012222222,1,0,0,0,43,43,119,1,liefje,images/br_liefje.png,images/cb_liefje.png,0,,,,,,,,,,,,,,,,,,,,,,
,,,,,00071,2023-10-16_16h05.44.389,vbt_B2_day4,2022.2.4,MacIntel,58.82352941,,,,,,down,0,5.935,,-0.213333333,-0.013333333,1,0,0,0,44,44,193,1,weeshuis,images/br_weeshuis.png,images/cb_weeshuis.png,0,,,,,,,,,,,,,,,,,,,,,,
,,,,,00071,2023-10-16_16h05.44.389,vbt_B2_day4,2022.2.4,MacIntel,58.82352941,,,,,,down,0,1.023,,-0.213333333,-0.013333333,1,0,0,0,45,45,85,1,heilig,images/br_heilig.png,images/cb_heilig.png,0,,,,,,,,,,,,,,,,,,,,,,
,,,,,00071,2023-10-16_16h05.44.389,vbt_B2_day4,2022.2.4,MacIntel,58.82352941,,,,,,down,0,7.936,,-0.213333333,-0.013333333,1,0,0,0,46,46,129,1,verhaal,images/br_verhaal.png,images/cb_verhaal.png,0,,,,,,,,,,,,,,,,,,,,,,
,,,,,00071,2023-10-16_16h05.44.389,vbt_B2_day4,2022.2.4,MacIntel,58.82352941,,,,,,down,0,6.734,,-0.213333333,-0.013333333,1,0,0,0,47,47,192,1,schaamte,images/br_schaamte.png,images/cb_schaamte.png,0,,,,,,,,,,,,,,,,,,,,,,
,,,,,00071,2023-10-16_16h05.44.389,vbt_B2_day4,2022.2.4,MacIntel,58.82352941,,,,,,down,0,2.133,,-0.182222222,0.052222222,1,0,0,0,48,48,111,1,ticket,images/br_ticket.png,images/cb_ticket.png,0,,,,,,,,,,,,,,,,,,,,,,
,,,,,00071,2023-10-16_16h05.44.389,vbt_B2_day4,2022.2.4,MacIntel,58.82352941,,,,,,down,0,9.951,,-0.182222222,0.052222222,1,0,0,0,49,49,190,1,goedkoop,images/br_goedkoop.png,images/cb_goedkoop.png,0,,,,,,,,,,,,,,,,,,,,,,
,,,,,00071,2023-10-16_16h05.44.389,vbt_B2_day4,2022.2.4,MacIntel,58.82352941,,,,,,down,0,4.783,,-0.182222222,0.052222222,1,0,0,0,50,50,176,1,techniek,images/br_techniek.png,images/cb_techniek.png,0,,,,,,,,,,,,,,,,,,,,,,
,,,,,00071,2023-10-16_16h05.44.389,vbt_B2_day4,2022.2.4,MacIntel,58.82352941,,,,,,down,0,5.367,,-0.182222222,0.052222222,1,0,0,0,51,51,131,1,opzicht,images/br_opzicht.png,images/cb_opzicht.png,0,,,,,,,,,,,,,,,,,,,,,,
,,,,,00071,2023-10-16_16h05.44.389,vbt_B2_day4,2022.2.4,MacIntel,58.82352941,,,,,,down,0,3.783,,-0.182222222,0.052222222,1,0,0,0,52,52,61,1,groen,images/br_groen.png,images/cb_groen.png,0,,,,,,,,,,,,,,,,,,,,,,
,,,,,00071,2023-10-16_16h05.44.389,vbt_B2_day4,2022.2.4,MacIntel,58.82352941,,,,,,down,0,4.766,,-0.277777778,-0.094444444,1,0,0,0,53,53,196,1,nakijken,images/br_nakijken.png,images/cb_nakijken.png,0,,,,,,,,,,,,,,,,,,,,,,
,,,,,00071,2023-10-16_16h05.44.389,vbt_B2_day4,2022.2.4,MacIntel,58.82352941,,,,,,down,0,6.885,,-0.276666667,-0.092222222,1,0,0,0,54,54,152,1,afnemen,images/br_afnemen.png,images/cb_afnemen.png,0,,,,,,,,,,,,,,,,,,,,,,
,,,,,00071,2023-10-16_16h05.44.389,vbt_B2_day4,2022.2.4,MacIntel,58.82352941,,,,,,down,0,1.191,,-0.276666667,-0.092222222,1,0,0,0,55,55,191,1,opheffen,images/br_opheffen.png,images/cb_opheffen.png,0,,,,,,,,,,,,,,,,,,,,,,
,,,,,00071,2023-10-16_16h05.44.389,vbt_B2_day4,2022.2.4,MacIntel,58.82352941,,,,,,down,0,0.949,,-0.276666667,-0.092222222,1,0,0,0,56,56,15,1,soda,images/br_soda.png,images/cb_soda.png,0,,,,,,,,,,,,,,,,,,,,,,
,,,,,00071,2023-10-16_16h05.44.389,vbt_B2_day4,2022.2.4,MacIntel,58.82352941,,,,,,down,0,1.941,,-0.276666667,-0.092222222,1,0,0,0,57,57,2,1,jaar,images/br_jaar.png,images/cb_jaar.png,0,,,,,,,,,,,,,,,,,,,,,,
,,,,,00071,2023-10-16_16h05.44.389,vbt_B2_day4,2022.2.4,MacIntel,58.82352941,,,,,,down,0,4.609,,-0.264444444,-0.088888889,1,0,0,0,58,58,37,1,mijn,images/br_mijn.png,images/cb_mijn.png,0,,,,,,,,,,,,,,,,,,,,,,
,,,,,00071,2023-10-16_16h05.44.389,vbt_B2_day4,2022.2.4,MacIntel,58.82352941,,,,,,down,0,3.642,,-0.267777778,-0.088888889,1,0,0,0,59,59,160,1,daarheen,images/br_daarheen.png,images/cb_daarheen.png,0,,,,,,,,,,,,,,,,,,,,,,
,,,,,00071,2023-10-16_16h05.44.389,vbt_B2_day4,2022.2.4,MacIntel,58.82352941,,,,,,down,0,2.823,,-0.267777778,-0.088888889,1,0,0,0,60,60,169,1,oprotten,images/br_oprotten.png,images/cb_oprotten.png,0,,,,,,,,,,,,,,,,,,,,,,
,,,,,00071,2023-10-16_16h05.44.389,vbt_B2_day4,2022.2.4,MacIntel,58.82352941,,,,,,down,0,0.326,,-0.267777778,-0.088888889,1,0,0,0,61,61,78,1,leren,images/br_leren.png,images/cb_leren.png,0,,,,,,,,,,,,,,,,,,,,,,
,,,,,00071,2023-10-16_16h05.44.389,vbt_B2_day4,2022.2.4,MacIntel,58.82352941,,,,,,down,0,3.175,,-0.267777778,-0.09,1,0,0,0,62,62,184,1,aandelen,images/br_aandelen.png,images/cb_aandelen.png,1,aandelen,,,,,,,,,,,,,,,,,,,,,
,,,,,00071,2023-10-16_16h05.44.389,vbt_B2_day4,2022.2.4,MacIntel,58.82352941,,,,,,down,0,1.318,,-0.267777778,-0.09,1,0,0,0,63,63,112,1,lukken,images/br_lukken.png,images/cb_lukken.png,0,,,,,,,,,,,,,,,,,,,,,,
,,,,,00071,2023-10-16_16h05.44.389,vbt_B2_day4,2022.2.4,MacIntel,58.82352941,,,,,,down,0,2.234,,-0.267777778,-0.09,1,0,0,0,64,64,198,1,bedoelen,images/br_bedoelen.png,images/cb_bedoelen.png,0,,,,,,,,,,,,,,,,,,,,,,
,,,,,00071,2023-10-16_16h05.44.389,vbt_B2_day4,2022.2.4,MacIntel,58.82352941,,,,,,down,0,0.741,,-0.267777778,-0.09,1,0,0,0,65,65,21,1,mist,images/br_mist.png,images/cb_mist.png,0,,,,,,,,,,,,,,,,,,,,,,
,,,,,00071,2023-10-16_16h05.44.389,vbt_B2_day4,2022.2.4,MacIntel,58.82352941,,,,,,down,0,2.493,,-0.267777778,-0.09,1,0,0,0,66,66,161,1,attentie,images/br_attentie.png,images/cb_attentie.png,0,,,,,,,,,,,,,,,,,,,,,,
,,,,,00071,2023-10-16_16h05.44.389,vbt_B2_day4,2022.2.4,MacIntel,58.82352941,,,,,,down,0,1.31,,-0.267777778,-0.09,1,0,0,0,67,67,52,1,wagon,images/br_wagon.png,images/cb_wagon.png,0,,,,,,,,,,,,,,,,,,,,,,
,,,,,00071,2023-10-16_16h05.44.389,vbt_B2_day4,2022.2.4,MacIntel,58.82352941,,,,,,down,0,2.16,,-0.267777778,-0.09,1,0,0,0,68,68,116,1,besmet,images/br_besmet.png,images/cb_besmet.png,0,,,,,,,,,,,,,,,,,,,,,,
,,,,,00071,2023-10-16_16h05.44.389,vbt_B2_day4,2022.2.4,MacIntel,58.82352941,,,,,,down,0,0.382,,-0.267777778,-0.09,1,0,0,0,69,69,47,1,kabel,images/br_kabel.png,images/cb_kabel.png,0,,,,,,,,,,,,,,,,,,,,,,
,,,,,00071,2023-10-16_16h05.44.389,vbt_B2_day4,2022.2.4,MacIntel,58.82352941,,,,,,down,0,6.986,,-0.267777778,-0.09,1,0,0,0,70,70,139,1,stiekem,images/br_stiekem.png,images/cb_stiekem.png,0,,,,,,,,,,,,,,,,,,,,,,
,,,,,00071,2023-10-16_16h05.44.389,vbt_B2_day4,2022.2.4,MacIntel,58.82352941,,,,,,down,0,0.432,,-0.267777778,-0.09,1,0,0,0,71,71,40,1,schep,images/br_schep.png,images/cb_schep.png,0,,,,,,,,,,,,,,,,,,,,,,
,,,,,00071,2023-10-16_16h05.44.389,vbt_B2_day4,2022.2.4,MacIntel,58.82352941,,,,,,down,0,17.466,,-0.267777778,-0.09,1,0,0,0,72,72,86,1,woning,images/br_woning.png,images/cb_woning.png,0,,,,,,,,,,,,,,,,,,,,,,
,,,,,00071,2023-10-16_16h05.44.389,vbt_B2_day4,2022.2.4,MacIntel,58.82352941,,,,,,down,0,0.522,,-0.267777778,-0.09,1,0,0,0,73,73,14,1,rijp,images/br_rijp.png,images/cb_rijp.png,0,,,,,,,,,,,,,,,,,,,,,,
,,,,,00071,2023-10-16_16h05.44.389,vbt_B2_day4,2022.2.4,MacIntel,58.82352941,,,,,,down,0,0.798,,-0.267777778,-0.09,1,0,0,0,74,74,158,1,innemen,images/br_innemen.png,images/cb_innemen.png,0,,,,,,,,,,,,,,,,,,,,,,
,,,,,00071,2023-10-16_16h05.44.389,vbt_B2_day4,2022.2.4,MacIntel,58.82352941,,,,,,down,0,6.339,,-0.028888889,0.26,1,0,0,0,75,75,189,1,aanraden,images/br_aanraden.png,images/cb_aanraden.png,0,,,,,,,,,,,,,,,,,,,,,,
,,,,,00071,2023-10-16_16h05.44.389,vbt_B2_day4,2022.2.4,MacIntel,58.82352941,,,,,,down,0,22.552,,-0.025555556,0.29,1,0,0,0,76,76,30,1,uien,images/br_uien.png,images/cb_uien.png,0,,,,,,,,,,,,,,,,,,,,,,
,,,,,00071,2023-10-16_16h05.44.389,vbt_B2_day4,2022.2.4,MacIntel,58.82352941,,,,,,down,0,4.252,,-0.025555556,0.29,1,0,0,0,77,77,175,1,heengaan,images/br_heengaan.png,images/cb_heengaan.png,0,,,,,,,,,,,,,,,,,,,,,,
,,,,,00071,2023-10-16_16h05.44.389,vbt_B2_day4,2022.2.4,MacIntel,58.82352941,,,,,,down,0,6.967,,-0.025555556,0.29,1,0,0,0,78,78,73,1,volop,images/br_volop.png,images/cb_volop.png,0,,,,,,,,,,,,,,,,,,,,,,
,,,,,00071,2023-10-16_16h05.44.389,vbt_B2_day4,2022.2.4,MacIntel,58.82352941,,,,,,down,0,7.459,,-0.025555556,0.29,1,0,0,0,79,79,122,1,waarvan,images/br_waarvan.png,images/cb_waarvan.png,0,,,,,,,,,,,,,,,,,,,,,,
,,,,,00071,2023-10-16_16h05.44.389,vbt_B2_day4,2022.2.4,MacIntel,58.82352941,,,,,,down,0,3.258,,-0.025555556,0.29,1,0,0,0,80,80,141,1,knielen,images/br_knielen.png,images/cb_knielen.png,0,,,,,,,,,,,,,,,,,,,,,,
,,,,,00071,2023-10-16_16h05.44.389,vbt_B2_day4,2022.2.4,MacIntel,58.82352941,,,,,,down,0,12.532,,-0.025555556,0.29,1,0,0,0,81,81,167,1,eenhoorn,images/br_eenhoorn.png,images/cb_eenhoorn.png,0,,,,,,,,,,,,,,,,,,,,,,
,,,,,00071,2023-10-16_16h05.44.389,vbt_B2_day4,2022.2.4,MacIntel,58.82352941,,,,,,down,0,7.856,,-0.025555556,0.29,1,0,0,0,82,82,185,1,mijnheer,images/br_mijnheer.png,images/cb_mijnheer.png,1,mijnheer,,,,,,,,,,,,,,,,,,,,,
,,,,,00071,2023-10-16_16h05.44.389,vbt_B2_day4,2022.2.4,MacIntel,58.82352941,,,,,,down,0,0.591,,-0.025555556,0.29,1,0,0,0,83,83,25,1,plek,images/br_plek.png,images/cb_plek.png,1,plek,,,,,,,,,,,,,,,,,,,,,
,,,,,00071,2023-10-16_16h05.44.389,vbt_B2_day4,2022.2.4,MacIntel,58.82352941,,,,,,down,0,7.816,,-0.025555556,0.29,1,0,0,0,84,84,42,1,bleek,images/br_bleek.png,images/cb_bleek.png,0,,,,,,,,,,,,,,,,,,,,,,
,,,,,00071,2023-10-16_16h05.44.389,vbt_B2_day4,2022.2.4,MacIntel,58.82352941,,,,,,down,0,2.35,,-0.025555556,0.29,1,0,0,0,85,85,137,1,trekker,images/br_trekker.png,images/cb_trekker.png,0,,,,,,,,,,,,,,,,,,,,,,
,,,,,00071,2023-10-16_16h05.44.389,vbt_B2_day4,2022.2.4,MacIntel,58.82352941,,,,,,down,0,0.05,,0.008888889,0.055555556,1,0,0,0,86,86,84,1,lokken,images/br_lokken.png,images/cb_lokken.png,0,,,,,,,,,,,,,,,,,,,,,,
,,,,,00071,2023-10-16_16h05.44.389,vbt_B2_day4,2022.2.4,MacIntel,58.82352941,,,,,,down,0,5.873,,0.008888889,0.055555556,1,0,0,0,87,87,24,1,jurk,images/br_jurk.png,images/cb_jurk.png,1,jurk,,,,,,,,,,,,,,,,,,,,,
,,,,,00071,2023-10-16_16h05.44.389,vbt_B2_day4,2022.2.4,MacIntel,58.82352941,,,,,,down,0,11.95,,0.008888889,0.055555556,1,0,0,0,88,88,106,1,zingen,images/br_zingen.png,images/cb_zingen.png,1,zingen,,,,,,,,,,,,,,,,,,,,,
,,,,,00071,2023-10-16_16h05.44.389,vbt_B2_day4,2022.2.4,MacIntel,58.82352941,,,,,,down,0,3.252,,0.008888889,0.055555556,1,0,0,0,89,89,46,1,jagen,images/br_jagen.png,images/cb_jagen.png,0,,,,,,,,,,,,,,,,,,,,,,
,,,,,00071,2023-10-16_16h05.44.389,vbt_B2_day4,2022.2.4,MacIntel,58.82352941,,,,,,down,0,0.928,,0.008888889,0.055555556,1,0,0,0,90,90,87,1,toeval,images/br_toeval.png,images/cb_toeval.png,0,,,,,,,,,,,,,,,,,,,,,,
,,,,,00071,2023-10-16_16h05.44.389,vbt_B2_day4,2022.2.4,MacIntel,58.82352941,,,,,,down,0,3.586,,0.057777778,0.312222222,1,0,0,0,91,91,113,1,koppen,images/br_koppen.png,images/cb_koppen.png,0,,,,,,,,,,,,,,,,,,,,,,
,,,,,00071,2023-10-16_16h05.44.389,vbt_B2_day4,2022.2.4,MacIntel,58.82352941,,,,,,down,0,13.042,,-0.017777778,0.036666667,1,0,0,0,92,92,91,1,gezond,images/br_gezond.png,images/cb_gezond.png,0,,,,,,,,,,,,,,,,,,,,,,
,,,,,00071,2023-10-16_16h05.44.389,vbt_B2_day4,2022.2.4,MacIntel,58.82352941,,,,,,down,0,4.5,,-0.017777778,0.036666667,1,0,0,0,93,93,133,1,seizoen,images/br_seizoen.png,images/cb_seizoen.png,0,,,,,,,,,,,,,,,,,,,,,,
,,,,,00071,2023-10-16_16h05.44.389,vbt_B2_day4,2022.2.4,MacIntel,58.82352941,,,,,,down,0,9.292,,-0.044444444,0.278888889,1,0,0,0,94,94,89,1,slapen,images/br_slapen.png,images/cb_slapen.png,0,,,,,,,,,,,,,,,,,,,,,,
,,,,,00071,2023-10-16_16h05.44.389,vbt_B2_day4,2022.2.4,MacIntel,58.82352941,,,,,,down,0,3.184,,-0.045555556,0.281111111,1,0,0,0,95,95,69,1,waken,images/br_waken.png,images/cb_waken.png,0,,,,,,,,,,,,,,,,,,,,,,
,,,,,00071,2023-10-16_16h05.44.389,vbt_B2_day4,2022.2.4,MacIntel,58.82352941,,,,,,down,0,1.632,,-0.045555556,0.281111111,1,0,0,0,96,96,136,1,waarbij,images/br_waarbij.png,images/cb_waarbij.png,0,,,,,,,,,,,,,,,,,,,,,,
,,,,,00071,2023-10-16_16h05.44.389,vbt_B2_day4,2022.2.4,MacIntel,58.82352941,,,,,,down,0,3.499,,-0.045555556,0.281111111,1,0,0,0,97,97,92,1,geheim,images/br_geheim.png,images/cb_geheim.png,0,,,,,,,,,,,,,,,,,,,,,,
,,,,,00071,2023-10-16_16h05.44.389,vbt_B2_day4,2022.2.4,MacIntel,58.82352941,,,,,,down,0,0.807,,-0.045555556,0.281111111,1,0,0,0,98,98,74,1,graaf,images/br_graaf.png,images/cb_graaf.png,0,,,,,,,,,,,,,,,,,,,,,,
,,,,,00071,2023-10-16_16h05.44.389,vbt_B2_day4,2022.2.4,MacIntel,58.82352941,,,,,,down,0,1.036,,-0.045555556,0.281111111,1,0,0,0,99,99,102,1,legaal,images/br_legaal.png,images/cb_legaal.png,0,,,,,,,,,,,,,,,,,,,,,,
,,,,,00071,2023-10-16_16h05.44.389,vbt_B2_day4,2022.2.4,MacIntel,58.82352941,,,,,,down,0,5.816,,-0.045555556,0.281111111,1,0,0,0,100,100,128,1,prikken,images/br_prikken.png,images/cb_prikken.png,0,,,,,,,,,,,,,,,,,,,,,,
,,,,,00071,2023-10-16_16h05.44.389,vbt_B2_day4,2022.2.4,MacIntel,58.82352941,,,,,,down,0,2.69,,-0.045555556,0.281111111,1,0,0,0,101,101,77,1,woede,images/br_woede.png,images/cb_woede.png,0,,,,,,,,,,,,,,,,,,,,,,
,,,,,00071,2023-10-16_16h05.44.389,vbt_B2_day4,2022.2.4,MacIntel,58.82352941,,,,,,down,0,2.727,,-0.045555556,0.281111111,1,0,0,0,102,102,28,1,stal,images/br_stal.png,images/cb_stal.png,0,,,,,,,,,,,,,,,,,,,,,,
,,,,,00071,2023-10-16_16h05.44.389,vbt_B2_day4,2022.2.4,MacIntel,58.82352941,,,,,,down,0,2.605,,-0.045555556,0.281111111,1,0,0,0,103,103,172,1,weigeren,images/br_weigeren.png,images/cb_weigeren.png,0,,,,,,,,,,,,,,,,,,,,,,
,,,,,00071,2023-10-16_16h05.44.389,vbt_B2_day4,2022.2.4,MacIntel,58.82352941,,,,,,down,0,6.522,,-0.045555556,0.281111111,1,0,0,0,104,104,142,1,snuiven,images/br_snuiven.png,images/cb_snuiven.png,0,,,,,,,,,,,,,,,,,,,,,,
,,,,,00071,2023-10-16_16h05.44.389,vbt_B2_day4,2022.2.4,MacIntel,58.82352941,,,,,,down,0,0.705,,-0.045555556,0.281111111,1,0,0,0,105,105,56,1,traag,images/br_traag.png,images/cb_traag.png,0,,,,,,,,,,,,,,,,,,,,,,
,,,,,00071,2023-10-16_16h05.44.389,vbt_B2_day4,2022.2.4,MacIntel,58.82352941,,,,,,down,0,0.54,,-0.045555556,0.281111111,1,0,0,0,106,106,57,1,steek,images/br_steek.png,images/cb_steek.png,0,,,,,,,,,,,,,,,,,,,,,,
,,,,,00071,2023-10-16_16h05.44.389,vbt_B2_day4,2022.2.4,MacIntel,58.82352941,,,,,,down,0,0.491,,-0.045555556,0.281111111,1,0,0,0,107,107,150,1,gegeven,images/br_gegeven.png,images/cb_gegeven.png,0,,,,,,,,,,,,,,,,,,,,,,
,,,,,00071,2023-10-16_16h05.44.389,vbt_B2_day4,2022.2.4,MacIntel,58.82352941,,,,,,down,0,14.504,,-0.045555556,0.281111111,1,0,0,0,108,108,162,1,uitdelen,images/br_uitdelen.png,images/cb_uitdelen.png,0,,,,,,,,,,,,,,,,,,,,,,
,,,,,00071,2023-10-16_16h05.44.389,vbt_B2_day4,2022.2.4,MacIntel,58.82352941,,,,,,down,0,8.133,,-0.045555556,0.281111111,1,0,0,0,109,109,154,1,aflopen,images/br_aflopen.png,images/cb_aflopen.png,0,,,,,,,,,,,,,,,,,,,,,,
,,,,,00071,2023-10-16_16h05.44.389,vbt_B2_day4,2022.2.4,MacIntel,58.82352941,,,,,,down,0,0.292,,-0.045555556,0.281111111,1,0,0,0,110,110,16,1,ziek,images/br_ziek.png,images/cb_ziek.png,0,,,,,,,,,,,,,,,,,,,,,,
,,,,,00071,2023-10-16_16h05.44.389,vbt_B2_day4,2022.2.4,MacIntel,58.82352941,,,,,,down,0,2.31,,-0.045555556,0.281111111,1,0,0,0,111,111,140,1,blijven,images/br_blijven.png,images/cb_blijven.png,0,,,,,,,,,,,,,,,,,,,,,,
,,,,,00071,2023-10-16_16h05.44.389,vbt_B2_day4,2022.2.4,MacIntel,58.82352941,,,,,,down,0,0.833,,-0.045555556,0.281111111,1,0,0,0,112,112,29,1,baas,images/br_baas.png,images/cb_baas.png,0,,,,,,,,,,,,,,,,,,,,,,
,,,,,00071,2023-10-16_16h05.44.389,vbt_B2_day4,2022.2.4,MacIntel,58.82352941,,,,,,down,0,0.667,,-0.045555556,0.281111111,1,0,0,0,113,113,96,1,slagen,images/br_slagen.png,images/cb_slagen.png,0,,,,,,,,,,,,,,,,,,,,,,
,,,,,00071,2023-10-16_16h05.44.389,vbt_B2_day4,2022.2.4,MacIntel,58.82352941,,,,,,down,0,0.784,,-0.045555556,0.281111111,1,0,0,0,114,114,197,1,spanning,images/br_spanning.png,images/cb_spanning.png,0,,,,,,,,,,,,,,,,,,,,,,
,,,,,00071,2023-10-16_16h05.44.389,vbt_B2_day4,2022.2.4,MacIntel,58.82352941,,,,,,down,0,13.579,,-0.045555556,0.281111111,1,0,0,0,115,115,155,1,gerucht,images/br_gerucht.png,images/cb_gerucht.png,0,,,,,,,,,,,,,,,,,,,,,,
,,,,,00071,2023-10-16_16h05.44.389,vbt_B2_day4,2022.2.4,MacIntel,58.82352941,,,,,,down,0,0.194,,-0.045555556,0.281111111,1,0,0,0,116,116,20,1,site,images/br_site.png,images/cb_site.png,0,,,,,,,,,,,,,,,,,,,,,,
,,,,,00071,2023-10-16_16h05.44.389,vbt_B2_day4,2022.2.4,MacIntel,58.82352941,,,,,,down,0,0.46,,-0.045555556,0.281111111,1,0,0,0,117,117,4,1,moes,images/br_moes.png,images/cb_moes.png,0,,,,,,,,,,,,,,,,,,,,,,
,,,,,00071,2023-10-16_16h05.44.389,vbt_B2_day4,2022.2.4,MacIntel,58.82352941,,,,,,down,0,1.102,,-0.045555556,0.271111111,1,0,0,0,118,118,64,1,wegen,images/br_wegen.png,images/cb_wegen.png,1,wegen,,,,,,,,,,,,,,,,,,,,,
,,,,,00071,2023-10-16_16h05.44.389,vbt_B2_day4,2022.2.4,MacIntel,58.82352941,,,,,,down,0,3.194,,-0.045555556,0.271111111,1,0,0,0,119,119,118,1,vinger,images/br_vinger.png,images/cb_vinger.png,0,,,,,,,,,,,,,,,,,,,,,,
,,,,,00071,2023-10-16_16h05.44.389,vbt_B2_day4,2022.2.4,MacIntel,58.82352941,,,,,,down,0,0.357,,-0.045555556,0.271111111,1,0,0,0,120,120,115,1,kleren,images/br_kleren.png,images/cb_kleren.png,0,,,,,,,,,,,,,,,,,,,,,,
,,,,,00071,2023-10-16_16h05.44.389,vbt_B2_day4,2022.2.4,MacIntel,58.82352941,,,,,,down,0,4.575,,-0.045555556,0.271111111,1,0,0,0,121,121,50,1,stoom,images/br_stoom.png,images/cb_stoom.png,0,,,,,,,,,,,,,,,,,,,,,,
,,,,,00071,2023-10-16_16h05.44.389,vbt_B2_day4,2022.2.4,MacIntel,58.82352941,,,,,,down,0,2.216,,-0.045555556,0.271111111,1,0,0,0,122,122,100,1,geduld,images/br_geduld.png,images/cb_geduld.png,0,,,,,,,,,,,,,,,,,,,,,,
,,,,,00071,2023-10-16_16h05.44.389,vbt_B2_day4,2022.2.4,MacIntel,58.82352941,,,,,,down,0,4.409,,-0.051111111,0.25,1,0,0,0,123,123,180,1,openbaar,images/br_openbaar.png,images/cb_openbaar.png,0,,,,,,,,,,,,,,,,,,,,,,
,,,,,00071,2023-10-16_16h05.44.389,vbt_B2_day4,2022.2.4,MacIntel,58.82352941,,,,,,down,0,5.192,,-0.012222222,0.263333333,1,0,0,0,124,124,186,1,voorraad,images/br_voorraad.png,images/cb_voorraad.png,1,voorraad,,,,,,,,,,,,,,,,,,,,,
,,,,,00071,2023-10-16_16h05.44.389,vbt_B2_day4,2022.2.4,MacIntel,58.82352941,,,,,,down,0,4.453,,-0.012222222,0.263333333,1,0,0,0,125,125,75,1,snoep,images/br_snoep.png,images/cb_snoep.png,0,,,,,,,,,,,,,,,,,,,,,,
,,,,,00071,2023-10-16_16h05.44.389,vbt_B2_day4,2022.2.4,MacIntel,58.82352941,,,,,,down,0,1.332,,-0.012222222,0.263333333,1,0,0,0,126,126,54,1,gebit,images/br_gebit.png,images/cb_gebit.png,0,,,,,,,,,,,,,,,,,,,,,,
,,,,,00071,2023-10-16_16h05.44.389,vbt_B2_day4,2022.2.4,MacIntel,58.82352941,,,,,,down,0,5.053,,-0.012222222,0.263333333,1,0,0,0,127,127,90,1,geluid,images/br_geluid.png,images/cb_geluid.png,0,,,,,,,,,,,,,,,,,,,,,,
,,,,,00071,2023-10-16_16h05.44.389,vbt_B2_day4,2022.2.4,MacIntel,58.82352941,,,,,,down,0,3.201,,-0.012222222,0.258888889,1,0,0,0,128,128,35,1,lust,images/br_lust.png,images/cb_lust.png,0,,,,,,,,,,,,,,,,,,,,,,
,,,,,00071,2023-10-16_16h05.44.389,vbt_B2_day4,2022.2.4,MacIntel,58.82352941,,,,,,down,0,1.533,,-0.012222222,0.258888889,1,0,0,0,129,129,103,1,joggen,images/br_joggen.png,images/cb_joggen.png,0,,,,,,,,,,,,,,,,,,,,,,
,,,,,00071,2023-10-16_16h05.44.389,vbt_B2_day4,2022.2.4,MacIntel,58.82352941,,,,,,down,0,3.883,,-0.035555556,0.274444444,1,0,0,0,130,130,70,1,ijdel,images/br_ijdel.png,images/cb_ijdel.png,0,,,,,,,,,,,,,,,,,,,,,,
,,,,,00071,2023-10-16_16h05.44.389,vbt_B2_day4,2022.2.4,MacIntel,58.82352941,,,,,,down,0,1.599,,-0.035555556,0.27,1,0,0,0,131,131,68,1,schat,images/br_schat.png,images/cb_schat.png,0,,,,,,,,,,,,,,,,,,,,,,
,,,,,00071,2023-10-16_16h05.44.389,vbt_B2_day4,2022.2.4,MacIntel,58.82352941,,,,,,down,0,7.434,,-0.018888889,0.246666667,1,0,0,0,132,132,183,1,getuigen,images/br_getuigen.png,images/cb_getuigen.png,0,,,,,,,,,,,,,,,,,,,,,,
,,,,,00071,2023-10-16_16h05.44.389,vbt_B2_day4,2022.2.4,MacIntel,58.82352941,,,,,,down,0,0.77,,-0.018888889,0.246666667,1,0,0,0,133,133,0,1,slak,images/br_slak.png,images/cb_slak.png,0,,,,,,,,,,,,,,,,,,,,,,
,,,,,00071,2023-10-16_16h05.44.389,vbt_B2_day4,2022.2.4,MacIntel,58.82352941,,,,,,down,0,0.508,,-0.018888889,0.246666667,1,0,0,0,134,134,98,1,kreeft,images/br_kreeft.png,images/cb_kreeft.png,0,,,,,,,,,,,,,,,,,,,,,,
,,,,,00071,2023-10-16_16h05.44.389,vbt_B2_day4,2022.2.4,MacIntel,58.82352941,,,,,,down,0,1.935,,-0.018888889,0.246666667,1,0,0,0,135,135,127,1,doodmoe,images/br_doodmoe.png,images/cb_doodmoe.png,0,,,,,,,,,,,,,,,,,,,,,,
,,,,,00071,2023-10-16_16h05.44.389,vbt_B2_day4,2022.2.4,MacIntel,58.82352941,,,,,,down,0,3.371,,-0.014444444,0.242222222,1,0,0,0,136,136,72,1,strak,images/br_strak.png,images/cb_strak.png,0,,,,,,,,,,,,,,,,,,,,,,
,,,,,00071,2023-10-16_16h05.44.389,vbt_B2_day4,2022.2.4,MacIntel,58.82352941,,,,,,down,0,1.983,,-0.014444444,0.242222222,1,0,0,0,137,137,107,1,maling,images/br_maling.png,images/cb_maling.png,1,maling,,,,,,,,,,,,,,,,,,,,,
,,,,,00071,2023-10-16_16h05.44.389,vbt_B2_day4,2022.2.4,MacIntel,58.82352941,,,,,,down,0,0.008,,-0.014444444,0.242222222,1,0,0,0,138,138,97,1,loyaal,images/br_loyaal.png,images/cb_loyaal.png,0,,,,,,,,,,,,,,,,,,,,,,
,,,,,00071,2023-10-16_16h05.44.389,vbt_B2_day4,2022.2.4,MacIntel,58.82352941,,,,,,down,0,1.678,,-0.037777778,0.263333333,1,0,0,0,139,139,163,1,schuilen,images/br_schuilen.png,images/cb_schuilen.png,0,,,,,,,,,,,,,,,,,,,,,,
,,,,,00071,2023-10-16_16h05.44.389,vbt_B2_day4,2022.2.4,MacIntel,58.82352941,,,,,,down,0,0.186,,-0.037777778,0.263333333,1,0,0,0,140,140,5,1,blad,images/br_blad.png,images/cb_blad.png,0,,,,,,,,,,,,,,,,,,,,,,
,,,,,00071,2023-10-16_16h05.44.389,vbt_B2_day4,2022.2.4,MacIntel,58.82352941,,,,,,down,0,4.057,,-0.037777778,0.261111111,1,0,0,0,141,141,132,1,grappen,images/br_grappen.png,images/cb_grappen.png,0,,,,,,,,,,,,,,,,,,,,,,
,,,,,00071,2023-10-16_16h05.44.389,vbt_B2_day4,2022.2.4,MacIntel,58.82352941,,,,,,down,0,0.004,,-0.038888889,0.261111111,1,0,0,0,142,142,1,1,zaal,images/br_zaal.png,images/cb_zaal.png,0,,,,,,,,,,,,,,,,,,,,,,
,,,,,00071,2023-10-16_16h05.44.389,vbt_B2_day4,2022.2.4,MacIntel,58.82352941,,,,,,down,0,2.349,,-0.037777778,0.258888889,1,0,0,0,143,143,135,1,gedicht,images/br_gedicht.png,images/cb_gedicht.png,0,,,,,,,,,,,,,,,,,,,,,,
,,,,,00071,2023-10-16_16h05.44.389,vbt_B2_day4,2022.2.4,MacIntel,58.82352941,,,,,,down,0,0.741,,-0.036666667,0.26,1,0,0,0,144,144,22,1,stof,images/br_stof.png,images/cb_stof.png,0,,,,,,,,,,,,,,,,,,,,,,
,,,,,00071,2023-10-16_16h05.44.389,vbt_B2_day4,2022.2.4,MacIntel,58.82352941,,,,,,down,0,2.827,,-0.036666667,0.26,1,0,0,0,145,145,93,1,waarop,images/br_waarop.png,images/cb_waarop.png,0,,,,,,,,,,,,,,,,,,,,,,
,,,,,00071,2023-10-16_16h05.44.389,vbt_B2_day4,2022.2.4,MacIntel,58.82352941,,,,,,down,0,2.477,,-0.036666667,0.26,1,0,0,0,146,146,199,1,beseffen,images/br_beseffen.png,images/cb_beseffen.png,0,,,,,,,,,,,,,,,,,,,,,,
,,,,,00071,2023-10-16_16h05.44.389,vbt_B2_day4,2022.2.4,MacIntel,58.82352941,,,,,,down,0,5.35,,-0.036666667,0.26,1,0,0,0,147,147,178,1,huisdier,images/br_huisdier.png,images/cb_huisdier.png,0,,,,,,,,,,,,,,,,,,,,,,
,,,,,00071,2023-10-16_16h05.44.389,vbt_B2_day4,2022.2.4,MacIntel,58.82352941,,,,,,down,0,1.416,,-0.036666667,0.26,1,0,0,0,148,148,123,1,hiervan,images/br_hiervan.png,images/cb_hiervan.png,0,,,,,,,,,,,,,,,,,,,,,,
,,,,,00071,2023-10-16_16h05.44.389,vbt_B2_day4,2022.2.4,MacIntel,58.82352941,,,,,,down,0,1.64,,-0.037777778,0.26,1,0,0,0,149,149,153,1,vervoer,images/br_vervoer.png,images/cb_vervoer.png,0,,,,,,,,,,,,,,,,,,,,,,
,,,,,00071,2023-10-16_16h05.44.389,vbt_B2_day4,2022.2.4,MacIntel,58.82352941,,,,,,down,0,1.768,,-0.037777778,0.26,1,0,0,0,150,150,76,1,afval,images/br_afval.png,images/cb_afval.png,0,,,,,,,,,,,,,,,,,,,,,,
,,,,,00071,2023-10-16_16h05.44.389,vbt_B2_day4,2022.2.4,MacIntel,58.82352941,,,,,,down,0,1.011,,-0.037777778,0.26,1,0,0,0,151,151,51,1,samen,images/br_samen.png,images/cb_samen.png,0,,,,,,,,,,,,,,,,,,,,,,
,,,,,00071,2023-10-16_16h05.44.389,vbt_B2_day4,2022.2.4,MacIntel,58.82352941,,,,,,down,0,20.633,,-0.037777778,0.26,1,0,0,0,152,152,134,1,geliefd,images/br_geliefd.png,images/cb_geliefd.png,0,,,,,,,,,,,,,,,,,,,,,,
,,,,,00071,2023-10-16_16h05.44.389,vbt_B2_day4,2022.2.4,MacIntel,58.82352941,,,,,,down,0,4.592,,-0.037777778,0.26,1,0,0,0,153,153,31,1,poes,images/br_poes.png,images/cb_poes.png,0,,,,,,,,,,,,,,,,,,,,,,
,,,,,00071,2023-10-16_16h05.44.389,vbt_B2_day4,2022.2.4,MacIntel,58.82352941,,,,,,down,0,2.932,,-0.037777778,0.26,1,0,0,0,154,154,43,1,klauw,images/br_klauw.png,images/cb_klauw.png,0,,,,,,,,,,,,,,,,,,,,,,
,,,,,00071,2023-10-16_16h05.44.389,vbt_B2_day4,2022.2.4,MacIntel,58.82352941,,,,,,down,0,2.926,,-0.037777778,0.26,1,0,0,0,155,155,33,1,vlek,images/br_vlek.png,images/cb_vlek.png,0,,,,,,,,,,,,,,,,,,,,,,
,,,,,00071,2023-10-16_16h05.44.389,vbt_B2_day4,2022.2.4,MacIntel,58.82352941,,,,,,down,0,1.019,,-0.038888889,0.257777778,1,0,0,0,156,156,181,1,toegeven,images/br_toegeven.png,images/cb_toegeven.png,0,,,,,,,,,,,,,,,,,,,,,,
,,,,,00071,2023-10-16_16h05.44.389,vbt_B2_day4,2022.2.4,MacIntel,58.82352941,,,,,,down,0,1.056,,-0.038888889,0.257777778,1,0,0,0,157,157,10,1,leek,images/br_leek.png,images/cb_leek.png,0,,,,,,,,,,,,,,,,,,,,,,
,,,,,00071,2023-10-16_16h05.44.389,vbt_B2_day4,2022.2.4,MacIntel,58.82352941,,,,,,down,0,4.483,,-0.038888889,0.257777778,1,0,0,0,158,158,165,1,feestdag,images/br_feestdag.png,images/cb_feestdag.png,0,,,,,,,,,,,,,,,,,,,,,,
,,,,,00071,2023-10-16_16h05.44.389,vbt_B2_day4,2022.2.4,MacIntel,58.82352941,,,,,,down,0,0.557,,-0.038888889,0.257777778,1,0,0,0,159,159,39,1,laag,images/br_laag.png,images/cb_laag.png,0,,,,,,,,,,,,,,,,,,,,,,
,,,,,00071,2023-10-16_16h05.44.389,vbt_B2_day4,2022.2.4,MacIntel,58.82352941,,,,,,down,0,0.865,,-0.038888889,0.257777778,1,0,0,0,160,160,49,1,laken,images/br_laken.png,images/cb_laken.png,0,,,,,,,,,,,,,,,,,,,,,,
,,,,,00071,2023-10-16_16h05.44.389,vbt_B2_day4,2022.2.4,MacIntel,58.82352941,,,,,,down,0,0.184,,-0.037777778,0.257777778,1,0,0,0,161,161,6,1,diep,images/br_diep.png,images/cb_diep.png,0,,,,,,,,,,,,,,,,,,,,,,
,,,,,00071,2023-10-16_16h05.44.389,vbt_B2_day4,2022.2.4,MacIntel,58.82352941,,,,,,down,0,1.976,,-0.037777778,0.257777778,1,0,0,0,162,162,41,1,maken,images/br_maken.png,images/cb_maken.png,0,,,,,,,,,,,,,,,,,,,,,,
,,,,,00071,2023-10-16_16h05.44.389,vbt_B2_day4,2022.2.4,MacIntel,58.82352941,,,,,,down,0,4.792,,-0.037777778,0.257777778,1,0,0,0,163,163,3,1,mand,images/br_mand.png,images/cb_mand.png,0,,,,,,,,,,,,,,,,,,,,,,
,,,,,00071,2023-10-16_16h05.44.389,vbt_B2_day4,2022.2.4,MacIntel,58.82352941,,,,,,down,0,3.686,,-0.037777778,0.257777778,1,0,0,0,164,164,9,1,hier,images/br_hier.png,images/cb_hier.png,0,,,,,,,,,,,,,,,,,,,,,,
,,,,,00071,2023-10-16_16h05.44.389,vbt_B2_day4,2022.2.4,MacIntel,58.82352941,,,,,,down,0,2.136,,-0.037777778,0.257777778,1,0,0,0,165,165,101,1,staren,images/br_staren.png,images/cb_staren.png,0,,,,,,,,,,,,,,,,,,,,,,
,,,,,00071,2023-10-16_16h05.44.389,vbt_B2_day4,2022.2.4,MacIntel,58.82352941,,,,,,down,0,2.284,,-0.037777778,0.257777778,1,0,0,0,166,166,99,1,koffie,images/br_koffie.png,images/cb_koffie.png,0,,,,,,,,,,,,,,,,,,,,,,
,,,,,00071,2023-10-16_16h05.44.389,vbt_B2_day4,2022.2.4,MacIntel,58.82352941,,,,,,down,0,1.391,,-0.037777778,0.257777778,1,0,0,0,167,167,36,1,vuur,images/br_vuur.png,images/cb_vuur.png,0,,,,,,,,,,,,,,,,,,,,,,
,,,,,00071,2023-10-16_16h05.44.389,vbt_B2_day4,2022.2.4,MacIntel,58.82352941,,,,,,down,0,0.418,,-0.037777778,0.255555556,1,0,0,0,168,168,18,1,blik,images/br_blik.png,images/cb_blik.png,0,,,,,,,,,,,,,,,,,,,,,,
,,,,,00071,2023-10-16_16h05.44.389,vbt_B2_day4,2022.2.4,MacIntel,58.82352941,,,,,,down,0,2.176,,-0.037777778,0.255555556,1,0,0,0,169,169,44,1,flits,images/br_flits.png,images/cb_flits.png,0,,,,,,,,,,,,,,,,,,,,,,
,,,,,00071,2023-10-16_16h05.44.389,vbt_B2_day4,2022.2.4,MacIntel,58.82352941,,,,,,down,0,2.05,,-0.037777778,0.255555556,1,0,0,0,170,170,62,1,knaap,images/br_knaap.png,images/cb_knaap.png,0,,,,,,,,,,,,,,,,,,,,,,
,,,,,00071,2023-10-16_16h05.44.389,vbt_B2_day4,2022.2.4,MacIntel,58.82352941,,,,,,down,0,0.459,,-0.037777778,0.253333333,1,0,0,0,171,171,151,1,aanzoek,images/br_aanzoek.png,images/cb_aanzoek.png,0,,,,,,,,,,,,,,,,,,,,,,
,,,,,00071,2023-10-16_16h05.44.389,vbt_B2_day4,2022.2.4,MacIntel,58.82352941,,,,,,down,0,1.527,,-0.037777778,0.253333333,1,0,0,0,172,172,130,1,keihard,images/br_keihard.png,images/cb_keihard.png,0,,,,,,,,,,,,,,,,,,,,,,
,,,,,00071,2023-10-16_16h05.44.389,vbt_B2_day4,2022.2.4,MacIntel,58.82352941,,,,,,down,0,2.25,,-0.037777778,0.253333333,1,0,0,0,173,173,164,1,anarchie,images/br_anarchie.png,images/cb_anarchie.png,0,,,,,,,,,,,,,,,,,,,,,,
,,,,,00071,2023-10-16_16h05.44.389,vbt_B2_day4,2022.2.4,MacIntel,58.82352941,,,,,,down,0,3.455,,-0.037777778,0.253333333,1,0,0,0,174,174,144,1,eetlust,images/br_eetlust.png,images/cb_eetlust.png,1,eetlust,,,,,,,,,,,,,,,,,,,,,
,,,,,00071,2023-10-16_16h05.44.389,vbt_B2_day4,2022.2.4,MacIntel,58.82352941,,,,,,down,0,1.315,,-0.037777778,0.254444444,1,0,0,0,175,175,177,1,maaltijd,images/br_maaltijd.png,images/cb_maaltijd.png,0,,,,,,,,,,,,,,,,,,,,,,
,,,,,00071,2023-10-16_16h05.44.389,vbt_B2_day4,2022.2.4,MacIntel,58.82352941,,,,,,down,0,0.067,,-0.037777778,0.253333333,1,0,0,0,176,176,53,1,baron,images/br_baron.png,images/cb_baron.png,0,,,,,,,,,,,,,,,,,,,,,,
,,,,,00071,2023-10-16_16h05.44.389,vbt_B2_day4,2022.2.4,MacIntel,58.82352941,,,,,,down,0,0.44,,-0.037777778,0.251111111,1,0,0,0,177,177,109,1,totaal,images/br_totaal.png,images/cb_totaal.png,0,,,,,,,,,,,,,,,,,,,,,,
,,,,,00071,2023-10-16_16h05.44.389,vbt_B2_day4,2022.2.4,MacIntel,58.82352941,,,,,,down,0,0.616,,-0.037777778,0.248888889,1,0,0,0,178,178,138,1,akkoord,images/br_akkoord.png,images/cb_akkoord.png,0,,,,,,,,,,,,,,,,,,,,,,
,,,,,00071,2023-10-16_16h05.44.389,vbt_B2_day4,2022.2.4,MacIntel,58.82352941,,,,,,down,0,0.94,,-0.037777778,0.248888889,1,0,0,0,179,179,26,1,leuk,images/br_leuk.png,images/cb_leuk.png,1,leuk,,,,,,,,,,,,,,,,,,,,,
,,,,,00071,2023-10-16_16h05.44.389,vbt_B2_day4,2022.2.4,MacIntel,58.82352941,,,,,,down,0,0.533,,-0.037777778,0.25,1,0,0,0,180,180,38,1,baai,images/br_baai.png,images/cb_baai.png,0,,,,,,,,,,,,,,,,,,,,,,
,,,,,00071,2023-10-16_16h05.44.389,vbt_B2_day4,2022.2.4,MacIntel,58.82352941,,,,,,down,0,0.609,,-0.037777778,0.25,1,0,0,0,181,181,32,1,palm,images/br_palm.png,images/cb_palm.png,0,,,,,,,,,,,,,,,,,,,,,,
,,,,,00071,2023-10-16_16h05.44.389,vbt_B2_day4,2022.2.4,MacIntel,58.82352941,,,,,,down,0,3.5,,-0.037777778,0.25,1,0,0,0,182,182,188,1,strekken,images/br_strekken.png,images/cb_strekken.png,0,,,,,,,,,,,,,,,,,,,,,,
,,,,,00071,2023-10-16_16h05.44.389,vbt_B2_day4,2022.2.4,MacIntel,58.82352941,,,,,,down,0,3.152,,-0.037777778,0.25,1,0,0,0,183,183,79,1,nodig,images/br_nodig.png,images/cb_nodig.png,0,,,,,,,,,,,,,,,,,,,,,,
,,,,,00071,2023-10-16_16h05.44.389,vbt_B2_day4,2022.2.4,MacIntel,58.82352941,,,,,,down,0,1.39,,-0.037777778,0.25,1,0,0,0,184,184,88,1,boeien,images/br_boeien.png,images/cb_boeien.png,0,,,,,,,,,,,,,,,,,,,,,,
,,,,,00071,2023-10-16_16h05.44.389,vbt_B2_day4,2022.2.4,MacIntel,58.82352941,,,,,,down,0,1.002,,-0.037777778,0.25,1,0,0,0,185,185,182,1,bijkomen,images/br_bijkomen.png,images/cb_bijkomen.png,0,,,,,,,,,,,,,,,,,,,,,,
,,,,,00071,2023-10-16_16h05.44.389,vbt_B2_day4,2022.2.4,MacIntel,58.82352941,,,,,,down,0,5.066,,-0.065555556,-0.348888889,1,0,0,0,186,186,187,1,opkijken,images/br_opkijken.png,images/cb_opkijken.png,1,opkijken ,,,,,,,,,,,,,,,,,,,,,
,,,,,00071,2023-10-16_16h05.44.389,vbt_B2_day4,2022.2.4,MacIntel,58.82352941,,,,,,down,0,1.457,,-0.066666667,-0.347777778,1,0,0,0,187,187,121,1,twijfel,images/br_twijfel.png,images/cb_twijfel.png,0,,,,,,,,,,,,,,,,,,,,,,
,,,,,00071,2023-10-16_16h05.44.389,vbt_B2_day4,2022.2.4,MacIntel,58.82352941,,,,,,down,0,1.961,,-0.066666667,-0.347777778,1,0,0,0,188,188,173,1,apparaat,images/br_apparaat.png,images/cb_apparaat.png,0,,,,,,,,,,,,,,,,,,,,,,
,,,,,00071,2023-10-16_16h05.44.389,vbt_B2_day4,2022.2.4,MacIntel,58.82352941,,,,,,down,0,0.311,,-0.066666667,-0.347777778,1,0,0,0,189,189,124,1,bloeien,images/br_bloeien.png,images/cb_bloeien.png,0,,,,,,,,,,,,,,,,,,,,,,
,,,,,00071,2023-10-16_16h05.44.389,vbt_B2_day4,2022.2.4,MacIntel,58.82352941,,,,,,down,0,0.706,,-0.066666667,-0.347777778,1,0,0,0,190,190,7,1,geld,images/br_geld.png,images/cb_geld.png,0,,,,,,,,,,,,,,,,,,,,,,
,,,,,00071,2023-10-16_16h05.44.389,vbt_B2_day4,2022.2.4,MacIntel,58.82352941,,,,,,down,0,1.019,,-0.067777778,-0.346666667,1,0,0,0,191,191,174,1,stemming,images/br_stemming.png,images/cb_stemming.png,0,,,,,,,,,,,,,,,,,,,,,,
,,,,,00071,2023-10-16_16h05.44.389,vbt_B2_day4,2022.2.4,MacIntel,58.82352941,,,,,,down,0,0.45,,-0.067777778,-0.346666667,1,0,0,0,192,192,94,1,oceaan,images/br_oceaan.png,images/cb_oceaan.png,0,,,,,,,,,,,,,,,,,,,,,,
,,,,,00071,2023-10-16_16h05.44.389,vbt_B2_day4,2022.2.4,MacIntel,58.82352941,,,,,,down,0,7.184,,-0.067777778,-0.346666667,1,0,0,0,193,193,195,1,middelen,images/br_middelen.png,images/cb_middelen.png,0,,,,,,,,,,,,,,,,,,,,,,
,,,,,00071,2023-10-16_16h05.44.389,vbt_B2_day4,2022.2.4,MacIntel,58.82352941,,,,,,down,0,0.632,,-0.067777778,-0.348888889,1,0,0,0,194,194,95,1,vreten,images/br_vreten.png,images/cb_vreten.png,0,,,,,,,,,,,,,,,,,,,,,,
,,,,,00071,2023-10-16_16h05.44.389,vbt_B2_day4,2022.2.4,MacIntel,58.82352941,,,,,,down,0,0.611,,-0.067777778,-0.348888889,1,0,0,0,195,195,110,1,zuster,images/br_zuster.png,images/cb_zuster.png,0,,,,,,,,,,,,,,,,,,,,,,
,,,,,00071,2023-10-16_16h05.44.389,vbt_B2_day4,2022.2.4,MacIntel,58.82352941,,,,,,down,0,2.718,,-0.067777778,-0.35,1,0,0,0,196,196,156,1,rechten,images/br_rechten.png,images/cb_rechten.png,0,,,,,,,,,,,,,,,,,,,,,,
,,,,,00071,2023-10-16_16h05.44.389,vbt_B2_day4,2022.2.4,MacIntel,58.82352941,,,,,,down,0,0.073,,-0.067777778,-0.35,1,0,0,0,197,197,71,1,bever,images/br_bever.png,images/cb_bever.png,0,,,,,,,,,,,,,,,,,,,,,,
,,,,,00071,2023-10-16_16h05.44.389,vbt_B2_day4,2022.2.4,MacIntel,58.82352941,,,,,,down,0,14.892,,-0.067777778,-0.35,1,0,0,0,198,198,11,1,mode,images/br_mode.png,images/cb_mode.png,0,,,,,,,,,,,,,,,,,,,,,,
,,,,,00071,2023-10-16_16h05.44.389,vbt_B2_day4,2022.2.4,MacIntel,58.82352941,,,,,,down,0,0.556,,-0.068888889,-0.351111111,1,0,0,0,199,199,148,1,smullen,images/br_smullen.png,images/cb_smullen.png,0,,,,,,,,,,,,,,,,,,,,,,
,,,,,00071,2023-10-16_16h05.44.389,vbt_B2_day4,2022.2.4,MacIntel,58.82352941,,,,,,,,,,,,,,,,,,,,,,,,,-0.07,-0.351111111,1,0,0,,,,,,,,,,,,,,,,
,,,,,00071,2023-10-16_16h05.44.389,vbt_B2_day4,2022.2.4,MacIntel,58.82352941,,,,,,,,,,,,,,,,,,,,,,,,,,,,,,-0.07,-0.351111111,1,0,0,,,,,,,,,,,
,,,,,00071,2023-10-16_16h05.44.389,vbt_B2_day4,2022.2.4,MacIntel,58.82352941,,,,,,,,,,,,,,,,,,,,soda,images/br_soda.png,images/cb_soda.png,,soda,,,,,,,,,,,-0.07,-0.351111111,1,0,0,soda,0,0,0,3,1
,,,,,00071,2023-10-16_16h05.44.389,vbt_B2_day4,2022.2.4,MacIntel,58.82352941,,,,,,,,,,,,,,,,,,,,midden,images/br_midden.png,images/cb_midden.png,,midden,,,,,,,,,,,0.024444444,-0.11,1,0,0,midden,0,1,1,50,1
,,,,,00071,2023-10-16_16h05.44.389,vbt_B2_day4,2022.2.4,MacIntel,58.82352941,,,,,,,,,,,,,,,,,,,,broodje,images/br_broodje.png,images/cb_broodje.png,,broodje,,,,,,,,,,,0.013333333,-0.014444444,1,0,0,broodje,0,2,2,55,1
,,,,,00071,2023-10-16_16h05.44.389,vbt_B2_day4,2022.2.4,MacIntel,58.82352941,,,,,,,,,,,,,,,,,,,,wozing,images/br_wozing.png,images/cb_wozing.png,,woning,,,,,,,,,,,0.013333333,-0.014444444,1,0,0,woning,0,3,3,28,1
,,,,,00071,2023-10-16_16h05.44.389,vbt_B2_day4,2022.2.4,MacIntel,58.82352941,,,,,,,,,,,,,,,,,,,,pittig,images/br_pittig.png,images/cb_pittig.png,,pittig,,,,,,,,,,,0.013333333,-0.015555556,1,0,0,pittig,0,4,4,51,1
,,,,,00071,2023-10-16_16h05.44.389,vbt_B2_day4,2022.2.4,MacIntel,58.82352941,,,,,,,,,,,,,,,,,,,,grappen,images/br_grappen.png,images/cb_grappen.png,,grappen,,,,,,,,,,,0.013333333,-0.015555556,1,0,0,grappen,0,5,5,12,1
,,,,,00071,2023-10-16_16h05.44.389,vbt_B2_day4,2022.2.4,MacIntel,58.82352941,,,,,,,,,,,,,,,,,,,,stemming,images/br_stemming.png,images/cb_stemming.png,,stemming,,,,,,,,,,,0.013333333,-0.015555556,1,0,0,stemming,0,6,6,18,1
,,,,,00071,2023-10-16_16h05.44.389,vbt_B2_day4,2022.2.4,MacIntel,58.82352941,,,,,,,,,,,,,,,,,,,,opruimen,images/br_opruimen.png,images/cb_opruimen.png,,opruimen,,,,,,,,,,,0.013333333,-0.015555556,1,0,0,opruimen,0,7,7,59,1
,,,,,00071,2023-10-16_16h05.44.389,vbt_B2_day4,2022.2.4,MacIntel,58.82352941,,,,,,,,,,,,,,,,,,,,toevol,images/br_toevol.png,images/cb_toevol.png,,toevol,,,,,,,,,,,0.022222222,0.01,1,0,0,toevol,0,8,8,29,1
,,,,,00071,2023-10-16_16h05.44.389,vbt_B2_day4,2022.2.4,MacIntel,58.82352941,,,,,,,,,,,,,,,,,,,,schotel,images/br_schotel.png,images/cb_schotel.png,,schotel,,,,,,,,,,,0.032222222,0.028888889,1,0,0,schotel,0,9,9,52,1
,,,,,00071,2023-10-16_16h05.44.389,vbt_B2_day4,2022.2.4,MacIntel,58.82352941,,,,,,,,,,,,,,,,,,,,weigeren,images/br_weigeren.png,images/cb_weigeren.png,,weigeren,,,,,,,,,,,0.222222222,0.077777778,1,0,0,weigeren,0,10,10,16,1
,,,,,00071,2023-10-16_16h05.44.389,vbt_B2_day4,2022.2.4,MacIntel,58.82352941,,,,,,,,,,,,,,,,,,,,bruin,images/br_bruin.png,images/cb_bruin.png,,bruin,,,,,,,,,,,0.222222222,0.077777778,1,0,0,bruin,0,11,11,45,1
,,,,,00071,2023-10-16_16h05.44.389,vbt_B2_day4,2022.2.4,MacIntel,58.82352941,,,,,,,,,,,,,,,,,,,,eerst,images/br_eerst.png,images/cb_eerst.png,,eerst,,,,,,,,,,,0.22,0.078888889,1,0,0,eerst,0,12,12,47,1
,,,,,00071,2023-10-16_16h05.44.389,vbt_B2_day4,2022.2.4,MacIntel,58.82352941,,,,,,,,,,,,,,,,,,,,drooien,images/br_drooien.png,images/cb_drooien.png,,drooien,,,,,,,,,,,0.028888889,-0.288888889,1,0,0,drooien,0,13,13,32,1
,,,,,00071,2023-10-16_16h05.44.389,vbt_B2_day4,2022.2.4,MacIntel,58.82352941,,,,,,,,,,,,,,,,,,,,seizoon,images/br_seizoon.png,images/cb_seizoon.png,,seizoon,,,,,,,,,,,0.014444444,-0.271111111,1,0,0,seizoon,0,14,14,33,1
,,,,,00071,2023-10-16_16h05.44.389,vbt_B2_day4,2022.2.4,MacIntel,58.82352941,,,,,,,,,,,,,,,,,,,,steen,images/br_steen.png,images/cb_steen.png,,steen,,,,,,,,,,,0.007777778,-0.192222222,1,0,0,steen,0,15,15,44,1
,,,,,00071,2023-10-16_16h05.44.389,vbt_B2_day4,2022.2.4,MacIntel,58.82352941,,,,,,,,,,,,,,,,,,,,opkicht,images/br_opkicht.png,images/cb_opkicht.png,,opzicht,,,,,,,,,,,0.018888889,-0.245555556,1,0,0,opzicht,0,16,16,34,1
,,,,,00071,2023-10-16_16h05.44.389,vbt_B2_day4,2022.2.4,MacIntel,58.82352941,,,,,,,,,,,,,,,,,,,,seizoen,images/br_seizoen.png,images/cb_seizoen.png,,seizoen,,,,,,,,,,,0.053333333,-0.105555556,1,0,0,seizoen,0,17,17,13,1
,,,,,00071,2023-10-16_16h05.44.389,vbt_B2_day4,2022.2.4,MacIntel,58.82352941,,,,,,,,,,,,,,,,,,,,snee,images/br_snee.png,images/cb_snee.png,,snee,,,,,,,,,,,0.058888889,-0.087777778,1,0,0,snee,0,18,18,40,1
,,,,,00071,2023-10-16_16h05.44.389,vbt_B2_day4,2022.2.4,MacIntel,58.82352941,,,,,,,,,,,,,,,,,,,,rijp,images/br_rijp.png,images/cb_rijp.png,,rijp,,,,,,,,,,,0.061111111,-0.051111111,1,0,0,rijp,0,19,19,2,1
,,,,,00071,2023-10-16_16h05.44.389,vbt_B2_day4,2022.2.4,MacIntel,58.82352941,,,,,,,,,,,,,,,,,,,,kust,images/br_kust.png,images/cb_kust.png,,kust,,,,,,,,,,,0.066666667,-0.03,1,0,0,kust,0,20,20,0,1
,,,,,00071,2023-10-16_16h05.44.389,vbt_B2_day4,2022.2.4,MacIntel,58.82352941,,,,,,,,,,,,,,,,,,,,drummer,images/br_drummer.png,images/cb_drummer.png,,drummer,,,,,,,,,,,0.068888889,0.01,1,0,0,drummer,0,21,21,53,1
,,,,,00071,2023-10-16_16h05.44.389,vbt_B2_day4,2022.2.4,MacIntel,58.82352941,,,,,,,,,,,,,,,,,,,,baron,images/br_baron.png,images/cb_baron.png,,baron,,,,,,,,,,,0.177777778,-0.017777778,1,0,0,baron,0,22,22,5,1
,,,,,00071,2023-10-16_16h05.44.389,vbt_B2_day4,2022.2.4,MacIntel,58.82352941,,,,,,,,,,,,,,,,,,,,schenden,images/br_schenden.png,images/cb_schenden.png,,,,,,,,,,,,,0.088888889,-0.191111111,1,0,0,,0,23,23,57,1
,,,,,00071,2023-10-16_16h05.44.389,vbt_B2_day4,2022.2.4,MacIntel,58.82352941,,,,,,,,,,,,,,,,,,,,zaalrijk,images/br_zaalrijk.png,images/cb_zaalrijk.png,,zaal....,,,,,,,,,,,0.091111111,-0.085555556,1,0,0,zaal....,0,24,24,37,1
,,,,,00071,2023-10-16_16h05.44.389,vbt_B2_day4,2022.2.4,MacIntel,58.82352941,,,,,,,,,,,,,,,,,,,,vreten,images/br_vreten.png,images/cb_vreten.png,,vret..,,,,,,,,,,,0.051111111,0.075555556,1,0,0,vret..,0,25,25,11,1
,,,,,00071,2023-10-16_16h05.44.389,vbt_B2_day4,2022.2.4,MacIntel,58.82352941,,,,,,,,,,,,,,,,,,,,haza,images/br_haza.png,images/cb_haza.png,,haza,,,,,,,,,,,0.031111111,-0.074444444,1,0,0,haza,0,26,26,21,1
,,,,,00071,2023-10-16_16h05.44.389,vbt_B2_day4,2022.2.4,MacIntel,58.82352941,,,,,,,,,,,,,,,,,,,,fran,images/br_fran.png,images/cb_fran.png,,fran,,,,,,,,,,,0.047777778,-0.012222222,1,0,0,fran,0,27,27,22,1
,,,,,00071,2023-10-16_16h05.44.389,vbt_B2_day4,2022.2.4,MacIntel,58.82352941,,,,,,,,,,,,,,,,,,,,paalbaak,images/br_paalbaak.png,images/cb_paalbaak.png,,paalbaak,,,,,,,,,,,0.043333333,-0.13,1,0,0,paalbaak,0,28,28,39,1
,,,,,00071,2023-10-16_16h05.44.389,vbt_B2_day4,2022.2.4,MacIntel,58.82352941,,,,,,,,,,,,,,,,,,,,pijnlijk,images/br_pijnlijk.png,images/cb_pijnlijk.png,,pijnlijk,,,,,,,,,,,0.043333333,-0.13,1,0,0,pijnlijk,0,29,29,58,1
,,,,,00071,2023-10-16_16h05.44.389,vbt_B2_day4,2022.2.4,MacIntel,58.82352941,,,,,,,,,,,,,,,,,,,,sulbon,images/br_sulbon.png,images/cb_sulbon.png,,sulbon,,,,,,,,,,,0.043333333,-0.13,1,0,0,sulbon,0,30,30,31,1
,,,,,00071,2023-10-16_16h05.44.389,vbt_B2_day4,2022.2.4,MacIntel,58.82352941,,,,,,,,,,,,,,,,,,,,ezel,images/br_ezel.png,images/cb_ezel.png,,ezel,,,,,,,,,,,0.043333333,-0.13,1,0,0,ezel,0,31,31,42,1
,,,,,00071,2023-10-16_16h05.44.389,vbt_B2_day4,2022.2.4,MacIntel,58.82352941,,,,,,,,,,,,,,,,,,,,oceaan,images/br_oceaan.png,images/cb_oceaan.png,,ociaan,,,,,,,,,,,0.046666667,-0.11,1,0,0,ociaan,0,32,32,10,1
,,,,,00071,2023-10-16_16h05.44.389,vbt_B2_day4,2022.2.4,MacIntel,58.82352941,,,,,,,,,,,,,,,,,,,,kaal,images/br_kaal.png,images/cb_kaal.png,,kaal,,,,,,,,,,,0.1,-0.032222222,1,0,0,kaal,0,33,33,1,1
,,,,,00071,2023-10-16_16h05.44.389,vbt_B2_day4,2022.2.4,MacIntel,58.82352941,,,,,,,,,,,,,,,,,,,,getucht,images/br_getucht.png,images/cb_getucht.png,,getuc..,,,,,,,,,,,0.037777778,-0.266666667,1,0,0,getuc..,0,34,34,35,1
,,,,,00071,2023-10-16_16h05.44.389,vbt_B2_day4,2022.2.4,MacIntel,58.82352941,,,,,,,,,,,,,,,,,,,,aanzwaag,images/br_aanzwaag.png,images/cb_aanzwaag.png,,aanzwaa.,,,,,,,,,,,0.037777778,-0.313333333,1,0,0,aanzwaa.,0,35,35,38,1
,,,,,00071,2023-10-16_16h05.44.389,vbt_B2_day4,2022.2.4,MacIntel,58.82352941,,,,,,,,,,,,,,,,,,,,gebog,images/br_gebog.png,images/cb_gebog.png,,gebog,,,,,,,,,,,0.022222222,-0.28,1,0,0,gebog,0,36,36,24,1
,,,,,00071,2023-10-16_16h05.44.389,vbt_B2_day4,2022.2.4,MacIntel,58.82352941,,,,,,,,,,,,,,,,,,,,geheim,images/br_geheim.png,images/cb_geheim.png,,geheim,,,,,,,,,,,0.027777778,-0.126666667,1,0,0,geheim,0,37,37,8,1
,,,,,00071,2023-10-16_16h05.44.389,vbt_B2_day4,2022.2.4,MacIntel,58.82352941,,,,,,,,,,,,,,,,,,,,apparaat,images/br_apparaat.png,images/cb_apparaat.png,,apparaat,,,,,,,,,,,0.045555556,-0.245555556,1,0,0,apparaat,0,38,38,17,1
,,,,,00071,2023-10-16_16h05.44.389,vbt_B2_day4,2022.2.4,MacIntel,58.82352941,,,,,,,,,,,,,,,,,,,,zwek,images/br_zwek.png,images/cb_zwek.png,,zwek,,,,,,,,,,,0.118888889,0.012222222,1,0,0,zwek,0,39,39,20,1
,,,,,00071,2023-10-16_16h05.44.389,vbt_B2_day4,2022.2.4,MacIntel,58.82352941,,,,,,,,,,,,,,,,,,,,gebit,images/br_gebit.png,images/cb_gebit.png,,gebit,,,,,,,,,,,0.115555556,0.017777778,1,0,0,gebit,0,40,40,6,1
,,,,,00071,2023-10-16_16h05.44.389,vbt_B2_day4,2022.2.4,MacIntel,58.82352941,,,,,,,,,,,,,,,,,,,,praat,images/br_praat.png,images/cb_praat.png,,praat,,,,,,,,,,,0.131111111,-0.012222222,1,0,0,praat,0,41,41,7,1
,,,,,00071,2023-10-16_16h05.44.389,vbt_B2_day4,2022.2.4,MacIntel,58.82352941,,,,,,,,,,,,,,,,,,,,tucket,images/br_tucket.png,images/cb_tucket.png,,tuck..,,,,,,,,,,,0.143333333,0.024444444,1,0,0,tuck..,0,42,42,30,1
,,,,,00071,2023-10-16_16h05.44.389,vbt_B2_day4,2022.2.4,MacIntel,58.82352941,,,,,,,,,,,,,,,,,,,,gedicht,images/br_gedicht.png,images/cb_gedicht.png,,gedicht,,,,,,,,,,,0.264444444,0.014444444,1,0,0,gedicht,0,43,43,15,1
,,,,,00071,2023-10-16_16h05.44.389,vbt_B2_day4,2022.2.4,MacIntel,58.82352941,,,,,,,,,,,,,,,,,,,,mekst,images/br_mekst.png,images/cb_mekst.png,,mekst,,,,,,,,,,,-0.011111111,-0.06,1,0,0,mekst,0,44,44,27,1
,,,,,00071,2023-10-16_16h05.44.389,vbt_B2_day4,2022.2.4,MacIntel,58.82352941,,,,,,,,,,,,,,,,,,,,geliefd,images/br_geliefd.png,images/cb_geliefd.png,,geliefd,,,,,,,,,,,0.32,-0.071111111,1,0,0,geliefd,0,45,45,14,1
,,,,,00071,2023-10-16_16h05.44.389,vbt_B2_day4,2022.2.4,MacIntel,58.82352941,,,,,,,,,,,,,,,,,,,,waarop,images/br_waarop.png,images/cb_waarop.png,,waarop,,,,,,,,,,,0.093333333,-0.043333333,1,0,0,waarop,0,46,46,9,1
,,,,,00071,2023-10-16_16h05.44.389,vbt_B2_day4,2022.2.4,MacIntel,58.82352941,,,,,,,,,,,,,,,,,,,,dalen,images/br_dalen.png,images/cb_dalen.png,,dalen,,,,,,,,,,,0.164444444,-0.023333333,1,0,0,dalen,0,47,47,46,1
,,,,,00071,2023-10-16_16h05.44.389,vbt_B2_day4,2022.2.4,MacIntel,58.82352941,,,,,,,,,,,,,,,,,,,,warel,images/br_warel.png,images/cb_warel.png,,warel,,,,,,,,,,,-0.121111111,-0.098888889,1,0,0,warel,0,48,48,26,1
,,,,,00071,2023-10-16_16h05.44.389,vbt_B2_day4,2022.2.4,MacIntel,58.82352941,,,,,,,,,,,,,,,,,,,,gaaf,images/br_gaaf.png,images/cb_gaaf.png,,gaaf,,,,,,,,,,,0.103333333,-0.033333333,1,0,0,gaaf,0,49,49,43,1
,,,,,00071,2023-10-16_16h05.44.389,vbt_B2_day4,2022.2.4,MacIntel,58.82352941,,,,,,,,,,,,,,,,,,,,dozijn,images/br_dozijn.png,images/cb_dozijn.png,,dozijn,,,,,,,,,,,0.044444444,-0.132222222,1,0,0,dozijn,0,50,50,48,1
,,,,,00071,2023-10-16_16h05.44.389,vbt_B2_day4,2022.2.4,MacIntel,58.82352941,,,,,,,,,,,,,,,,,,,,gijf,images/br_gijf.png,images/cb_gijf.png,,gijf,,,,,,,,,,,-0.002222222,-0.136666667,1,0,0,gijf,0,51,51,23,1
,,,,,00071,2023-10-16_16h05.44.389,vbt_B2_day4,2022.2.4,MacIntel,58.82352941,,,,,,,,,,,,,,,,,,,,heengaan,images/br_heengaan.png,images/cb_heengaan.png,,heengaan,,,,,,,,,,,0,-0.114444444,1,0,0,heengaan,0,52,52,19,1
,,,,,00071,2023-10-16_16h05.44.389,vbt_B2_day4,2022.2.4,MacIntel,58.82352941,,,,,,,,,,,,,,,,,,,,wagon,images/br_wagon.png,images/cb_wagon.png,,wagon,,,,,,,,,,,0.003333333,-0.095555556,1,0,0,wagon,0,53,53,4,1
,,,,,00071,2023-10-16_16h05.44.389,vbt_B2_day4,2022.2.4,MacIntel,58.82352941,,,,,,,,,,,,,,,,,,,,gaan,images/br_gaan.png,images/cb_gaan.png,,gaan,,,,,,,,,,,0.003333333,-0.095555556,1,0,0,gaan,0,54,54,41,1
,,,,,00071,2023-10-16_16h05.44.389,vbt_B2_day4,2022.2.4,MacIntel,58.82352941,,,,,,,,,,,,,,,,,,,,strok,images/br_strok.png,images/cb_strok.png,,strok,,,,,,,,,,,0.003333333,-0.096666667,1,0,0,strok,0,55,55,25,1
,,,,,00071,2023-10-16_16h05.44.389,vbt_B2_day4,2022.2.4,MacIntel,58.82352941,,,,,,,,,,,,,,,,,,,,flippen,images/br_flippen.png,images/cb_flippen.png,,flippen,,,,,,,,,,,0.015555556,-0.072222222,1,0,0,flippen,0,56,56,54,1
,,,,,00071,2023-10-16_16h05.44.389,vbt_B2_day4,2022.2.4,MacIntel,58.82352941,,,,,,,,,,,,,,,,,,,,noodzaak,images/br_noodzaak.png,images/cb_noodzaak.png,,noodzaak,,,,,,,,,,,0.224444444,0.006666667,1,0,0,noodzaak,0,57,57,56,1
,,,,,00071,2023-10-16_16h05.44.389,vbt_B2_day4,2022.2.4,MacIntel,58.82352941,,,,,,,,,,,,,,,,,,,,lappen,images/br_lappen.png,images/cb_lappen.png,,lappen,,,,,,,,,,,0.11,-0.022222222,1,0,0,lappen,0,58,58,49,1
,,,,,00071,2023-10-16_16h05.44.389,vbt_B2_day4,2022.2.4,MacIntel,58.82352941,,,,,,,,,,,,,,,,,,,,bisschap,images/br_bisschap.png,images/cb_bisschap.png,,bisschop,,,,,,,,,,,0.077777778,-0.025555556,1,0,0,bisschop,0,59,59,36,1
,,,,,00071,2023-10-16_16h05.44.389,vbt_B2_day4,2022.2.4,MacIntel,58.82352941,,,,,,,,,,,,,,,,,,,,,,,,,,,,,,,,,,,,,,,,,,,,,
