welcome_mouse.x,welcome_mouse.y,welcome_mouse.leftButton,welcome_mouse.midButton,welcome_mouse.rightButton,"ID",date,expName,psychopyVersion,OS,frameRate,trainInstr_mouse.x,trainInstr_mouse.y,trainInstr_mouse.leftButton,trainInstr_mouse.midButton,trainInstr_mouse.rightButton,translation_key.keys,translation_key.corr,translation_key.rt,word_rsp.text,trWrd_mouse.x,trWrd_mouse.y,trWrd_mouse.leftButton,trWrd_mouse.midButton,trWrd_mouse.rightButton,train_loop.thisRepN,train_loop.thisTrialN,train_loop.thisN,train_loop.thisIndex,train_loop.ran,nlWrd,brWrd,cbWrd,test,testResp,mouse.x,mouse.y,mouse.leftButton,mouse.midButton,mouse.rightButton,testInstr_mouse.x,testInstr_mouse.y,testInstr_mouse.leftButton,testInstr_mouse.midButton,testInstr_mouse.rightButton,test_mouse.x,test_mouse.y,test_mouse.leftButton,test_mouse.midButton,test_mouse.rightButton,test_response.text,test_loop.thisRepN,test_loop.thisTrialN,test_loop.thisN,test_loop.thisIndex,test_loop.ran
-0.150064494,-0.282117106,1,0,0,00014,2023-09-02_16h36.59.941,vbt_B2_day4,2022.2.4,MacIntel,60.0024001,,,,,,,,,,,,,,,,,,,,,,,,,,,,,,,,,,,,,,,,,,,,,
,,,,,00014,2023-09-02_16h36.59.941,vbt_B2_day4,2022.2.4,MacIntel,60.0024001,-0.150064494,-0.282117106,1,0,0,,,,,,,,,,,,,,,,,,,,,,,,,,,,,,,,,,,,,,,,
,,,,,00014,2023-09-02_16h36.59.941,vbt_B2_day4,2022.2.4,MacIntel,60.0024001,,,,,,down,0,0.8126,,-0.157948812,-0.254939779,1,0,0,0,0,0,19,1,geit,images/br_geit.png,images/cb_geit.png,0,,,,,,,,,,,,,,,,,,,,,,
,,,,,00014,2023-09-02_16h36.59.941,vbt_B2_day4,2022.2.4,MacIntel,60.0024001,,,,,,down,0,12.6696,,-0.18289232,-0.268081462,1,0,0,0,1,1,116,1,besmet,images/br_besmet.png,images/cb_besmet.png,0,,,,,,,,,,,,,,,,,,,,,,
,,,,,00014,2023-09-02_16h36.59.941,vbt_B2_day4,2022.2.4,MacIntel,60.0024001,,,,,,down,0,0.5755,,-0.179672852,-0.268335232,1,0,0,0,2,2,51,1,samen,images/br_samen.png,images/cb_samen.png,0,,,,,,,,,,,,,,,,,,,,,,
,,,,,00014,2023-09-02_16h36.59.941,vbt_B2_day4,2022.2.4,MacIntel,60.0024001,,,,,,down,0,2.802,,-0.179672852,-0.268335232,1,0,0,0,3,3,149,1,redding,images/br_redding.png,images/cb_redding.png,0,,,,,,,,,,,,,,,,,,,,,,
,,,,,00014,2023-09-02_16h36.59.941,vbt_B2_day4,2022.2.4,MacIntel,60.0024001,,,,,,down,0,0.3035,,-0.179672852,-0.268335232,1,0,0,0,4,4,46,1,jagen,images/br_jagen.png,images/cb_jagen.png,0,,,,,,,,,,,,,,,,,,,,,,
,,,,,00014,2023-09-02_16h36.59.941,vbt_B2_day4,2022.2.4,MacIntel,60.0024001,,,,,,down,0,1.8043,,-0.179672852,-0.268335232,1,0,0,0,5,5,184,1,aandelen,images/br_aandelen.png,images/cb_aandelen.png,1,aandelen,,,,,,,,,,,,,,,,,,,,,
,,,,,00014,2023-09-02_16h36.59.941,vbt_B2_day4,2022.2.4,MacIntel,60.0024001,,,,,,down,0,0.8835,,-0.192316895,-0.277840847,1,0,0,0,6,6,11,1,mode,images/br_mode.png,images/cb_mode.png,0,,,,,,,,,,,,,,,,,,,,,,
,,,,,00014,2023-09-02_16h36.59.941,vbt_B2_day4,2022.2.4,MacIntel,60.0024001,,,,,,down,0,2.2363,,-0.19287245,-0.278951959,1,0,0,0,7,7,126,1,kasteel,images/br_kasteel.png,images/cb_kasteel.png,0,,,,,,,,,,,,,,,,,,,,,,
,,,,,00014,2023-09-02_16h36.59.941,vbt_B2_day4,2022.2.4,MacIntel,60.0024001,,,,,,down,0,4.1161,,-0.19287245,-0.274390327,1,0,0,0,8,8,175,1,heengaan,images/br_heengaan.png,images/cb_heengaan.png,0,,,,,,,,,,,,,,,,,,,,,,
,,,,,00014,2023-09-02_16h36.59.941,vbt_B2_day4,2022.2.4,MacIntel,60.0024001,,,,,,down,0,0.641,,-0.19287245,-0.274390327,1,0,0,0,9,9,150,1,gegeven,images/br_gegeven.png,images/cb_gegeven.png,0,,,,,,,,,,,,,,,,,,,,,,
,,,,,00014,2023-09-02_16h36.59.941,vbt_B2_day4,2022.2.4,MacIntel,60.0024001,,,,,,down,0,0.9516,,-0.18387458,-0.263408407,1,0,0,0,10,10,86,1,woning,images/br_woning.png,images/cb_woning.png,0,,,,,,,,,,,,,,,,,,,,,,
,,,,,00014,2023-09-02_16h36.59.941,vbt_B2_day4,2022.2.4,MacIntel,60.0024001,,,,,,down,0,0.1692,,-0.182788764,-0.262606879,1,0,0,0,11,11,30,1,uien,images/br_uien.png,images/cb_uien.png,0,,,,,,,,,,,,,,,,,,,,,,
,,,,,00014,2023-09-02_16h36.59.941,vbt_B2_day4,2022.2.4,MacIntel,60.0024001,,,,,,down,0,0.4713,,-0.089957886,-0.069129774,1,0,0,0,12,12,18,1,blik,images/br_blik.png,images/cb_blik.png,0,,,,,,,,,,,,,,,,,,,,,,
,,,,,00014,2023-09-02_16h36.59.941,vbt_B2_day4,2022.2.4,MacIntel,60.0024001,,,,,,down,0,1.9709,,-0.089957886,-0.069129774,1,0,0,0,13,13,110,1,zuster,images/br_zuster.png,images/cb_zuster.png,0,,,,,,,,,,,,,,,,,,,,,,
,,,,,00014,2023-09-02_16h36.59.941,vbt_B2_day4,2022.2.4,MacIntel,60.0024001,,,,,,down,0,4.4218,,-0.089957886,-0.069769965,1,0,0,0,14,14,15,1,soda,images/br_soda.png,images/cb_soda.png,0,,,,,,,,,,,,,,,,,,,,,,
,,,,,00014,2023-09-02_16h36.59.941,vbt_B2_day4,2022.2.4,MacIntel,60.0024001,,,,,,down,0,4.467,,-0.089957886,-0.072547743,1,0,0,0,15,15,131,1,opzicht,images/br_opzicht.png,images/cb_opzicht.png,0,,,,,,,,,,,,,,,,,,,,,,
,,,,,00014,2023-09-02_16h36.59.941,vbt_B2_day4,2022.2.4,MacIntel,60.0024001,,,,,,down,0,0.8898,,-0.089614733,-0.072902968,1,0,0,0,16,16,17,1,taal,images/br_taal.png,images/cb_taal.png,0,,,,,,,,,,,,,,,,,,,,,,
,,,,,00014,2023-09-02_16h36.59.941,vbt_B2_day4,2022.2.4,MacIntel,60.0024001,,,,,,down,0,1.4553,,-0.089059177,-0.073756917,1,0,0,0,17,17,137,1,trekker,images/br_trekker.png,images/cb_trekker.png,0,,,,,,,,,,,,,,,,,,,,,,
,,,,,00014,2023-09-02_16h36.59.941,vbt_B2_day4,2022.2.4,MacIntel,60.0024001,,,,,,down,0,3.4538,,-0.078116659,-0.074710626,1,0,0,0,18,18,197,1,spanning,images/br_spanning.png,images/cb_spanning.png,0,,,,,,,,,,,,,,,,,,,,,,
,,,,,00014,2023-09-02_16h36.59.941,vbt_B2_day4,2022.2.4,MacIntel,60.0024001,,,,,,down,0,0.1708,,-0.078116659,-0.074198269,1,0,0,0,19,19,96,1,slagen,images/br_slagen.png,images/cb_slagen.png,0,,,,,,,,,,,,,,,,,,,,,,
,,,,,00014,2023-09-02_16h36.59.941,vbt_B2_day4,2022.2.4,MacIntel,60.0024001,,,,,,down,0,3.1153,,-0.078116659,-0.074198269,1,0,0,0,20,20,183,1,getuigen,images/br_getuigen.png,images/cb_getuigen.png,0,,,,,,,,,,,,,,,,,,,,,,
,,,,,00014,2023-09-02_16h36.59.941,vbt_B2_day4,2022.2.4,MacIntel,60.0024001,,,,,,down,0,2.2704,,-0.078116659,-0.074198269,1,0,0,0,21,21,67,1,zwart,images/br_zwart.png,images/cb_zwart.png,1,zwart,,,,,,,,,,,,,,,,,,,,,
,,,,,00014,2023-09-02_16h36.59.941,vbt_B2_day4,2022.2.4,MacIntel,60.0024001,,,,,,down,0,1.1697,,-0.078116659,-0.074198269,1,0,0,0,22,22,38,1,baai,images/br_baai.png,images/cb_baai.png,0,,,,,,,,,,,,,,,,,,,,,,
,,,,,00014,2023-09-02_16h36.59.941,vbt_B2_day4,2022.2.4,MacIntel,60.0024001,,,,,,down,0,0.9897,,-0.078116659,-0.074198269,1,0,0,0,23,23,81,1,dubbel,images/br_dubbel.png,images/cb_dubbel.png,0,,,,,,,,,,,,,,,,,,,,,,
,,,,,00014,2023-09-02_16h36.59.941,vbt_B2_day4,2022.2.4,MacIntel,60.0024001,,,,,,down,0,0.0554,,-0.078116659,-0.074198269,1,0,0,0,24,24,79,1,nodig,images/br_nodig.png,images/cb_nodig.png,0,,,,,,,,,,,,,,,,,,,,,,
,,,,,00014,2023-09-02_16h36.59.941,vbt_B2_day4,2022.2.4,MacIntel,60.0024001,,,,,,down,0,0.6526,,-0.078116659,-0.074198269,1,0,0,0,25,25,45,1,piste,images/br_piste.png,images/cb_piste.png,0,,,,,,,,,,,,,,,,,,,,,,
,,,,,00014,2023-09-02_16h36.59.941,vbt_B2_day4,2022.2.4,MacIntel,60.0024001,,,,,,down,0,1.5175,,-0.06769477,-0.069076063,1,0,0,0,26,26,125,1,aanzien,images/br_aanzien.png,images/cb_aanzien.png,0,,,,,,,,,,,,,,,,,,,,,,
,,,,,00014,2023-09-02_16h36.59.941,vbt_B2_day4,2022.2.4,MacIntel,60.0024001,,,,,,down,0,0.8033,,-0.06769477,-0.069076063,1,0,0,0,27,27,159,1,sufferd,images/br_sufferd.png,images/cb_sufferd.png,0,,,,,,,,,,,,,,,,,,,,,,
,,,,,00014,2023-09-02_16h36.59.941,vbt_B2_day4,2022.2.4,MacIntel,60.0024001,,,,,,down,0,0.9725,,-0.06769477,-0.069076063,1,0,0,0,28,28,89,1,slapen,images/br_slapen.png,images/cb_slapen.png,0,,,,,,,,,,,,,,,,,,,,,,
,,,,,00014,2023-09-02_16h36.59.941,vbt_B2_day4,2022.2.4,MacIntel,60.0024001,,,,,,down,0,2.0038,,-0.06769477,-0.069076063,1,0,0,0,29,29,199,1,beseffen,images/br_beseffen.png,images/cb_beseffen.png,0,,,,,,,,,,,,,,,,,,,,,,
,,,,,00014,2023-09-02_16h36.59.941,vbt_B2_day4,2022.2.4,MacIntel,60.0024001,,,,,,down,0,4.922,,-0.06769477,-0.069076063,1,0,0,0,30,30,59,1,kring,images/br_kring.png,images/cb_kring.png,0,,,,,,,,,,,,,,,,,,,,,,
,,,,,00014,2023-09-02_16h36.59.941,vbt_B2_day4,2022.2.4,MacIntel,60.0024001,,,,,,down,0,1.483,,-0.06769477,-0.069076063,1,0,0,0,31,31,191,1,opheffen,images/br_opheffen.png,images/cb_opheffen.png,0,,,,,,,,,,,,,,,,,,,,,,
,,,,,00014,2023-09-02_16h36.59.941,vbt_B2_day4,2022.2.4,MacIntel,60.0024001,,,,,,down,0,0.6689,,-0.06769477,-0.069076063,1,0,0,0,32,32,35,1,lust,images/br_lust.png,images/cb_lust.png,0,,,,,,,,,,,,,,,,,,,,,,
,,,,,00014,2023-09-02_16h36.59.941,vbt_B2_day4,2022.2.4,MacIntel,60.0024001,,,,,,down,0,6.1884,,-0.06769477,-0.069076063,1,0,0,0,33,33,147,1,komisch,images/br_komisch.png,images/cb_komisch.png,1,komisch,,,,,,,,,,,,,,,,,,,,,
,,,,,00014,2023-09-02_16h36.59.941,vbt_B2_day4,2022.2.4,MacIntel,60.0024001,,,,,,down,0,2.1738,,-0.06769477,-0.069076063,1,0,0,0,34,34,179,1,woestijn,images/br_woestijn.png,images/cb_woestijn.png,0,,,,,,,,,,,,,,,,,,,,,,
,,,,,00014,2023-09-02_16h36.59.941,vbt_B2_day4,2022.2.4,MacIntel,60.0024001,,,,,,down,0,0.3849,,-0.06769477,-0.069076063,1,0,0,0,35,35,23,1,zout,images/br_zout.png,images/cb_zout.png,0,,,,,,,,,,,,,,,,,,,,,,
,,,,,00014,2023-09-02_16h36.59.941,vbt_B2_day4,2022.2.4,MacIntel,60.0024001,,,,,,down,0,3.5584,,-0.06769477,-0.069076063,1,0,0,0,36,36,140,1,blijven,images/br_blijven.png,images/cb_blijven.png,0,,,,,,,,,,,,,,,,,,,,,,
,,,,,00014,2023-09-02_16h36.59.941,vbt_B2_day4,2022.2.4,MacIntel,60.0024001,,,,,,down,0,1.3714,,-0.06769477,-0.069076063,1,0,0,0,37,37,90,1,geluid,images/br_geluid.png,images/cb_geluid.png,0,,,,,,,,,,,,,,,,,,,,,,
,,,,,00014,2023-09-02_16h36.59.941,vbt_B2_day4,2022.2.4,MacIntel,60.0024001,,,,,,down,0,3.4712,,-0.055302599,-0.060616014,1,0,0,0,38,38,129,1,verhaal,images/br_verhaal.png,images/cb_verhaal.png,0,,,,,,,,,,,,,,,,,,,,,,
,,,,,00014,2023-09-02_16h36.59.941,vbt_B2_day4,2022.2.4,MacIntel,60.0024001,,,,,,down,0,1.2256,,-0.022445543,-0.044219564,1,0,0,0,39,39,171,1,aarzelen,images/br_aarzelen.png,images/cb_aarzelen.png,0,,,,,,,,,,,,,,,,,,,,,,
,,,,,00014,2023-09-02_16h36.59.941,vbt_B2_day4,2022.2.4,MacIntel,60.0024001,,,,,,down,0,2.0328,,-0.022445543,-0.044219564,1,0,0,0,40,40,44,1,flits,images/br_flits.png,images/cb_flits.png,0,,,,,,,,,,,,,,,,,,,,,,
,,,,,00014,2023-09-02_16h36.59.941,vbt_B2_day4,2022.2.4,MacIntel,60.0024001,,,,,,down,0,0.708,,-0.022445543,-0.044219564,1,0,0,0,41,41,118,1,vinger,images/br_vinger.png,images/cb_vinger.png,0,,,,,,,,,,,,,,,,,,,,,,
,,,,,00014,2023-09-02_16h36.59.941,vbt_B2_day4,2022.2.4,MacIntel,60.0024001,,,,,,down,0,0.1916,,-0.022445543,-0.044219564,1,0,0,0,42,42,132,1,grappen,images/br_grappen.png,images/cb_grappen.png,0,,,,,,,,,,,,,,,,,,,,,,
,,,,,00014,2023-09-02_16h36.59.941,vbt_B2_day4,2022.2.4,MacIntel,60.0024001,,,,,,down,0,3.4918,,-0.022445543,-0.044219564,1,0,0,0,43,43,123,1,hiervan,images/br_hiervan.png,images/cb_hiervan.png,0,,,,,,,,,,,,,,,,,,,,,,
,,,,,00014,2023-09-02_16h36.59.941,vbt_B2_day4,2022.2.4,MacIntel,60.0024001,,,,,,down,0,3.2502,,-0.022445543,-0.044219564,1,0,0,0,44,44,109,1,totaal,images/br_totaal.png,images/cb_totaal.png,0,,,,,,,,,,,,,,,,,,,,,,
,,,,,00014,2023-09-02_16h36.59.941,vbt_B2_day4,2022.2.4,MacIntel,60.0024001,,,,,,down,0,0.7514,,0.731029324,-0.351883748,1,0,0,0,45,45,172,1,weigeren,images/br_weigeren.png,images/cb_weigeren.png,0,,,,,,,,,,,,,,,,,,,,,,
,,,,,00014,2023-09-02_16h36.59.941,vbt_B2_day4,2022.2.4,MacIntel,60.0024001,,,,,,down,0,1.6497,,0.732724338,-0.342160916,1,0,0,0,46,46,14,1,rijp,images/br_rijp.png,images/cb_rijp.png,0,,,,,,,,,,,,,,,,,,,,,,
,,,,,00014,2023-09-02_16h36.59.941,vbt_B2_day4,2022.2.4,MacIntel,60.0024001,,,,,,down,0,1.3832,,0.732724338,-0.342160916,1,0,0,0,47,47,98,1,kreeft,images/br_kreeft.png,images/cb_kreeft.png,0,,,,,,,,,,,,,,,,,,,,,,
,,,,,00014,2023-09-02_16h36.59.941,vbt_B2_day4,2022.2.4,MacIntel,60.0024001,,,,,,down,0,1.9176,,0.732724338,-0.342160916,1,0,0,0,48,48,127,1,doodmoe,images/br_doodmoe.png,images/cb_doodmoe.png,0,,,,,,,,,,,,,,,,,,,,,,
,,,,,00014,2023-09-02_16h36.59.941,vbt_B2_day4,2022.2.4,MacIntel,60.0024001,,,,,,down,0,0.0548,,0.732724338,-0.342160916,1,0,0,0,49,49,120,1,klimmen,images/br_klimmen.png,images/cb_klimmen.png,0,,,,,,,,,,,,,,,,,,,,,,
,,,,,00014,2023-09-02_16h36.59.941,vbt_B2_day4,2022.2.4,MacIntel,60.0024001,,,,,,down,0,11.5348,,0.732724338,-0.342160916,1,0,0,0,50,50,130,1,keihard,images/br_keihard.png,images/cb_keihard.png,0,,,,,,,,,,,,,,,,,,,,,,
,,,,,00014,2023-09-02_16h36.59.941,vbt_B2_day4,2022.2.4,MacIntel,60.0024001,,,,,,down,0,0.3676,,0.732724338,-0.343984307,1,0,0,0,51,51,84,1,lokken,images/br_lokken.png,images/cb_lokken.png,0,,,,,,,,,,,,,,,,,,,,,,
,,,,,00014,2023-09-02_16h36.59.941,vbt_B2_day4,2022.2.4,MacIntel,60.0024001,,,,,,down,0,6.0178,,0.735399034,-0.342474772,1,0,0,0,52,52,155,1,gerucht,images/br_gerucht.png,images/cb_gerucht.png,0,,,,,,,,,,,,,,,,,,,,,,
,,,,,00014,2023-09-02_16h36.59.941,vbt_B2_day4,2022.2.4,MacIntel,60.0024001,,,,,,down,0,5.8176,,0.748106011,-0.344634264,1,0,0,0,53,53,196,1,nakijken,images/br_nakijken.png,images/cb_nakijken.png,0,,,,,,,,,,,,,,,,,,,,,,
,,,,,00014,2023-09-02_16h36.59.941,vbt_B2_day4,2022.2.4,MacIntel,60.0024001,,,,,,down,0,3.2697,,0.749314236,-0.340950385,1,0,0,0,54,54,106,1,zingen,images/br_zingen.png,images/cb_zingen.png,1,zingen,,,,,,,,,,,,,,,,,,,,,
,,,,,00014,2023-09-02_16h36.59.941,vbt_B2_day4,2022.2.4,MacIntel,60.0024001,,,,,,down,0,2.5344,,0.749628771,-0.342847833,1,0,0,0,55,55,26,1,leuk,images/br_leuk.png,images/cb_leuk.png,1,leuk,,,,,,,,,,,,,,,,,,,,,
,,,,,00014,2023-09-02_16h36.59.941,vbt_B2_day4,2022.2.4,MacIntel,60.0024001,,,,,,down,0,0.1016,,0.750739882,-0.344086982,1,0,0,0,56,56,151,1,aanzoek,images/br_aanzoek.png,images/cb_aanzoek.png,0,,,,,,,,,,,,,,,,,,,,,,
,,,,,00014,2023-09-02_16h36.59.941,vbt_B2_day4,2022.2.4,MacIntel,60.0024001,,,,,,down,0,3.4016,,0.750739882,-0.344770508,1,0,0,0,57,57,136,1,waarbij,images/br_waarbij.png,images/cb_waarbij.png,0,,,,,,,,,,,,,,,,,,,,,,
,,,,,00014,2023-09-02_16h36.59.941,vbt_B2_day4,2022.2.4,MacIntel,60.0024001,,,,,,down,0,8.5507,,0.750739882,-0.342282511,1,0,0,0,58,58,185,1,mijnheer,images/br_mijnheer.png,images/cb_mijnheer.png,1,mijnheer,,,,,,,,,,,,,,,,,,,,,
,,,,,00014,2023-09-02_16h36.59.941,vbt_B2_day4,2022.2.4,MacIntel,60.0024001,,,,,,down,0,1.2503,,0.750739882,-0.342666626,1,0,0,0,59,59,58,1,tekst,images/br_tekst.png,images/cb_tekst.png,0,,,,,,,,,,,,,,,,,,,,,,
,,,,,00014,2023-09-02_16h36.59.941,vbt_B2_day4,2022.2.4,MacIntel,60.0024001,,,,,,down,0,0.7838,,0.750739882,-0.344333293,1,0,0,0,60,60,10,1,leek,images/br_leek.png,images/cb_leek.png,0,,,,,,,,,,,,,,,,,,,,,,
,,,,,00014,2023-09-02_16h36.59.941,vbt_B2_day4,2022.2.4,MacIntel,60.0024001,,,,,,down,0,4.7663,,0.750739882,-0.346894938,1,0,0,0,61,61,187,1,opkijken,images/br_opkijken.png,images/cb_opkijken.png,1,opkijken,,,,,,,,,,,,,,,,,,,,,
,,,,,00014,2023-09-02_16h36.59.941,vbt_B2_day4,2022.2.4,MacIntel,60.0024001,,,,,,down,0,1.3,,0.750739882,-0.3467669,1,0,0,0,62,62,165,1,feestdag,images/br_feestdag.png,images/cb_feestdag.png,0,,,,,,,,,,,,,,,,,,,,,,
,,,,,00014,2023-09-02_16h36.59.941,vbt_B2_day4,2022.2.4,MacIntel,60.0024001,,,,,,down,0,3.8346,,0.752122396,-0.340263536,1,0,0,0,63,63,27,1,dans,images/br_dans.png,images/cb_dans.png,1,dans,,,,,,,,,,,,,,,,,,,,,
,,,,,00014,2023-09-02_16h36.59.941,vbt_B2_day4,2022.2.4,MacIntel,60.0024001,,,,,,down,0,0.0699,,0.763392198,-0.359352485,1,0,0,0,64,64,73,1,volop,images/br_volop.png,images/cb_volop.png,0,,,,,,,,,,,,,,,,,,,,,,
,,,,,00014,2023-09-02_16h36.59.941,vbt_B2_day4,2022.2.4,MacIntel,60.0024001,,,,,,down,0,1.0223,,0.763392198,-0.361019151,1,0,0,0,65,65,50,1,stoom,images/br_stoom.png,images/cb_stoom.png,0,,,,,,,,,,,,,,,,,,,,,,
,,,,,00014,2023-09-02_16h36.59.941,vbt_B2_day4,2022.2.4,MacIntel,60.0024001,,,,,,down,0,2.1171,,0.763392198,-0.361019151,1,0,0,0,66,66,108,1,excuus,images/br_excuus.png,images/cb_excuus.png,0,,,,,,,,,,,,,,,,,,,,,,
,,,,,00014,2023-09-02_16h36.59.941,vbt_B2_day4,2022.2.4,MacIntel,60.0024001,,,,,,down,0,0.5526,,0.763392198,-0.361019151,1,0,0,0,67,67,41,1,maken,images/br_maken.png,images/cb_maken.png,0,,,,,,,,,,,,,,,,,,,,,,
,,,,,00014,2023-09-02_16h36.59.941,vbt_B2_day4,2022.2.4,MacIntel,60.0024001,,,,,,down,0,3.7667,,0.763392198,-0.362101101,1,0,0,0,68,68,52,1,wagon,images/br_wagon.png,images/cb_wagon.png,0,,,,,,,,,,,,,,,,,,,,,,
,,,,,00014,2023-09-02_16h36.59.941,vbt_B2_day4,2022.2.4,MacIntel,60.0024001,,,,,,down,0,1.703,,0.756105008,-0.38732883,1,0,0,0,69,69,0,1,slak,images/br_slak.png,images/cb_slak.png,0,,,,,,,,,,,,,,,,,,,,,,
,,,,,00014,2023-09-02_16h36.59.941,vbt_B2_day4,2022.2.4,MacIntel,60.0024001,,,,,,down,0,0.5013,,0.756105008,-0.400520155,1,0,0,0,70,70,160,1,daarheen,images/br_daarheen.png,images/cb_daarheen.png,0,,,,,,,,,,,,,,,,,,,,,,
,,,,,00014,2023-09-02_16h36.59.941,vbt_B2_day4,2022.2.4,MacIntel,60.0024001,,,,,,down,0,0.2996,,0.760860731,-0.396482883,1,0,0,0,71,71,139,1,stiekem,images/br_stiekem.png,images/cb_stiekem.png,0,,,,,,,,,,,,,,,,,,,,,,
,,,,,00014,2023-09-02_16h36.59.941,vbt_B2_day4,2022.2.4,MacIntel,60.0024001,,,,,,down,0,8.2841,,0.760860731,-0.405890842,1,0,0,0,72,72,186,1,voorraad,images/br_voorraad.png,images/cb_voorraad.png,1,voorraad,,,,,,,,,,,,,,,,,,,,,
,,,,,00014,2023-09-02_16h36.59.941,vbt_B2_day4,2022.2.4,MacIntel,60.0024001,,,,,,down,0,6.0333,,0.565454508,-0.330941026,1,0,0,0,73,73,107,1,maling,images/br_maling.png,images/cb_maling.png,1,maling,,,,,,,,,,,,,,,,,,,,,
,,,,,00014,2023-09-02_16h36.59.941,vbt_B2_day4,2022.2.4,MacIntel,60.0024001,,,,,,down,0,1.8349,,0.568976101,-0.333345066,1,0,0,0,74,74,100,1,geduld,images/br_geduld.png,images/cb_geduld.png,0,,,,,,,,,,,,,,,,,,,,,,
,,,,,00014,2023-09-02_16h36.59.941,vbt_B2_day4,2022.2.4,MacIntel,60.0024001,,,,,,down,0,0.2539,,0.568976101,-0.333345066,1,0,0,0,75,75,39,1,laag,images/br_laag.png,images/cb_laag.png,0,,,,,,,,,,,,,,,,,,,,,,
,,,,,00014,2023-09-02_16h36.59.941,vbt_B2_day4,2022.2.4,MacIntel,60.0024001,,,,,,down,0,1.7697,,0.568976101,-0.333345066,1,0,0,0,76,76,29,1,baas,images/br_baas.png,images/cb_baas.png,0,,,,,,,,,,,,,,,,,,,,,,
,,,,,00014,2023-09-02_16h36.59.941,vbt_B2_day4,2022.2.4,MacIntel,60.0024001,,,,,,down,0,3.0673,,0.265621609,-0.108040771,1,0,0,0,77,77,36,1,vuur,images/br_vuur.png,images/cb_vuur.png,0,,,,,,,,,,,,,,,,,,,,,,
,,,,,00014,2023-09-02_16h36.59.941,vbt_B2_day4,2022.2.4,MacIntel,60.0024001,,,,,,down,0,0.3876,,0.274545831,-0.113559977,1,0,0,0,78,78,95,1,vreten,images/br_vreten.png,images/cb_vreten.png,0,,,,,,,,,,,,,,,,,,,,,,
,,,,,00014,2023-09-02_16h36.59.941,vbt_B2_day4,2022.2.4,MacIntel,60.0024001,,,,,,down,0,0.3195,,0.267450968,-0.118799913,1,0,0,0,79,79,93,1,waarop,images/br_waarop.png,images/cb_waarop.png,0,,,,,,,,,,,,,,,,,,,,,,
,,,,,00014,2023-09-02_16h36.59.941,vbt_B2_day4,2022.2.4,MacIntel,60.0024001,,,,,,down,0,0.1669,,0.268401761,-0.127470839,1,0,0,0,80,80,53,1,baron,images/br_baron.png,images/cb_baron.png,0,,,,,,,,,,,,,,,,,,,,,,
,,,,,00014,2023-09-02_16h36.59.941,vbt_B2_day4,2022.2.4,MacIntel,60.0024001,,,,,,down,0,6.5674,,0.268401761,-0.135297716,1,0,0,0,81,81,195,1,middelen,images/br_middelen.png,images/cb_middelen.png,0,,,,,,,,,,,,,,,,,,,,,,
,,,,,00014,2023-09-02_16h36.59.941,vbt_B2_day4,2022.2.4,MacIntel,60.0024001,,,,,,down,0,1.0057,,0.269170397,-0.141751777,1,0,0,0,82,82,82,1,muziek,images/br_muziek.png,images/cb_muziek.png,0,,,,,,,,,,,,,,,,,,,,,,
,,,,,00014,2023-09-02_16h36.59.941,vbt_B2_day4,2022.2.4,MacIntel,60.0024001,,,,,,down,0,2.8403,,0.268614841,-0.142862888,1,0,0,0,83,83,105,1,wijlen,images/br_wijlen.png,images/cb_wijlen.png,1,wijlen,,,,,,,,,,,,,,,,,,,,,
,,,,,00014,2023-09-02_16h36.59.941,vbt_B2_day4,2022.2.4,MacIntel,60.0024001,,,,,,down,0,0.9187,,0.268614841,-0.143247002,1,0,0,0,84,84,22,1,stof,images/br_stof.png,images/cb_stof.png,0,,,,,,,,,,,,,,,,,,,,,,
,,,,,00014,2023-09-02_16h36.59.941,vbt_B2_day4,2022.2.4,MacIntel,60.0024001,,,,,,down,0,1.6744,,0.268743083,-0.146452569,1,0,0,0,85,85,21,1,mist,images/br_mist.png,images/cb_mist.png,0,,,,,,,,,,,,,,,,,,,,,,
,,,,,00014,2023-09-02_16h36.59.941,vbt_B2_day4,2022.2.4,MacIntel,60.0024001,,,,,,down,0,0.3844,,0.268871324,-0.149326782,1,0,0,0,86,86,49,1,laken,images/br_laken.png,images/cb_laken.png,0,,,,,,,,,,,,,,,,,,,,,,
,,,,,00014,2023-09-02_16h36.59.941,vbt_B2_day4,2022.2.4,MacIntel,60.0024001,,,,,,down,0,3.4013,,0.268871324,-0.149326782,1,0,0,0,87,87,80,1,kanjer,images/br_kanjer.png,images/cb_kanjer.png,0,,,,,,,,,,,,,,,,,,,,,,
,,,,,00014,2023-09-02_16h36.59.941,vbt_B2_day4,2022.2.4,MacIntel,60.0024001,,,,,,down,0,1.7193,,0.269383816,-0.152634616,1,0,0,0,88,88,56,1,traag,images/br_traag.png,images/cb_traag.png,0,,,,,,,,,,,,,,,,,,,,,,
,,,,,00014,2023-09-02_16h36.59.941,vbt_B2_day4,2022.2.4,MacIntel,60.0024001,,,,,,down,0,3.4218,,0.269383816,-0.15351888,1,0,0,0,89,89,166,1,strikken,images/br_strikken.png,images/cb_strikken.png,0,,,,,,,,,,,,,,,,,,,,,,
,,,,,00014,2023-09-02_16h36.59.941,vbt_B2_day4,2022.2.4,MacIntel,60.0024001,,,,,,down,0,0.4036,,0.282125922,-0.163035007,1,0,0,0,90,90,78,1,leren,images/br_leren.png,images/cb_leren.png,0,,,,,,,,,,,,,,,,,,,,,,
,,,,,00014,2023-09-02_16h36.59.941,vbt_B2_day4,2022.2.4,MacIntel,60.0024001,,,,,,down,0,0.4006,,0.282125922,-0.164701674,1,0,0,0,91,91,57,1,steek,images/br_steek.png,images/cb_steek.png,0,,,,,,,,,,,,,,,,,,,,,,
,,,,,00014,2023-09-02_16h36.59.941,vbt_B2_day4,2022.2.4,MacIntel,60.0024001,,,,,,down,0,0.9853,,0.282125922,-0.164701674,1,0,0,0,92,92,188,1,strekken,images/br_strekken.png,images/cb_strekken.png,0,,,,,,,,,,,,,,,,,,,,,,
,,,,,00014,2023-09-02_16h36.59.941,vbt_B2_day4,2022.2.4,MacIntel,60.0024001,,,,,,down,0,2.4348,,0.281152005,-0.168366564,1,0,0,0,93,93,122,1,waarvan,images/br_waarvan.png,images/cb_waarvan.png,0,,,,,,,,,,,,,,,,,,,,,,
,,,,,00014,2023-09-02_16h36.59.941,vbt_B2_day4,2022.2.4,MacIntel,60.0024001,,,,,,down,0,9.2343,,0.289601712,-0.174493476,1,0,0,0,94,94,176,1,techniek,images/br_techniek.png,images/cb_techniek.png,0,,,,,,,,,,,,,,,,,,,,,,
,,,,,00014,2023-09-02_16h36.59.941,vbt_B2_day4,2022.2.4,MacIntel,60.0024001,,,,,,down,0,5.2332,,0.284515584,-0.186806098,1,0,0,0,95,95,169,1,oprotten,images/br_oprotten.png,images/cb_oprotten.png,0,,,,,,,,,,,,,,,,,,,,,,
,,,,,00014,2023-09-02_16h36.59.941,vbt_B2_day4,2022.2.4,MacIntel,60.0024001,,,,,,down,0,0.0009,,0.278664619,-0.204239434,1,0,0,0,96,96,8,1,knie,images/br_knie.png,images/cb_knie.png,0,,,,,,,,,,,,,,,,,,,,,,
,,,,,00014,2023-09-02_16h36.59.941,vbt_B2_day4,2022.2.4,MacIntel,60.0024001,,,,,,down,0,1.1721,,0.276974148,-0.208700358,1,0,0,0,97,97,12,1,kust,images/br_kust.png,images/cb_kust.png,0,,,,,,,,,,,,,,,,,,,,,,
,,,,,00014,2023-09-02_16h36.59.941,vbt_B2_day4,2022.2.4,MacIntel,60.0024001,,,,,,down,0,2.3011,,0.276285875,-0.220926039,1,0,0,0,98,98,157,1,uitlaat,images/br_uitlaat.png,images/cb_uitlaat.png,0,,,,,,,,,,,,,,,,,,,,,,
,,,,,00014,2023-09-02_16h36.59.941,vbt_B2_day4,2022.2.4,MacIntel,60.0024001,,,,,,down,0,0.3332,,0.274299452,-0.231011013,1,0,0,0,99,99,97,1,loyaal,images/br_loyaal.png,images/cb_loyaal.png,0,,,,,,,,,,,,,,,,,,,,,,
,,,,,00014,2023-09-02_16h36.59.941,vbt_B2_day4,2022.2.4,MacIntel,60.0024001,,,,,,down,0,2.5829,,0.266652425,-0.245733168,1,0,0,0,100,100,164,1,anarchie,images/br_anarchie.png,images/cb_anarchie.png,0,,,,,,,,,,,,,,,,,,,,,,
,,,,,00014,2023-09-02_16h36.59.941,vbt_B2_day4,2022.2.4,MacIntel,60.0024001,,,,,,down,0,9.2226,,0.265068698,-0.253665771,1,0,0,0,101,101,180,1,openbaar,images/br_openbaar.png,images/cb_openbaar.png,0,,,,,,,,,,,,,,,,,,,,,,
,,,,,00014,2023-09-02_16h36.59.941,vbt_B2_day4,2022.2.4,MacIntel,60.0024001,,,,,,down,0,0.3642,,0.260341661,-0.265812988,1,0,0,0,102,102,76,1,afval,images/br_afval.png,images/cb_afval.png,0,,,,,,,,,,,,,,,,,,,,,,
,,,,,00014,2023-09-02_16h36.59.941,vbt_B2_day4,2022.2.4,MacIntel,60.0024001,,,,,,down,0,9.7389,,0.268098619,-0.271422051,1,0,0,0,103,103,156,1,rechten,images/br_rechten.png,images/cb_rechten.png,0,,,,,,,,,,,,,,,,,,,,,,
,,,,,00014,2023-09-02_16h36.59.941,vbt_B2_day4,2022.2.4,MacIntel,60.0024001,,,,,,down,0,0.7701,,0.264658678,-0.281982422,1,0,0,0,104,104,31,1,poes,images/br_poes.png,images/cb_poes.png,0,,,,,,,,,,,,,,,,,,,,,,
,,,,,00014,2023-09-02_16h36.59.941,vbt_B2_day4,2022.2.4,MacIntel,60.0024001,,,,,,down,0,8.6695,,0.264023438,-0.293359578,1,0,0,0,105,105,152,1,afnemen,images/br_afnemen.png,images/cb_afnemen.png,0,,,,,,,,,,,,,,,,,,,,,,
,,,,,00014,2023-09-02_16h36.59.941,vbt_B2_day4,2022.2.4,MacIntel,60.0024001,,,,,,down,0,3.3493,,0.264023438,-0.291515774,1,0,0,0,106,106,146,1,opkomen,images/br_opkomen.png,images/cb_opkomen.png,1,opkomen,,,,,,,,,,,,,,,,,,,,,
,,,,,00014,2023-09-02_16h36.59.941,vbt_B2_day4,2022.2.4,MacIntel,60.0024001,,,,,,down,0,0.2867,,0.245405884,-0.335487671,1,0,0,0,107,107,66,1,lever,images/br_lever.png,images/cb_lever.png,1,lever,,,,,,,,,,,,,,,,,,,,,
,,,,,00014,2023-09-02_16h36.59.941,vbt_B2_day4,2022.2.4,MacIntel,60.0024001,,,,,,down,0,1.9689,,0.245405884,-0.337154338,1,0,0,0,108,108,167,1,eenhoorn,images/br_eenhoorn.png,images/cb_eenhoorn.png,0,,,,,,,,,,,,,,,,,,,,,,
,,,,,00014,2023-09-02_16h36.59.941,vbt_B2_day4,2022.2.4,MacIntel,60.0024001,,,,,,down,0,0.7161,,0.245405884,-0.337154338,1,0,0,0,109,109,72,1,strak,images/br_strak.png,images/cb_strak.png,0,,,,,,,,,,,,,,,,,,,,,,
,,,,,00014,2023-09-02_16h36.59.941,vbt_B2_day4,2022.2.4,MacIntel,60.0024001,,,,,,down,0,8.3374,,0.24785753,-0.338830295,1,0,0,0,110,110,163,1,schuilen,images/br_schuilen.png,images/cb_schuilen.png,0,,,,,,,,,,,,,,,,,,,,,,
,,,,,00014,2023-09-02_16h36.59.941,vbt_B2_day4,2022.2.4,MacIntel,60.0024001,,,,,,down,0,0.0673,,0.247059191,-0.334160631,1,0,0,0,111,111,6,1,diep,images/br_diep.png,images/cb_diep.png,0,,,,,,,,,,,,,,,,,,,,,,
,,,,,00014,2023-09-02_16h36.59.941,vbt_B2_day4,2022.2.4,MacIntel,60.0024001,,,,,,down,0,0.088,,0.247059191,-0.331808336,1,0,0,0,112,112,71,1,bever,images/br_bever.png,images/cb_bever.png,0,,,,,,,,,,,,,,,,,,,,,,
,,,,,00014,2023-09-02_16h36.59.941,vbt_B2_day4,2022.2.4,MacIntel,60.0024001,,,,,,down,0,1.2001,,0.250368585,-0.334890747,1,0,0,0,113,113,148,1,smullen,images/br_smullen.png,images/cb_smullen.png,0,,,,,,,,,,,,,,,,,,,,,,
,,,,,00014,2023-09-02_16h36.59.941,vbt_B2_day4,2022.2.4,MacIntel,60.0024001,,,,,,down,0,0.0711,,0.250368585,-0.334890747,1,0,0,0,114,114,138,1,akkoord,images/br_akkoord.png,images/cb_akkoord.png,0,,,,,,,,,,,,,,,,,,,,,,
,,,,,00014,2023-09-02_16h36.59.941,vbt_B2_day4,2022.2.4,MacIntel,60.0024001,,,,,,down,0,5.6858,,0.249728394,-0.334378594,1,0,0,0,115,115,178,1,huisdier,images/br_huisdier.png,images/cb_huisdier.png,0,,,,,,,,,,,,,,,,,,,,,,
,,,,,00014,2023-09-02_16h36.59.941,vbt_B2_day4,2022.2.4,MacIntel,60.0024001,,,,,,down,0,2.5851,,0.250656535,-0.317295193,1,0,0,0,116,116,20,1,site,images/br_site.png,images/cb_site.png,0,,,,,,,,,,,,,,,,,,,,,,
,,,,,00014,2023-09-02_16h36.59.941,vbt_B2_day4,2022.2.4,MacIntel,60.0024001,,,,,,down,0,0.6716,,0.252124091,-0.318684353,1,0,0,0,117,117,115,1,kleren,images/br_kleren.png,images/cb_kleren.png,0,,,,,,,,,,,,,,,,,,,,,,
,,,,,00014,2023-09-02_16h36.59.941,vbt_B2_day4,2022.2.4,MacIntel,60.0024001,,,,,,down,0,13.0826,,0.251686876,-0.29613227,1,0,0,0,118,118,37,1,mijn,images/br_mijn.png,images/cb_mijn.png,0,,,,,,,,,,,,,,,,,,,,,,
,,,,,00014,2023-09-02_16h36.59.941,vbt_B2_day4,2022.2.4,MacIntel,60.0024001,,,,,,down,0,0.9493,,0.251976997,-0.296131999,1,0,0,0,119,119,28,1,stal,images/br_stal.png,images/cb_stal.png,0,,,,,,,,,,,,,,,,,,,,,,
,,,,,00014,2023-09-02_16h36.59.941,vbt_B2_day4,2022.2.4,MacIntel,60.0024001,,,,,,down,0,1.5904,,0.266789483,-0.285114271,1,0,0,0,120,120,104,1,zweven,images/br_zweven.png,images/cb_zweven.png,1,zweven,,,,,,,,,,,,,,,,,,,,,
,,,,,00014,2023-09-02_16h36.59.941,vbt_B2_day4,2022.2.4,MacIntel,60.0024001,,,,,,down,0,0.7351,,0.266661445,-0.285242242,1,0,0,0,121,121,99,1,koffie,images/br_koffie.png,images/cb_koffie.png,0,,,,,,,,,,,,,,,,,,,,,,
,,,,,00014,2023-09-02_16h36.59.941,vbt_B2_day4,2022.2.4,MacIntel,60.0024001,,,,,,down,0,0.1679,,0.266105889,-0.285797797,1,0,0,0,122,122,25,1,plek,images/br_plek.png,images/cb_plek.png,1,plek,,,,,,,,,,,,,,,,,,,,,
,,,,,00014,2023-09-02_16h36.59.941,vbt_B2_day4,2022.2.4,MacIntel,60.0024001,,,,,,down,0,2.2176,,0.290399645,-0.281993951,1,0,0,0,123,123,87,1,toeval,images/br_toeval.png,images/cb_toeval.png,0,,,,,,,,,,,,,,,,,,,,,,
,,,,,00014,2023-09-02_16h36.59.941,vbt_B2_day4,2022.2.4,MacIntel,60.0024001,,,,,,down,0,1.2896,,0.294605442,-0.278300646,1,0,0,0,124,124,54,1,gebit,images/br_gebit.png,images/cb_gebit.png,0,,,,,,,,,,,,,,,,,,,,,,
,,,,,00014,2023-09-02_16h36.59.941,vbt_B2_day4,2022.2.4,MacIntel,60.0024001,,,,,,down,0,3.1655,,0.305636732,-0.274506972,1,0,0,0,125,125,111,1,ticket,images/br_ticket.png,images/cb_ticket.png,0,,,,,,,,,,,,,,,,,,,,,,
,,,,,00014,2023-09-02_16h36.59.941,vbt_B2_day4,2022.2.4,MacIntel,60.0024001,,,,,,down,0,0.2417,,0.304086507,-0.270359633,1,0,0,0,126,126,1,1,zaal,images/br_zaal.png,images/cb_zaal.png,0,,,,,,,,,,,,,,,,,,,,,,
,,,,,00014,2023-09-02_16h36.59.941,vbt_B2_day4,2022.2.4,MacIntel,60.0024001,,,,,,down,0,4.8666,,0.305413818,-0.271700507,1,0,0,0,127,127,193,1,weeshuis,images/br_weeshuis.png,images/cb_weeshuis.png,0,,,,,,,,,,,,,,,,,,,,,,
,,,,,00014,2023-09-02_16h36.59.941,vbt_B2_day4,2022.2.4,MacIntel,60.0024001,,,,,,down,0,0.3491,,0.306528998,-0.272359619,1,0,0,0,128,128,74,1,graaf,images/br_graaf.png,images/cb_graaf.png,0,,,,,,,,,,,,,,,,,,,,,,
,,,,,00014,2023-09-02_16h36.59.941,vbt_B2_day4,2022.2.4,MacIntel,60.0024001,,,,,,down,0,0.2732,,0.306528998,-0.271322293,1,0,0,0,129,129,192,1,schaamte,images/br_schaamte.png,images/cb_schaamte.png,0,,,,,,,,,,,,,,,,,,,,,,
,,,,,00014,2023-09-02_16h36.59.941,vbt_B2_day4,2022.2.4,MacIntel,60.0024001,,,,,,down,0,14.0408,,0.305632663,-0.270682034,1,0,0,0,130,130,88,1,boeien,images/br_boeien.png,images/cb_boeien.png,0,,,,,,,,,,,,,,,,,,,,,,
,,,,,00014,2023-09-02_16h36.59.941,vbt_B2_day4,2022.2.4,MacIntel,60.0024001,,,,,,down,0,0.3014,,0.309553155,-0.270377333,1,0,0,0,131,131,101,1,staren,images/br_staren.png,images/cb_staren.png,0,,,,,,,,,,,,,,,,,,,,,,
,,,,,00014,2023-09-02_16h36.59.941,vbt_B2_day4,2022.2.4,MacIntel,60.0024001,,,,,,down,0,0.8005,,0.308999973,-0.269897122,1,0,0,0,132,132,102,1,legaal,images/br_legaal.png,images/cb_legaal.png,0,,,,,,,,,,,,,,,,,,,,,,
,,,,,00014,2023-09-02_16h36.59.941,vbt_B2_day4,2022.2.4,MacIntel,60.0024001,,,,,,down,0,7.0383,,0.309518365,-0.268102756,1,0,0,0,133,133,198,1,bedoelen,images/br_bedoelen.png,images/cb_bedoelen.png,0,,,,,,,,,,,,,,,,,,,,,,
,,,,,00014,2023-09-02_16h36.59.941,vbt_B2_day4,2022.2.4,MacIntel,60.0024001,,,,,,down,0,0.4213,,0.309641385,-0.267847154,1,0,0,0,134,134,47,1,kabel,images/br_kabel.png,images/cb_kabel.png,0,,,,,,,,,,,,,,,,,,,,,,
,,,,,00014,2023-09-02_16h36.59.941,vbt_B2_day4,2022.2.4,MacIntel,60.0024001,,,,,,down,0,0.9667,,0.308819377,-0.268107503,1,0,0,0,135,135,134,1,geliefd,images/br_geliefd.png,images/cb_geliefd.png,0,,,,,,,,,,,,,,,,,,,,,,
,,,,,00014,2023-09-02_16h36.59.941,vbt_B2_day4,2022.2.4,MacIntel,60.0024001,,,,,,down,0,1.7178,,0.308819377,-0.266559923,1,0,0,0,136,136,181,1,toegeven,images/br_toegeven.png,images/cb_toegeven.png,0,,,,,,,,,,,,,,,,,,,,,,
,,,,,00014,2023-09-02_16h36.59.941,vbt_B2_day4,2022.2.4,MacIntel,60.0024001,,,,,,down,0,1.6,,0.309615953,-0.266431885,1,0,0,0,137,137,65,1,parel,images/br_parel.png,images/cb_parel.png,1,parel,,,,,,,,,,,,,,,,,,,,,
,,,,,00014,2023-09-02_16h36.59.941,vbt_B2_day4,2022.2.4,MacIntel,60.0024001,,,,,,down,0,1.9338,,0.311608751,-0.265876329,1,0,0,0,138,138,69,1,waken,images/br_waken.png,images/cb_waken.png,0,,,,,,,,,,,,,,,,,,,,,,
,,,,,00014,2023-09-02_16h36.59.941,vbt_B2_day4,2022.2.4,MacIntel,60.0024001,,,,,,down,0,0.4334,,0.311608751,-0.265876329,1,0,0,0,139,139,77,1,woede,images/br_woede.png,images/cb_woede.png,0,,,,,,,,,,,,,,,,,,,,,,
,,,,,00014,2023-09-02_16h36.59.941,vbt_B2_day4,2022.2.4,MacIntel,60.0024001,,,,,,down,0,0.6338,,0.311608751,-0.265876329,1,0,0,0,140,140,62,1,knaap,images/br_knaap.png,images/cb_knaap.png,0,,,,,,,,,,,,,,,,,,,,,,
,,,,,00014,2023-09-02_16h36.59.941,vbt_B2_day4,2022.2.4,MacIntel,60.0024001,,,,,,down,0,3.1847,,0.311608751,-0.265876329,1,0,0,0,141,141,63,1,flirt,images/br_flirt.png,images/cb_flirt.png,0,,,,,,,,,,,,,,,,,,,,,,
,,,,,00014,2023-09-02_16h36.59.941,vbt_B2_day4,2022.2.4,MacIntel,60.0024001,,,,,,down,0,4.8853,,0.325862427,-0.254046427,1,0,0,0,142,142,161,1,attentie,images/br_attentie.png,images/cb_attentie.png,0,,,,,,,,,,,,,,,,,,,,,,
,,,,,00014,2023-09-02_16h36.59.941,vbt_B2_day4,2022.2.4,MacIntel,60.0024001,,,,,,down,0,2.8673,,0.323430176,-0.250027127,1,0,0,0,143,143,117,1,kennis,images/br_kennis.png,images/cb_kennis.png,0,,,,,,,,,,,,,,,,,,,,,,
,,,,,00014,2023-09-02_16h36.59.941,vbt_B2_day4,2022.2.4,MacIntel,60.0024001,,,,,,down,0,5.5013,,0.329599542,-0.241409573,1,0,0,0,144,144,61,1,groen,images/br_groen.png,images/cb_groen.png,0,,,,,,,,,,,,,,,,,,,,,,
,,,,,00014,2023-09-02_16h36.59.941,vbt_B2_day4,2022.2.4,MacIntel,60.0024001,,,,,,down,0,0.234,,0.331438599,-0.241179606,1,0,0,0,145,145,2,1,jaar,images/br_jaar.png,images/cb_jaar.png,0,,,,,,,,,,,,,,,,,,,,,,
,,,,,00014,2023-09-02_16h36.59.941,vbt_B2_day4,2022.2.4,MacIntel,60.0024001,,,,,,down,0,4.5667,,0.334724121,-0.249790717,1,0,0,0,146,146,121,1,twijfel,images/br_twijfel.png,images/cb_twijfel.png,0,,,,,,,,,,,,,,,,,,,,,,
,,,,,00014,2023-09-02_16h36.59.941,vbt_B2_day4,2022.2.4,MacIntel,60.0024001,,,,,,down,0,3.0859,,0.346524794,-0.244761692,1,0,0,0,147,147,170,1,schatten,images/br_schatten.png,images/cb_schatten.png,0,,,,,,,,,,,,,,,,,,,,,,
,,,,,00014,2023-09-02_16h36.59.941,vbt_B2_day4,2022.2.4,MacIntel,60.0024001,,,,,,down,0,1.8054,,0.342953288,-0.259101359,1,0,0,0,148,148,174,1,stemming,images/br_stemming.png,images/cb_stemming.png,0,,,,,,,,,,,,,,,,,,,,,,
,,,,,00014,2023-09-02_16h36.59.941,vbt_B2_day4,2022.2.4,MacIntel,60.0024001,,,,,,down,0,6.2342,,0.342953288,-0.26691508,1,0,0,0,149,149,94,1,oceaan,images/br_oceaan.png,images/cb_oceaan.png,0,,,,,,,,,,,,,,,,,,,,,,
,,,,,00014,2023-09-02_16h36.59.941,vbt_B2_day4,2022.2.4,MacIntel,60.0024001,,,,,,down,0,0.2504,,0.338918457,-0.278002794,1,0,0,0,150,150,40,1,schep,images/br_schep.png,images/cb_schep.png,0,,,,,,,,,,,,,,,,,,,,,,
,,,,,00014,2023-09-02_16h36.59.941,vbt_B2_day4,2022.2.4,MacIntel,60.0024001,,,,,,down,0,3.0835,,0.343508436,-0.289342787,1,0,0,0,151,151,190,1,goedkoop,images/br_goedkoop.png,images/cb_goedkoop.png,0,,,,,,,,,,,,,,,,,,,,,,
,,,,,00014,2023-09-02_16h36.59.941,vbt_B2_day4,2022.2.4,MacIntel,60.0024001,,,,,,down,0,0.451,,0.340059543,-0.297902154,1,0,0,0,152,152,124,1,bloeien,images/br_bloeien.png,images/cb_bloeien.png,0,,,,,,,,,,,,,,,,,,,,,,
,,,,,00014,2023-09-02_16h36.59.941,vbt_B2_day4,2022.2.4,MacIntel,60.0024001,,,,,,down,0,2.3693,,0.329912652,-0.305058458,1,0,0,0,153,153,194,1,driemaal,images/br_driemaal.png,images/cb_driemaal.png,0,,,,,,,,,,,,,,,,,,,,,,
,,,,,00014,2023-09-02_16h36.59.941,vbt_B2_day4,2022.2.4,MacIntel,60.0024001,,,,,,down,0,3.5186,,0.327134332,-0.315344577,1,0,0,0,154,154,135,1,gedicht,images/br_gedicht.png,images/cb_gedicht.png,0,,,,,,,,,,,,,,,,,,,,,,
,,,,,00014,2023-09-02_16h36.59.941,vbt_B2_day4,2022.2.4,MacIntel,60.0024001,,,,,,down,0,5.334,,0.327659573,-0.31456292,1,0,0,0,155,155,145,1,invloed,images/br_invloed.png,images/cb_invloed.png,1,invloed,,,,,,,,,,,,,,,,,,,,,
,,,,,00014,2023-09-02_16h36.59.941,vbt_B2_day4,2022.2.4,MacIntel,60.0024001,,,,,,down,0,4.4348,,0.327659573,-0.31456292,1,0,0,0,156,156,42,1,bleek,images/br_bleek.png,images/cb_bleek.png,0,,,,,,,,,,,,,,,,,,,,,,
,,,,,00014,2023-09-02_16h36.59.941,vbt_B2_day4,2022.2.4,MacIntel,60.0024001,,,,,,down,0,7.8349,,0.336489868,-0.313635118,1,0,0,0,157,157,70,1,ijdel,images/br_ijdel.png,images/cb_ijdel.png,0,,,,,,,,,,,,,,,,,,,,,,
,,,,,00014,2023-09-02_16h36.59.941,vbt_B2_day4,2022.2.4,MacIntel,60.0024001,,,,,,down,0,0.2014,,0.336617906,-0.315484077,1,0,0,0,158,158,83,1,mening,images/br_mening.png,images/cb_mening.png,0,,,,,,,,,,,,,,,,,,,,,,
,,,,,00014,2023-09-02_16h36.59.941,vbt_B2_day4,2022.2.4,MacIntel,60.0024001,,,,,,down,0,3.3042,,0.337949626,-0.326386041,1,0,0,0,159,159,92,1,geheim,images/br_geheim.png,images/cb_geheim.png,0,,,,,,,,,,,,,,,,,,,,,,
,,,,,00014,2023-09-02_16h36.59.941,vbt_B2_day4,2022.2.4,MacIntel,60.0024001,,,,,,down,0,0.2686,,0.337949626,-0.333769192,1,0,0,0,160,160,34,1,vorm,images/br_vorm.png,images/cb_vorm.png,0,,,,,,,,,,,,,,,,,,,,,,
,,,,,00014,2023-09-02_16h36.59.941,vbt_B2_day4,2022.2.4,MacIntel,60.0024001,,,,,,down,0,4.4467,,0.338207737,-0.336870117,1,0,0,0,161,161,85,1,heilig,images/br_heilig.png,images/cb_heilig.png,0,,,,,,,,,,,,,,,,,,,,,,
,,,,,00014,2023-09-02_16h36.59.941,vbt_B2_day4,2022.2.4,MacIntel,60.0024001,,,,,,down,0,0.117,,0.338207737,-0.340806071,1,0,0,0,162,162,189,1,aanraden,images/br_aanraden.png,images/cb_aanraden.png,0,,,,,,,,,,,,,,,,,,,,,,
,,,,,00014,2023-09-02_16h36.59.941,vbt_B2_day4,2022.2.4,MacIntel,60.0024001,,,,,,down,0,2.4506,,0.338207737,-0.344910075,1,0,0,0,163,163,182,1,bijkomen,images/br_bijkomen.png,images/cb_bijkomen.png,0,,,,,,,,,,,,,,,,,,,,,,
,,,,,00014,2023-09-02_16h36.59.941,vbt_B2_day4,2022.2.4,MacIntel,60.0024001,,,,,,down,0,3.8011,,0.338207737,-0.348069526,1,0,0,0,164,164,162,1,uitdelen,images/br_uitdelen.png,images/cb_uitdelen.png,0,,,,,,,,,,,,,,,,,,,,,,
,,,,,00014,2023-09-02_16h36.59.941,vbt_B2_day4,2022.2.4,MacIntel,60.0024001,,,,,,down,0,5.6044,,0.338207737,-0.34954244,1,0,0,0,165,165,153,1,vervoer,images/br_vervoer.png,images/cb_vervoer.png,0,,,,,,,,,,,,,,,,,,,,,,
,,,,,00014,2023-09-02_16h36.59.941,vbt_B2_day4,2022.2.4,MacIntel,60.0024001,,,,,,down,0,2.2881,,0.338207737,-0.352530789,1,0,0,0,166,166,103,1,joggen,images/br_joggen.png,images/cb_joggen.png,0,,,,,,,,,,,,,,,,,,,,,,
,,,,,00014,2023-09-02_16h36.59.941,vbt_B2_day4,2022.2.4,MacIntel,60.0024001,,,,,,down,0,0.7817,,0.338207737,-0.355020684,1,0,0,0,167,167,16,1,ziek,images/br_ziek.png,images/cb_ziek.png,0,,,,,,,,,,,,,,,,,,,,,,
,,,,,00014,2023-09-02_16h36.59.941,vbt_B2_day4,2022.2.4,MacIntel,60.0024001,,,,,,down,0,3.6873,,0.338596734,-0.366307983,1,0,0,0,168,168,60,1,jasje,images/br_jasje.png,images/cb_jasje.png,0,,,,,,,,,,,,,,,,,,,,,,
,,,,,00014,2023-09-02_16h36.59.941,vbt_B2_day4,2022.2.4,MacIntel,60.0024001,,,,,,down,0,0.6349,,0.338245171,-0.356607869,1,0,0,0,169,169,113,1,koppen,images/br_koppen.png,images/cb_koppen.png,0,,,,,,,,,,,,,,,,,,,,,,
,,,,,00014,2023-09-02_16h36.59.941,vbt_B2_day4,2022.2.4,MacIntel,60.0024001,,,,,,down,0,1.8341,,0.341417914,-0.371244371,1,0,0,0,170,170,112,1,lukken,images/br_lukken.png,images/cb_lukken.png,0,,,,,,,,,,,,,,,,,,,,,,
,,,,,00014,2023-09-02_16h36.59.941,vbt_B2_day4,2022.2.4,MacIntel,60.0024001,,,,,,down,0,3.5699,,0.342225477,-0.367504544,1,0,0,0,171,171,48,1,steel,images/br_steel.png,images/cb_steel.png,0,,,,,,,,,,,,,,,,,,,,,,
,,,,,00014,2023-09-02_16h36.59.941,vbt_B2_day4,2022.2.4,MacIntel,60.0024001,,,,,,down,0,6.4498,,0.342759332,-0.376263292,1,0,0,0,172,172,154,1,aflopen,images/br_aflopen.png,images/cb_aflopen.png,0,,,,,,,,,,,,,,,,,,,,,,
,,,,,00014,2023-09-02_16h36.59.941,vbt_B2_day4,2022.2.4,MacIntel,60.0024001,,,,,,down,0,1.0362,,0.342728136,-0.38255995,1,0,0,0,173,173,55,1,praat,images/br_praat.png,images/cb_praat.png,0,,,,,,,,,,,,,,,,,,,,,,
,,,,,00014,2023-09-02_16h36.59.941,vbt_B2_day4,2022.2.4,MacIntel,60.0024001,,,,,,down,0,3.419,,0.340119629,-0.392547201,1,0,0,0,174,174,43,1,klauw,images/br_klauw.png,images/cb_klauw.png,0,,,,,,,,,,,,,,,,,,,,,,
,,,,,00014,2023-09-02_16h36.59.941,vbt_B2_day4,2022.2.4,MacIntel,60.0024001,,,,,,down,0,11.3015,,0.335563965,-0.405303345,1,0,0,0,175,175,143,1,hechten,images/br_hechten.png,images/cb_hechten.png,0,,,,,,,,,,,,,,,,,,,,,,
,,,,,00014,2023-09-02_16h36.59.941,vbt_B2_day4,2022.2.4,MacIntel,60.0024001,,,,,,down,0,2.0215,,0.333403998,-0.412213881,1,0,0,0,176,176,133,1,seizoen,images/br_seizoen.png,images/cb_seizoen.png,0,,,,,,,,,,,,,,,,,,,,,,
,,,,,00014,2023-09-02_16h36.59.941,vbt_B2_day4,2022.2.4,MacIntel,60.0024001,,,,,,down,0,0.5891,,0.332848443,-0.413559774,1,0,0,0,177,177,32,1,palm,images/br_palm.png,images/cb_palm.png,0,,,,,,,,,,,,,,,,,,,,,,
,,,,,00014,2023-09-02_16h36.59.941,vbt_B2_day4,2022.2.4,MacIntel,60.0024001,,,,,,down,0,6.0524,,0.336076389,-0.424524197,1,0,0,0,178,178,68,1,schat,images/br_schat.png,images/cb_schat.png,0,,,,,,,,,,,,,,,,,,,,,,
,,,,,00014,2023-09-02_16h36.59.941,vbt_B2_day4,2022.2.4,MacIntel,60.0024001,,,,,,down,0,0.353,,0.336441583,-0.419421794,1,0,0,0,179,179,33,1,vlek,images/br_vlek.png,images/cb_vlek.png,0,,,,,,,,,,,,,,,,,,,,,,
,,,,,00014,2023-09-02_16h36.59.941,vbt_B2_day4,2022.2.4,MacIntel,60.0024001,,,,,,down,0,2.0677,,0.333789198,-0.43199212,1,0,0,0,180,180,173,1,apparaat,images/br_apparaat.png,images/cb_apparaat.png,0,,,,,,,,,,,,,,,,,,,,,,
,,,,,00014,2023-09-02_16h36.59.941,vbt_B2_day4,2022.2.4,MacIntel,60.0024001,,,,,,down,0,4.4387,,0.335207723,-0.447426758,1,0,0,0,181,181,158,1,innemen,images/br_innemen.png,images/cb_innemen.png,0,,,,,,,,,,,,,,,,,,,,,,
,,,,,00014,2023-09-02_16h36.59.941,vbt_B2_day4,2022.2.4,MacIntel,60.0024001,,,,,,down,0,4.1572,,0.337091539,-0.454438205,1,0,0,0,182,182,91,1,gezond,images/br_gezond.png,images/cb_gezond.png,0,,,,,,,,,,,,,,,,,,,,,,
,,,,,00014,2023-09-02_16h36.59.941,vbt_B2_day4,2022.2.4,MacIntel,60.0024001,,,,,,down,0,4.2382,,0.327754449,-0.496130575,1,0,0,0,183,183,144,1,eetlust,images/br_eetlust.png,images/cb_eetlust.png,1,eetlust,,,,,,,,,,,,,,,,,,,,,
,,,,,00014,2023-09-02_16h36.59.941,vbt_B2_day4,2022.2.4,MacIntel,60.0024001,,,,,,down,0,0.3866,,0.331515164,-0.497954305,1,0,0,0,184,184,141,1,knielen,images/br_knielen.png,images/cb_knielen.png,0,,,,,,,,,,,,,,,,,,,,,,
,,,,,00014,2023-09-02_16h36.59.941,vbt_B2_day4,2022.2.4,MacIntel,60.0024001,,,,,,down,0,3.1855,,0.331515164,-0.497954305,1,0,0,0,185,185,3,1,mand,images/br_mand.png,images/cb_mand.png,0,,,,,,,,,,,,,,,,,,,,,,
,,,,,00014,2023-09-02_16h36.59.941,vbt_B2_day4,2022.2.4,MacIntel,60.0024001,,,,,,down,0,1.6177,,0.33725118,-0.491409641,1,0,0,0,186,186,4,1,moes,images/br_moes.png,images/cb_moes.png,0,,,,,,,,,,,,,,,,,,,,,,
,,,,,00014,2023-09-02_16h36.59.941,vbt_B2_day4,2022.2.4,MacIntel,60.0024001,,,,,,down,0,0.8017,,0.339363607,-0.491534492,1,0,0,0,187,187,9,1,hier,images/br_hier.png,images/cb_hier.png,0,,,,,,,,,,,,,,,,,,,,,,
,,,,,00014,2023-09-02_16h36.59.941,vbt_B2_day4,2022.2.4,MacIntel,60.0024001,,,,,,down,0,0.3657,,0.339363607,-0.491534492,1,0,0,0,188,188,114,1,vullen,images/br_vullen.png,images/cb_vullen.png,0,,,,,,,,,,,,,,,,,,,,,,
,,,,,00014,2023-09-02_16h36.59.941,vbt_B2_day4,2022.2.4,MacIntel,60.0024001,,,,,,down,0,0.6537,,0.339363607,-0.491534492,1,0,0,0,189,189,128,1,prikken,images/br_prikken.png,images/cb_prikken.png,0,,,,,,,,,,,,,,,,,,,,,,
,,,,,00014,2023-09-02_16h36.59.941,vbt_B2_day4,2022.2.4,MacIntel,60.0024001,,,,,,down,0,2.5365,,0.339363607,-0.490755344,1,0,0,0,190,190,64,1,wegen,images/br_wegen.png,images/cb_wegen.png,1,wegen,,,,,,,,,,,,,,,,,,,,,
,,,,,00014,2023-09-02_16h36.59.941,vbt_B2_day4,2022.2.4,MacIntel,60.0024001,,,,,,down,0,0.5513,,0.339363607,-0.490755344,1,0,0,0,191,191,75,1,snoep,images/br_snoep.png,images/cb_snoep.png,0,,,,,,,,,,,,,,,,,,,,,,
,,,,,00014,2023-09-02_16h36.59.941,vbt_B2_day4,2022.2.4,MacIntel,60.0024001,,,,,,down,0,2.101,,0.339363607,-0.490755344,1,0,0,0,192,192,119,1,liefje,images/br_liefje.png,images/cb_liefje.png,0,,,,,,,,,,,,,,,,,,,,,,
,,,,,00014,2023-09-02_16h36.59.941,vbt_B2_day4,2022.2.4,MacIntel,60.0024001,,,,,,down,0,6.9993,,0.339363607,-0.490755344,1,0,0,0,193,193,24,1,jurk,images/br_jurk.png,images/cb_jurk.png,1,jurk,,,,,,,,,,,,,,,,,,,,,
,,,,,00014,2023-09-02_16h36.59.941,vbt_B2_day4,2022.2.4,MacIntel,60.0024001,,,,,,down,0,0.3021,,0.339021132,-0.479956597,1,0,0,0,194,194,7,1,geld,images/br_geld.png,images/cb_geld.png,0,,,,,,,,,,,,,,,,,,,,,,
,,,,,00014,2023-09-02_16h36.59.941,vbt_B2_day4,2022.2.4,MacIntel,60.0024001,,,,,,down,0,2.7234,,0.340061713,-0.479043986,1,0,0,0,195,195,142,1,snuiven,images/br_snuiven.png,images/cb_snuiven.png,0,,,,,,,,,,,,,,,,,,,,,,
,,,,,00014,2023-09-02_16h36.59.941,vbt_B2_day4,2022.2.4,MacIntel,60.0024001,,,,,,down,0,0.2531,,0.343007813,-0.476772597,1,0,0,0,196,196,177,1,maaltijd,images/br_maaltijd.png,images/cb_maaltijd.png,0,,,,,,,,,,,,,,,,,,,,,,
,,,,,00014,2023-09-02_16h36.59.941,vbt_B2_day4,2022.2.4,MacIntel,60.0024001,,,,,,down,0,1.8324,,0.348897976,-0.470063612,1,0,0,0,197,197,13,1,kaal,images/br_kaal.png,images/cb_kaal.png,0,,,,,,,,,,,,,,,,,,,,,,
,,,,,00014,2023-09-02_16h36.59.941,vbt_B2_day4,2022.2.4,MacIntel,60.0024001,,,,,,down,0,0.2212,,0.348897976,-0.470063612,1,0,0,0,198,198,5,1,blad,images/br_blad.png,images/cb_blad.png,0,,,,,,,,,,,,,,,,,,,,,,
,,,,,00014,2023-09-02_16h36.59.941,vbt_B2_day4,2022.2.4,MacIntel,60.0024001,,,,,,down,0,3.9054,,0.348897976,-0.470063612,1,0,0,0,199,199,168,1,bisschop,images/br_bisschop.png,images/cb_bisschop.png,0,,,,,,,,,,,,,,,,,,,,,,
,,,,,00014,2023-09-02_16h36.59.941,vbt_B2_day4,2022.2.4,MacIntel,60.0024001,,,,,,,,,,,,,,,,,,,,,,,,,0.348323568,-0.471562297,1,0,0,,,,,,,,,,,,,,,,
,,,,,00014,2023-09-02_16h36.59.941,vbt_B2_day4,2022.2.4,MacIntel,60.0024001,,,,,,,,,,,,,,,,,,,,,,,,,,,,,,0.355547282,-0.204014757,1,0,0,,,,,,,,,,,
,,,,,00014,2023-09-02_16h36.59.941,vbt_B2_day4,2022.2.4,MacIntel,60.0024001,,,,,,,,,,,,,,,,,,,,baron,images/br_baron.png,images/cb_baron.png,,baron,,,,,,,,,,,0.355547282,-0.204014757,1,0,0,baron,0,0,0,5,1
,,,,,00014,2023-09-02_16h36.59.941,vbt_B2_day4,2022.2.4,MacIntel,60.0024001,,,,,,,,,,,,,,,,,,,,gijf,images/br_gijf.png,images/cb_gijf.png,,gijf,,,,,,,,,,,0.355547282,-0.204014757,1,0,0,gijf,0,1,1,23,1
,,,,,00014,2023-09-02_16h36.59.941,vbt_B2_day4,2022.2.4,MacIntel,60.0024001,,,,,,,,,,,,,,,,,,,,heengaan,images/br_heengaan.png,images/cb_heengaan.png,,heengaan,,,,,,,,,,,0.179047784,-0.011525777,1,0,0,heengaan,0,2,2,19,1
,,,,,00014,2023-09-02_16h36.59.941,vbt_B2_day4,2022.2.4,MacIntel,60.0024001,,,,,,,,,,,,,,,,,,,,weigeren,images/br_weigeren.png,images/cb_weigeren.png,,weigeren,,,,,,,,,,,0.179047784,-0.011525777,1,0,0,weigeren,0,3,3,16,1
,,,,,00014,2023-09-02_16h36.59.941,vbt_B2_day4,2022.2.4,MacIntel,60.0024001,,,,,,,,,,,,,,,,,,,,oceaan,images/br_oceaan.png,images/cb_oceaan.png,,oceaan,,,,,,,,,,,0.179047784,-0.011525777,1,0,0,oceaan,0,4,4,10,1
,,,,,00014,2023-09-02_16h36.59.941,vbt_B2_day4,2022.2.4,MacIntel,60.0024001,,,,,,,,,,,,,,,,,,,,zaalrijk,images/br_zaalrijk.png,images/cb_zaalrijk.png,,zaalrijk,,,,,,,,,,,0.179047784,-0.011525777,1,0,0,zaalrijk,0,5,5,37,1
,,,,,00014,2023-09-02_16h36.59.941,vbt_B2_day4,2022.2.4,MacIntel,60.0024001,,,,,,,,,,,,,,,,,,,,toevol,images/br_toevol.png,images/cb_toevol.png,,toevol,,,,,,,,,,,0.179047784,-0.011525777,1,0,0,toevol,0,6,6,29,1
,,,,,00014,2023-09-02_16h36.59.941,vbt_B2_day4,2022.2.4,MacIntel,60.0024001,,,,,,,,,,,,,,,,,,,,fran,images/br_fran.png,images/cb_fran.png,,fran,,,,,,,,,,,0.158140327,-0.051643846,1,0,0,fran,0,7,7,22,1
,,,,,00014,2023-09-02_16h36.59.941,vbt_B2_day4,2022.2.4,MacIntel,60.0024001,,,,,,,,,,,,,,,,,,,,dozijn,images/br_dozijn.png,images/cb_dozijn.png,,dozijn,,,,,,,,,,,0.145517171,-0.021031969,1,0,0,dozijn,0,8,8,48,1
,,,,,00014,2023-09-02_16h36.59.941,vbt_B2_day4,2022.2.4,MacIntel,60.0024001,,,,,,,,,,,,,,,,,,,,broodje,images/br_broodje.png,images/cb_broodje.png,,broodje,,,,,,,,,,,0.112388441,-0.049409892,1,0,0,broodje,0,9,9,55,1
,,,,,00014,2023-09-02_16h36.59.941,vbt_B2_day4,2022.2.4,MacIntel,60.0024001,,,,,,,,,,,,,,,,,,,,steen,images/br_steen.png,images/cb_steen.png,,steen,,,,,,,,,,,0.056884969,-0.079423557,1,0,0,steen,0,10,10,44,1
,,,,,00014,2023-09-02_16h36.59.941,vbt_B2_day4,2022.2.4,MacIntel,60.0024001,,,,,,,,,,,,,,,,,,,,mekst,images/br_mekst.png,images/cb_mekst.png,,makst,,,,,,,,,,,0.072851766,-0.054780986,1,0,0,makst,0,11,11,27,1
,,,,,00014,2023-09-02_16h36.59.941,vbt_B2_day4,2022.2.4,MacIntel,60.0024001,,,,,,,,,,,,,,,,,,,,gebog,images/br_gebog.png,images/cb_gebog.png,,gebon,,,,,,,,,,,0.017422011,-0.049848802,1,0,0,gebon,0,12,12,24,1
,,,,,00014,2023-09-02_16h36.59.941,vbt_B2_day4,2022.2.4,MacIntel,60.0024001,,,,,,,,,,,,,,,,,,,,opruimen,images/br_opruimen.png,images/cb_opruimen.png,,opruimen,,,,,,,,,,,0.170580919,-0.073111708,1,0,0,opruimen,0,13,13,59,1
,,,,,00014,2023-09-02_16h36.59.941,vbt_B2_day4,2022.2.4,MacIntel,60.0024001,,,,,,,,,,,,,,,,,,,,seizoen,images/br_seizoen.png,images/cb_seizoen.png,,seizoen,,,,,,,,,,,0.186961399,-0.086952176,1,0,0,seizoen,0,14,14,13,1
,,,,,00014,2023-09-02_16h36.59.941,vbt_B2_day4,2022.2.4,MacIntel,60.0024001,,,,,,,,,,,,,,,,,,,,drummer,images/br_drummer.png,images/cb_drummer.png,,drummer,,,,,,,,,,,0.111978421,-0.050359056,1,0,0,drummer,0,15,15,53,1
,,,,,00014,2023-09-02_16h36.59.941,vbt_B2_day4,2022.2.4,MacIntel,60.0024001,,,,,,,,,,,,,,,,,,,,gedicht,images/br_gedicht.png,images/cb_gedicht.png,,gedicht,,,,,,,,,,,0.061784125,-0.036925524,1,0,0,gedicht,0,16,16,15,1
,,,,,00014,2023-09-02_16h36.59.941,vbt_B2_day4,2022.2.4,MacIntel,60.0024001,,,,,,,,,,,,,,,,,,,,rijp,images/br_rijp.png,images/cb_rijp.png,,rijp,,,,,,,,,,,0.086298082,-0.04550866,1,0,0,rijp,0,17,17,2,1
,,,,,00014,2023-09-02_16h36.59.941,vbt_B2_day4,2022.2.4,MacIntel,60.0024001,,,,,,,,,,,,,,,,,,,,flippen,images/br_flippen.png,images/cb_flippen.png,,fl......,,,,,,,,,,,-0.2091352,0.004388462,1,0,0,fl......,0,18,18,54,1
,,,,,00014,2023-09-02_16h36.59.941,vbt_B2_day4,2022.2.4,MacIntel,60.0024001,,,,,,,,,,,,,,,,,,,,schenden,images/br_schenden.png,images/cb_schenden.png,,schende..,,,,,,,,,,,0.084271172,-0.014354282,1,0,0,schende..,0,19,19,57,1
,,,,,00014,2023-09-02_16h36.59.941,vbt_B2_day4,2022.2.4,MacIntel,60.0024001,,,,,,,,,,,,,,,,,,,,grappen,images/br_grappen.png,images/cb_grappen.png,,grappen,,,,,,,,,,,0.042657064,-0.028358493,1,0,0,grappen,0,20,20,12,1
,,,,,00014,2023-09-02_16h36.59.941,vbt_B2_day4,2022.2.4,MacIntel,60.0024001,,,,,,,,,,,,,,,,,,,,lappen,images/br_lappen.png,images/cb_lappen.png,,lappen,,,,,,,,,,,-0.024727715,-0.038040805,1,0,0,lappen,0,21,21,49,1
,,,,,00014,2023-09-02_16h36.59.941,vbt_B2_day4,2022.2.4,MacIntel,60.0024001,,,,,,,,,,,,,,,,,,,,soda,images/br_soda.png,images/cb_soda.png,,soda,,,,,,,,,,,0.047797445,-0.047601284,1,0,0,soda,0,22,22,3,1
,,,,,00014,2023-09-02_16h36.59.941,vbt_B2_day4,2022.2.4,MacIntel,60.0024001,,,,,,,,,,,,,,,,,,,,gaan,images/br_gaan.png,images/cb_gaan.png,,gaan,,,,,,,,,,,-0.011276652,-0.0331977,1,0,0,gaan,0,23,23,41,1
,,,,,00014,2023-09-02_16h36.59.941,vbt_B2_day4,2022.2.4,MacIntel,60.0024001,,,,,,,,,,,,,,,,,,,,paalbaak,images/br_paalbaak.png,images/cb_paalbaak.png,,paalbaak,,,,,,,,,,,0.137235311,-0.038963182,1,0,0,paalbaak,0,24,24,39,1
,,,,,00014,2023-09-02_16h36.59.941,vbt_B2_day4,2022.2.4,MacIntel,60.0024001,,,,,,,,,,,,,,,,,,,,ezel,images/br_ezel.png,images/cb_ezel.png,,ezel,,,,,,,,,,,0.073072984,-0.076491903,1,0,0,ezel,0,25,25,42,1
,,,,,00014,2023-09-02_16h36.59.941,vbt_B2_day4,2022.2.4,MacIntel,60.0024001,,,,,,,,,,,,,,,,,,,,stemming,images/br_stemming.png,images/cb_stemming.png,,stemming,,,,,,,,,,,-0.058118761,-0.008622742,1,0,0,stemming,0,26,26,18,1
,,,,,00014,2023-09-02_16h36.59.941,vbt_B2_day4,2022.2.4,MacIntel,60.0024001,,,,,,,,,,,,,,,,,,,,waarop,images/br_waarop.png,images/cb_waarop.png,,waarop,,,,,,,,,,,0.048756714,-0.084003838,1,0,0,waarop,0,27,27,9,1
,,,,,00014,2023-09-02_16h36.59.941,vbt_B2_day4,2022.2.4,MacIntel,60.0024001,,,,,,,,,,,,,,,,,,,,pittig,images/br_pittig.png,images/cb_pittig.png,,pikk..,,,,,,,,,,,-0.11813246,-0.011418084,1,0,0,pikk..,0,28,28,51,1
,,,,,00014,2023-09-02_16h36.59.941,vbt_B2_day4,2022.2.4,MacIntel,60.0024001,,,,,,,,,,,,,,,,,,,,bisschap,images/br_bisschap.png,images/cb_bisschap.png,,bisschop,,,,,,,,,,,0.126685655,-0.023828498,1,0,0,bisschop,0,29,29,36,1
,,,,,00014,2023-09-02_16h36.59.941,vbt_B2_day4,2022.2.4,MacIntel,60.0024001,,,,,,,,,,,,,,,,,,,,getucht,images/br_getucht.png,images/cb_getucht.png,,getuc..,,,,,,,,,,,0.04157152,-0.030907423,1,0,0,getuc..,0,30,30,35,1
,,,,,00014,2023-09-02_16h36.59.941,vbt_B2_day4,2022.2.4,MacIntel,60.0024001,,,,,,,,,,,,,,,,,,,,opkicht,images/br_opkicht.png,images/cb_opkicht.png,,opkicht,,,,,,,,,,,0.089990641,-0.017001851,1,0,0,opkicht,0,31,31,34,1
,,,,,00014,2023-09-02_16h36.59.941,vbt_B2_day4,2022.2.4,MacIntel,60.0024001,,,,,,,,,,,,,,,,,,,,warel,images/br_warel.png,images/cb_warel.png,,warel,,,,,,,,,,,-0.03379659,-0.0352103,1,0,0,warel,0,32,32,26,1
,,,,,00014,2023-09-02_16h36.59.941,vbt_B2_day4,2022.2.4,MacIntel,60.0024001,,,,,,,,,,,,,,,,,,,,haza,images/br_haza.png,images/cb_haza.png,,haza,,,,,,,,,,,-0.03379659,-0.0352103,1,0,0,haza,0,33,33,21,1
,,,,,00014,2023-09-02_16h36.59.941,vbt_B2_day4,2022.2.4,MacIntel,60.0024001,,,,,,,,,,,,,,,,,,,,eerst,images/br_eerst.png,images/cb_eerst.png,,eerst,,,,,,,,,,,0.046609972,-0.036082933,1,0,0,eerst,0,34,34,47,1
,,,,,00014,2023-09-02_16h36.59.941,vbt_B2_day4,2022.2.4,MacIntel,60.0024001,,,,,,,,,,,,,,,,,,,,praat,images/br_praat.png,images/cb_praat.png,,praat,,,,,,,,,,,0.03326355,-0.060046251,1,0,0,praat,0,35,35,7,1
,,,,,00014,2023-09-02_16h36.59.941,vbt_B2_day4,2022.2.4,MacIntel,60.0024001,,,,,,,,,,,,,,,,,,,,snee,images/br_snee.png,images/cb_snee.png,,snee,,,,,,,,,,,0.135061917,-0.116347588,1,0,0,snee,0,36,36,40,1
,,,,,00014,2023-09-02_16h36.59.941,vbt_B2_day4,2022.2.4,MacIntel,60.0024001,,,,,,,,,,,,,,,,,,,,kaal,images/br_kaal.png,images/cb_kaal.png,,kaal,,,,,,,,,,,0.12531406,-0.091903754,1,0,0,kaal,0,37,37,1,1
,,,,,00014,2023-09-02_16h36.59.941,vbt_B2_day4,2022.2.4,MacIntel,60.0024001,,,,,,,,,,,,,,,,,,,,bruin,images/br_bruin.png,images/cb_bruin.png,,bruin,,,,,,,,,,,0.159844293,-0.152576226,1,0,0,bruin,0,38,38,45,1
,,,,,00014,2023-09-02_16h36.59.941,vbt_B2_day4,2022.2.4,MacIntel,60.0024001,,,,,,,,,,,,,,,,,,,,strok,images/br_strok.png,images/cb_strok.png,,strok,,,,,,,,,,,-0.063930935,-0.094293755,1,0,0,strok,0,39,39,25,1
,,,,,00014,2023-09-02_16h36.59.941,vbt_B2_day4,2022.2.4,MacIntel,60.0024001,,,,,,,,,,,,,,,,,,,,seizoon,images/br_seizoon.png,images/cb_seizoon.png,,seizoon,,,,,,,,,,,0.062601861,-0.041115011,1,0,0,seizoon,0,40,40,33,1
,,,,,00014,2023-09-02_16h36.59.941,vbt_B2_day4,2022.2.4,MacIntel,60.0024001,,,,,,,,,,,,,,,,,,,,wozing,images/br_wozing.png,images/cb_wozing.png,,wozing,,,,,,,,,,,0.078140055,-0.008555332,1,0,0,wozing,0,41,41,28,1
,,,,,00014,2023-09-02_16h36.59.941,vbt_B2_day4,2022.2.4,MacIntel,60.0024001,,,,,,,,,,,,,,,,,,,,apparaat,images/br_apparaat.png,images/cb_apparaat.png,,apparaat,,,,,,,,,,,0.097382677,-0.096701253,1,0,0,apparaat,0,42,42,17,1
,,,,,00014,2023-09-02_16h36.59.941,vbt_B2_day4,2022.2.4,MacIntel,60.0024001,,,,,,,,,,,,,,,,,,,,drooien,images/br_drooien.png,images/cb_drooien.png,,drooien,,,,,,,,,,,0.097382677,-0.096701253,1,0,0,drooien,0,43,43,32,1
,,,,,00014,2023-09-02_16h36.59.941,vbt_B2_day4,2022.2.4,MacIntel,60.0024001,,,,,,,,,,,,,,,,,,,,kust,images/br_kust.png,images/cb_kust.png,,kusg,,,,,,,,,,,0.089826864,-0.10312283,1,0,0,kusg,0,44,44,0,1
,,,,,00014,2023-09-02_16h36.59.941,vbt_B2_day4,2022.2.4,MacIntel,60.0024001,,,,,,,,,,,,,,,,,,,,gebit,images/br_gebit.png,images/cb_gebit.png,,gebe.,,,,,,,,,,,0.089826864,-0.10312283,1,0,0,gebe.,0,45,45,6,1
,,,,,00014,2023-09-02_16h36.59.941,vbt_B2_day4,2022.2.4,MacIntel,60.0024001,,,,,,,,,,,,,,,,,,,,gaaf,images/br_gaaf.png,images/cb_gaaf.png,,gaaf,,,,,,,,,,,0.092651571,-0.113158095,1,0,0,gaaf,0,46,46,43,1
,,,,,00014,2023-09-02_16h36.59.941,vbt_B2_day4,2022.2.4,MacIntel,60.0024001,,,,,,,,,,,,,,,,,,,,wagon,images/br_wagon.png,images/cb_wagon.png,,wagon,,,,,,,,,,,-0.012603556,-0.015976902,1,0,0,wagon,0,47,47,4,1
,,,,,00014,2023-09-02_16h36.59.941,vbt_B2_day4,2022.2.4,MacIntel,60.0024001,,,,,,,,,,,,,,,,,,,,aanzwaag,images/br_aanzwaag.png,images/cb_aanzwaag.png,,aanzwee.,,,,,,,,,,,0.050760091,-0.081871134,1,0,0,aanzwee.,0,48,48,38,1
,,,,,00014,2023-09-02_16h36.59.941,vbt_B2_day4,2022.2.4,MacIntel,60.0024001,,,,,,,,,,,,,,,,,,,,noodzaak,images/br_noodzaak.png,images/cb_noodzaak.png,,noodzaak,,,,,,,,,,,0.181648085,-0.035790405,1,0,0,noodzaak,0,49,49,56,1
,,,,,00014,2023-09-02_16h36.59.941,vbt_B2_day4,2022.2.4,MacIntel,60.0024001,,,,,,,,,,,,,,,,,,,,schotel,images/br_schotel.png,images/cb_schotel.png,,schotel,,,,,,,,,,,0.175221829,-0.116037055,1,0,0,schotel,0,50,50,52,1
,,,,,00014,2023-09-02_16h36.59.941,vbt_B2_day4,2022.2.4,MacIntel,60.0024001,,,,,,,,,,,,,,,,,,,,geliefd,images/br_geliefd.png,images/cb_geliefd.png,,geliefd,,,,,,,,,,,0.055856798,-0.047781474,1,0,0,geliefd,0,51,51,14,1
,,,,,00014,2023-09-02_16h36.59.941,vbt_B2_day4,2022.2.4,MacIntel,60.0024001,,,,,,,,,,,,,,,,,,,,pijnlijk,images/br_pijnlijk.png,images/cb_pijnlijk.png,,peinl...,,,,,,,,,,,0.055856798,-0.047781474,1,0,0,peinl...,0,52,52,58,1
,,,,,00014,2023-09-02_16h36.59.941,vbt_B2_day4,2022.2.4,MacIntel,60.0024001,,,,,,,,,,,,,,,,,,,,geheim,images/br_geheim.png,images/cb_geheim.png,,geheiu,,,,,,,,,,,0.016858181,-0.036580336,1,0,0,geheiu,0,53,53,8,1
,,,,,00014,2023-09-02_16h36.59.941,vbt_B2_day4,2022.2.4,MacIntel,60.0024001,,,,,,,,,,,,,,,,,,,,zwek,images/br_zwek.png,images/cb_zwek.png,,zwek,,,,,,,,,,,-0.038431939,-0.054219971,1,0,0,zwek,0,54,54,20,1
,,,,,00014,2023-09-02_16h36.59.941,vbt_B2_day4,2022.2.4,MacIntel,60.0024001,,,,,,,,,,,,,,,,,,,,vreten,images/br_vreten.png,images/cb_vreten.png,,vreten,,,,,,,,,,,0.042851223,-0.029429762,1,0,0,vreten,0,55,55,11,1
,,,,,00014,2023-09-02_16h36.59.941,vbt_B2_day4,2022.2.4,MacIntel,60.0024001,,,,,,,,,,,,,,,,,,,,sulbon,images/br_sulbon.png,images/cb_sulbon.png,,sulbon,,,,,,,,,,,-0.082137316,-0.075606689,1,0,0,sulbon,0,56,56,31,1
,,,,,00014,2023-09-02_16h36.59.941,vbt_B2_day4,2022.2.4,MacIntel,60.0024001,,,,,,,,,,,,,,,,,,,,dalen,images/br_dalen.png,images/cb_dalen.png,,dalen,,,,,,,,,,,-0.082137316,-0.075606689,1,0,0,dalen,0,57,57,46,1
,,,,,00014,2023-09-02_16h36.59.941,vbt_B2_day4,2022.2.4,MacIntel,60.0024001,,,,,,,,,,,,,,,,,,,,midden,images/br_midden.png,images/cb_midden.png,,midden,,,,,,,,,,,-0.067170749,-0.054027778,1,0,0,midden,0,58,58,50,1
,,,,,00014,2023-09-02_16h36.59.941,vbt_B2_day4,2022.2.4,MacIntel,60.0024001,,,,,,,,,,,,,,,,,,,,tucket,images/br_tucket.png,images/cb_tucket.png,,tuich..,,,,,,,,,,,0.033924357,-0.032201538,1,0,0,tuich..,0,59,59,30,1
,,,,,00014,2023-09-02_16h36.59.941,vbt_B2_day4,2022.2.4,MacIntel,60.0024001,,,,,,,,,,,,,,,,,,,,,,,,,,,,,,,,,,,,,,,,,,,,,
