welcome_mouse.x,welcome_mouse.y,welcome_mouse.leftButton,welcome_mouse.midButton,welcome_mouse.rightButton,"ID",date,expName,psychopyVersion,OS,frameRate,trainInstr_mouse.x,trainInstr_mouse.y,trainInstr_mouse.leftButton,trainInstr_mouse.midButton,trainInstr_mouse.rightButton,translation_key.keys,translation_key.corr,translation_key.rt,word_rsp.text,trWrd_mouse.x,trWrd_mouse.y,trWrd_mouse.leftButton,trWrd_mouse.midButton,trWrd_mouse.rightButton,train_loop.thisRepN,train_loop.thisTrialN,train_loop.thisN,train_loop.thisIndex,train_loop.ran,nlWrd,brWrd,cbWrd,test,testResp,mouse.x,mouse.y,mouse.leftButton,mouse.midButton,mouse.rightButton,testInstr_mouse.x,testInstr_mouse.y,testInstr_mouse.leftButton,testInstr_mouse.midButton,testInstr_mouse.rightButton,test_mouse.x,test_mouse.y,test_mouse.leftButton,test_mouse.midButton,test_mouse.rightButton,test_response.text,test_loop.thisRepN,test_loop.thisTrialN,test_loop.thisN,test_loop.thisIndex,test_loop.ran
-0.190104167,-0.2578125,1,0,0,00054,2023-10-12_22h26.00.494,vbt_B2_day4,2022.2.4,Win32,60.3646022,,,,,,,,,,,,,,,,,,,,,,,,,,,,,,,,,,,,,,,,,,,,,
,,,,,00054,2023-10-12_22h26.00.494,vbt_B2_day4,2022.2.4,Win32,60.3646022,-0.190104167,-0.2578125,1,0,0,,,,,,,,,,,,,,,,,,,,,,,,,,,,,,,,,,,,,,,,
,,,,,00054,2023-10-12_22h26.00.494,vbt_B2_day4,2022.2.4,Win32,60.3646022,,,,,,down,0,3.0349,,-0.190104167,-0.2578125,1,0,0,0,0,0,173,1,apparaat,images/br_apparaat.png,images/cb_apparaat.png,0,,,,,,,,,,,,,,,,,,,,,,
,,,,,00054,2023-10-12_22h26.00.494,vbt_B2_day4,2022.2.4,Win32,60.3646022,,,,,,down,0,1.4112,,-0.190104167,-0.2578125,1,0,0,0,1,1,154,1,aflopen,images/br_aflopen.png,images/cb_aflopen.png,0,,,,,,,,,,,,,,,,,,,,,,
,,,,,00054,2023-10-12_22h26.00.494,vbt_B2_day4,2022.2.4,Win32,60.3646022,,,,,,down,0,0.6175,,-0.1875,-0.265625,1,0,0,0,2,2,125,1,aanzien,images/br_aanzien.png,images/cb_aanzien.png,0,,,,,,,,,,,,,,,,,,,,,,
,,,,,00054,2023-10-12_22h26.00.494,vbt_B2_day4,2022.2.4,Win32,60.3646022,,,,,,down,0,1.0617,,-0.1875,-0.265625,1,0,0,0,3,3,170,1,schatten,images/br_schatten.png,images/cb_schatten.png,0,,,,,,,,,,,,,,,,,,,,,,
,,,,,00054,2023-10-12_22h26.00.494,vbt_B2_day4,2022.2.4,Win32,60.3646022,,,,,,down,0,1.907,,-0.1875,-0.265625,1,0,0,0,4,4,18,1,blik,images/br_blik.png,images/cb_blik.png,0,,,,,,,,,,,,,,,,,,,,,,
,,,,,00054,2023-10-12_22h26.00.494,vbt_B2_day4,2022.2.4,Win32,60.3646022,,,,,,down,0,8.0414,,-0.1875,-0.265625,1,0,0,0,5,5,190,1,goedkoop,images/br_goedkoop.png,images/cb_goedkoop.png,0,,,,,,,,,,,,,,,,,,,,,,
,,,,,00054,2023-10-12_22h26.00.494,vbt_B2_day4,2022.2.4,Win32,60.3646022,,,,,,down,0,4.0089,,-0.1875,-0.265625,1,0,0,0,6,6,127,1,doodmoe,images/br_doodmoe.png,images/cb_doodmoe.png,0,,,,,,,,,,,,,,,,,,,,,,
,,,,,00054,2023-10-12_22h26.00.494,vbt_B2_day4,2022.2.4,Win32,60.3646022,,,,,,down,0,1.2763,,-0.1875,-0.265625,1,0,0,0,7,7,78,1,leren,images/br_leren.png,images/cb_leren.png,0,,,,,,,,,,,,,,,,,,,,,,
,,,,,00054,2023-10-12_22h26.00.494,vbt_B2_day4,2022.2.4,Win32,60.3646022,,,,,,down,0,6.3741,,-0.1875,-0.265625,1,0,0,0,8,8,130,1,keihard,images/br_keihard.png,images/cb_keihard.png,0,,,,,,,,,,,,,,,,,,,,,,
,,,,,00054,2023-10-12_22h26.00.494,vbt_B2_day4,2022.2.4,Win32,60.3646022,,,,,,down,0,0.3509,,-0.1875,-0.265625,1,0,0,0,9,9,109,1,totaal,images/br_totaal.png,images/cb_totaal.png,0,,,,,,,,,,,,,,,,,,,,,,
,,,,,00054,2023-10-12_22h26.00.494,vbt_B2_day4,2022.2.4,Win32,60.3646022,,,,,,down,0,0.3597,,-0.1875,-0.265625,1,0,0,0,10,10,44,1,flits,images/br_flits.png,images/cb_flits.png,0,,,,,,,,,,,,,,,,,,,,,,
,,,,,00054,2023-10-12_22h26.00.494,vbt_B2_day4,2022.2.4,Win32,60.3646022,,,,,,down,0,0.2559,,-0.1875,-0.265625,1,0,0,0,11,11,83,1,mening,images/br_mening.png,images/cb_mening.png,0,,,,,,,,,,,,,,,,,,,,,,
,,,,,00054,2023-10-12_22h26.00.494,vbt_B2_day4,2022.2.4,Win32,60.3646022,,,,,,down,0,7.9843,,-0.1875,-0.265625,1,0,0,0,12,12,80,1,kanjer,images/br_kanjer.png,images/cb_kanjer.png,0,,,,,,,,,,,,,,,,,,,,,,
,,,,,00054,2023-10-12_22h26.00.494,vbt_B2_day4,2022.2.4,Win32,60.3646022,,,,,,down,0,0.9469,,-0.1875,-0.265625,1,0,0,0,13,13,148,1,smullen,images/br_smullen.png,images/cb_smullen.png,0,,,,,,,,,,,,,,,,,,,,,,
,,,,,00054,2023-10-12_22h26.00.494,vbt_B2_day4,2022.2.4,Win32,60.3646022,,,,,,down,0,7.0773,,-0.1875,-0.265625,1,0,0,0,14,14,60,1,jasje,images/br_jasje.png,images/cb_jasje.png,0,,,,,,,,,,,,,,,,,,,,,,
,,,,,00054,2023-10-12_22h26.00.494,vbt_B2_day4,2022.2.4,Win32,60.3646022,,,,,,down,0,0.5033,,-0.1875,-0.265625,1,0,0,0,15,15,131,1,opzicht,images/br_opzicht.png,images/cb_opzicht.png,0,,,,,,,,,,,,,,,,,,,,,,
,,,,,00054,2023-10-12_22h26.00.494,vbt_B2_day4,2022.2.4,Win32,60.3646022,,,,,,down,0,4.5268,,-0.1875,-0.265625,1,0,0,0,16,16,27,1,dans,images/br_dans.png,images/cb_dans.png,1,dans,,,,,,,,,,,,,,,,,,,,,
,,,,,00054,2023-10-12_22h26.00.494,vbt_B2_day4,2022.2.4,Win32,60.3646022,,,,,,down,0,5.2026,,-0.1875,-0.265625,1,0,0,0,17,17,110,1,zuster,images/br_zuster.png,images/cb_zuster.png,0,,,,,,,,,,,,,,,,,,,,,,
,,,,,00054,2023-10-12_22h26.00.494,vbt_B2_day4,2022.2.4,Win32,60.3646022,,,,,,down,0,2.7544,,-0.1875,-0.266927083,1,0,0,0,18,18,74,1,graaf,images/br_graaf.png,images/cb_graaf.png,0,,,,,,,,,,,,,,,,,,,,,,
,,,,,00054,2023-10-12_22h26.00.494,vbt_B2_day4,2022.2.4,Win32,60.3646022,,,,,,down,0,0.9954,,-0.1875,-0.266927083,1,0,0,0,19,19,57,1,steek,images/br_steek.png,images/cb_steek.png,0,,,,,,,,,,,,,,,,,,,,,,
,,,,,00054,2023-10-12_22h26.00.494,vbt_B2_day4,2022.2.4,Win32,60.3646022,,,,,,down,0,0.1945,,-0.1875,-0.266927083,1,0,0,0,20,20,1,1,zaal,images/br_zaal.png,images/cb_zaal.png,0,,,,,,,,,,,,,,,,,,,,,,
,,,,,00054,2023-10-12_22h26.00.494,vbt_B2_day4,2022.2.4,Win32,60.3646022,,,,,,down,0,2.7706,,-0.1875,-0.266927083,1,0,0,0,21,21,64,1,wegen,images/br_wegen.png,images/cb_wegen.png,1,wegen,,,,,,,,,,,,,,,,,,,,,
,,,,,00054,2023-10-12_22h26.00.494,vbt_B2_day4,2022.2.4,Win32,60.3646022,,,,,,down,0,5.4583,,-0.1875,-0.266927083,1,0,0,0,22,22,129,1,verhaal,images/br_verhaal.png,images/cb_verhaal.png,0,,,,,,,,,,,,,,,,,,,,,,
,,,,,00054,2023-10-12_22h26.00.494,vbt_B2_day4,2022.2.4,Win32,60.3646022,,,,,,down,0,0.3511,,-0.1875,-0.266927083,1,0,0,0,23,23,39,1,laag,images/br_laag.png,images/cb_laag.png,0,,,,,,,,,,,,,,,,,,,,,,
,,,,,00054,2023-10-12_22h26.00.494,vbt_B2_day4,2022.2.4,Win32,60.3646022,,,,,,down,0,4.6367,,-0.1875,-0.266927083,1,0,0,0,24,24,179,1,woestijn,images/br_woestijn.png,images/cb_woestijn.png,0,,,,,,,,,,,,,,,,,,,,,,
,,,,,00054,2023-10-12_22h26.00.494,vbt_B2_day4,2022.2.4,Win32,60.3646022,,,,,,down,0,0.1968,,-0.1875,-0.266927083,1,0,0,0,25,25,113,1,koppen,images/br_koppen.png,images/cb_koppen.png,0,,,,,,,,,,,,,,,,,,,,,,
,,,,,00054,2023-10-12_22h26.00.494,vbt_B2_day4,2022.2.4,Win32,60.3646022,,,,,,down,0,1.3009,,-0.1875,-0.266927083,1,0,0,0,26,26,52,1,wagon,images/br_wagon.png,images/cb_wagon.png,0,,,,,,,,,,,,,,,,,,,,,,
,,,,,00054,2023-10-12_22h26.00.494,vbt_B2_day4,2022.2.4,Win32,60.3646022,,,,,,down,0,7.4898,,-0.1875,-0.266927083,1,0,0,0,27,27,116,1,besmet,images/br_besmet.png,images/cb_besmet.png,0,,,,,,,,,,,,,,,,,,,,,,
,,,,,00054,2023-10-12_22h26.00.494,vbt_B2_day4,2022.2.4,Win32,60.3646022,,,,,,down,0,0.9819,,-0.1875,-0.266927083,1,0,0,0,28,28,75,1,snoep,images/br_snoep.png,images/cb_snoep.png,0,,,,,,,,,,,,,,,,,,,,,,
,,,,,00054,2023-10-12_22h26.00.494,vbt_B2_day4,2022.2.4,Win32,60.3646022,,,,,,down,0,4.6997,,-0.1875,-0.266927083,1,0,0,0,29,29,94,1,oceaan,images/br_oceaan.png,images/cb_oceaan.png,0,,,,,,,,,,,,,,,,,,,,,,
,,,,,00054,2023-10-12_22h26.00.494,vbt_B2_day4,2022.2.4,Win32,60.3646022,,,,,,down,0,1.6178,,-0.1875,-0.266927083,1,0,0,0,30,30,120,1,klimmen,images/br_klimmen.png,images/cb_klimmen.png,0,,,,,,,,,,,,,,,,,,,,,,
,,,,,00054,2023-10-12_22h26.00.494,vbt_B2_day4,2022.2.4,Win32,60.3646022,,,,,,down,0,2.8197,,-0.1875,-0.266927083,1,0,0,0,31,31,81,1,dubbel,images/br_dubbel.png,images/cb_dubbel.png,0,,,,,,,,,,,,,,,,,,,,,,
,,,,,00054,2023-10-12_22h26.00.494,vbt_B2_day4,2022.2.4,Win32,60.3646022,,,,,,down,0,1.8669,,-0.1875,-0.266927083,1,0,0,0,32,32,95,1,vreten,images/br_vreten.png,images/cb_vreten.png,0,,,,,,,,,,,,,,,,,,,,,,
,,,,,00054,2023-10-12_22h26.00.494,vbt_B2_day4,2022.2.4,Win32,60.3646022,,,,,,down,0,3.9344,,-0.1875,-0.266927083,1,0,0,0,33,33,143,1,hechten,images/br_hechten.png,images/cb_hechten.png,0,,,,,,,,,,,,,,,,,,,,,,
,,,,,00054,2023-10-12_22h26.00.494,vbt_B2_day4,2022.2.4,Win32,60.3646022,,,,,,down,0,1.844,,-0.192708333,-0.305989583,1,0,0,0,34,34,163,1,schuilen,images/br_schuilen.png,images/cb_schuilen.png,0,,,,,,,,,,,,,,,,,,,,,,
,,,,,00054,2023-10-12_22h26.00.494,vbt_B2_day4,2022.2.4,Win32,60.3646022,,,,,,down,0,0.42,,-0.192708333,-0.305989583,1,0,0,0,35,35,99,1,koffie,images/br_koffie.png,images/cb_koffie.png,0,,,,,,,,,,,,,,,,,,,,,,
,,,,,00054,2023-10-12_22h26.00.494,vbt_B2_day4,2022.2.4,Win32,60.3646022,,,,,,down,0,11.3753,,-0.1875,-0.326822917,1,0,0,0,36,36,180,1,openbaar,images/br_openbaar.png,images/cb_openbaar.png,0,,,,,,,,,,,,,,,,,,,,,,
,,,,,00054,2023-10-12_22h26.00.494,vbt_B2_day4,2022.2.4,Win32,60.3646022,,,,,,down,0,7.9639,,-0.1875,-0.326822917,1,0,0,0,37,37,166,1,strikken,images/br_strikken.png,images/cb_strikken.png,0,,,,,,,,,,,,,,,,,,,,,,
,,,,,00054,2023-10-12_22h26.00.494,vbt_B2_day4,2022.2.4,Win32,60.3646022,,,,,,down,0,8.4261,,-0.1875,-0.326822917,1,0,0,0,38,38,24,1,jurk,images/br_jurk.png,images/cb_jurk.png,1,jurk,,,,,,,,,,,,,,,,,,,,,
,,,,,00054,2023-10-12_22h26.00.494,vbt_B2_day4,2022.2.4,Win32,60.3646022,,,,,,down,0,6.504,,-0.1796875,-0.34765625,1,0,0,0,39,39,111,1,ticket,images/br_ticket.png,images/cb_ticket.png,0,,,,,,,,,,,,,,,,,,,,,,
,,,,,00054,2023-10-12_22h26.00.494,vbt_B2_day4,2022.2.4,Win32,60.3646022,,,,,,down,0,1.0131,,-0.1796875,-0.34765625,1,0,0,0,40,40,37,1,mijn,images/br_mijn.png,images/cb_mijn.png,0,,,,,,,,,,,,,,,,,,,,,,
,,,,,00054,2023-10-12_22h26.00.494,vbt_B2_day4,2022.2.4,Win32,60.3646022,,,,,,down,0,2.283,,-0.1796875,-0.34765625,1,0,0,0,41,41,53,1,baron,images/br_baron.png,images/cb_baron.png,0,,,,,,,,,,,,,,,,,,,,,,
,,,,,00054,2023-10-12_22h26.00.494,vbt_B2_day4,2022.2.4,Win32,60.3646022,,,,,,down,0,0.0953,,-0.1796875,-0.34765625,1,0,0,0,42,42,117,1,kennis,images/br_kennis.png,images/cb_kennis.png,0,,,,,,,,,,,,,,,,,,,,,,
,,,,,00054,2023-10-12_22h26.00.494,vbt_B2_day4,2022.2.4,Win32,60.3646022,,,,,,down,0,2.753,,-0.1796875,-0.34765625,1,0,0,0,43,43,20,1,site,images/br_site.png,images/cb_site.png,0,,,,,,,,,,,,,,,,,,,,,,
,,,,,00054,2023-10-12_22h26.00.494,vbt_B2_day4,2022.2.4,Win32,60.3646022,,,,,,down,0,0.1726,,-0.1796875,-0.34765625,1,0,0,0,44,44,51,1,samen,images/br_samen.png,images/cb_samen.png,0,,,,,,,,,,,,,,,,,,,,,,
,,,,,00054,2023-10-12_22h26.00.494,vbt_B2_day4,2022.2.4,Win32,60.3646022,,,,,,down,0,0.2617,,-0.177083333,-0.348958333,1,0,0,0,45,45,28,1,stal,images/br_stal.png,images/cb_stal.png,0,,,,,,,,,,,,,,,,,,,,,,
,,,,,00054,2023-10-12_22h26.00.494,vbt_B2_day4,2022.2.4,Win32,60.3646022,,,,,,down,0,0.6906,,-0.177083333,-0.348958333,1,0,0,0,46,46,199,1,beseffen,images/br_beseffen.png,images/cb_beseffen.png,0,,,,,,,,,,,,,,,,,,,,,,
,,,,,00054,2023-10-12_22h26.00.494,vbt_B2_day4,2022.2.4,Win32,60.3646022,,,,,,down,0,16.4909,,-0.177083333,-0.348958333,1,0,0,0,47,47,185,1,mijnheer,images/br_mijnheer.png,images/cb_mijnheer.png,1,mijnheer,,,,,,,,,,,,,,,,,,,,,
,,,,,00054,2023-10-12_22h26.00.494,vbt_B2_day4,2022.2.4,Win32,60.3646022,,,,,,down,0,0.2538,,-0.177083333,-0.348958333,1,0,0,0,48,48,169,1,oprotten,images/br_oprotten.png,images/cb_oprotten.png,0,,,,,,,,,,,,,,,,,,,,,,
,,,,,00054,2023-10-12_22h26.00.494,vbt_B2_day4,2022.2.4,Win32,60.3646022,,,,,,down,0,0.3914,,-0.177083333,-0.348958333,1,0,0,0,49,49,9,1,hier,images/br_hier.png,images/cb_hier.png,0,,,,,,,,,,,,,,,,,,,,,,
,,,,,00054,2023-10-12_22h26.00.494,vbt_B2_day4,2022.2.4,Win32,60.3646022,,,,,,down,0,2.8121,,-0.177083333,-0.348958333,1,0,0,0,50,50,176,1,techniek,images/br_techniek.png,images/cb_techniek.png,0,,,,,,,,,,,,,,,,,,,,,,
,,,,,00054,2023-10-12_22h26.00.494,vbt_B2_day4,2022.2.4,Win32,60.3646022,,,,,,down,0,1.0303,,-0.177083333,-0.348958333,1,0,0,0,51,51,197,1,spanning,images/br_spanning.png,images/cb_spanning.png,0,,,,,,,,,,,,,,,,,,,,,,
,,,,,00054,2023-10-12_22h26.00.494,vbt_B2_day4,2022.2.4,Win32,60.3646022,,,,,,down,0,1.2396,,-0.177083333,-0.348958333,1,0,0,0,52,52,151,1,aanzoek,images/br_aanzoek.png,images/cb_aanzoek.png,0,,,,,,,,,,,,,,,,,,,,,,
,,,,,00054,2023-10-12_22h26.00.494,vbt_B2_day4,2022.2.4,Win32,60.3646022,,,,,,down,0,0.6992,,-0.177083333,-0.348958333,1,0,0,0,53,53,58,1,tekst,images/br_tekst.png,images/cb_tekst.png,0,,,,,,,,,,,,,,,,,,,,,,
,,,,,00054,2023-10-12_22h26.00.494,vbt_B2_day4,2022.2.4,Win32,60.3646022,,,,,,down,0,2.2227,,-0.177083333,-0.348958333,1,0,0,0,54,54,161,1,attentie,images/br_attentie.png,images/cb_attentie.png,0,,,,,,,,,,,,,,,,,,,,,,
,,,,,00054,2023-10-12_22h26.00.494,vbt_B2_day4,2022.2.4,Win32,60.3646022,,,,,,down,0,16.6924,,-0.177083333,-0.348958333,1,0,0,0,55,55,165,1,feestdag,images/br_feestdag.png,images/cb_feestdag.png,0,,,,,,,,,,,,,,,,,,,,,,
,,,,,00054,2023-10-12_22h26.00.494,vbt_B2_day4,2022.2.4,Win32,60.3646022,,,,,,down,0,0.1332,,-0.177083333,-0.348958333,1,0,0,0,56,56,96,1,slagen,images/br_slagen.png,images/cb_slagen.png,0,,,,,,,,,,,,,,,,,,,,,,
,,,,,00054,2023-10-12_22h26.00.494,vbt_B2_day4,2022.2.4,Win32,60.3646022,,,,,,down,0,4.4537,,-0.177083333,-0.348958333,1,0,0,0,57,57,70,1,ijdel,images/br_ijdel.png,images/cb_ijdel.png,0,,,,,,,,,,,,,,,,,,,,,,
,,,,,00054,2023-10-12_22h26.00.494,vbt_B2_day4,2022.2.4,Win32,60.3646022,,,,,,down,0,2.4463,,-0.177083333,-0.348958333,1,0,0,0,58,58,29,1,baas,images/br_baas.png,images/cb_baas.png,0,,,,,,,,,,,,,,,,,,,,,,
,,,,,00054,2023-10-12_22h26.00.494,vbt_B2_day4,2022.2.4,Win32,60.3646022,,,,,,down,0,2.7286,,-0.177083333,-0.348958333,1,0,0,0,59,59,67,1,zwart,images/br_zwart.png,images/cb_zwart.png,1,zwart,,,,,,,,,,,,,,,,,,,,,
,,,,,00054,2023-10-12_22h26.00.494,vbt_B2_day4,2022.2.4,Win32,60.3646022,,,,,,down,0,0.6808,,-0.177083333,-0.348958333,1,0,0,0,60,60,162,1,uitdelen,images/br_uitdelen.png,images/cb_uitdelen.png,0,,,,,,,,,,,,,,,,,,,,,,
,,,,,00054,2023-10-12_22h26.00.494,vbt_B2_day4,2022.2.4,Win32,60.3646022,,,,,,down,0,0.0008,,-0.177083333,-0.348958333,1,0,0,0,61,61,68,1,schat,images/br_schat.png,images/cb_schat.png,0,,,,,,,,,,,,,,,,,,,,,,
,,,,,00054,2023-10-12_22h26.00.494,vbt_B2_day4,2022.2.4,Win32,60.3646022,,,,,,down,0,0.226,,-0.177083333,-0.348958333,1,0,0,0,62,62,114,1,vullen,images/br_vullen.png,images/cb_vullen.png,0,,,,,,,,,,,,,,,,,,,,,,
,,,,,00054,2023-10-12_22h26.00.494,vbt_B2_day4,2022.2.4,Win32,60.3646022,,,,,,down,0,6.2011,,-0.177083333,-0.348958333,1,0,0,0,63,63,105,1,wijlen,images/br_wijlen.png,images/cb_wijlen.png,1,wijlen,,,,,,,,,,,,,,,,,,,,,
,,,,,00054,2023-10-12_22h26.00.494,vbt_B2_day4,2022.2.4,Win32,60.3646022,,,,,,down,0,6.316,,-0.177083333,-0.348958333,1,0,0,0,64,64,61,1,groen,images/br_groen.png,images/cb_groen.png,0,,,,,,,,,,,,,,,,,,,,,,
,,,,,00054,2023-10-12_22h26.00.494,vbt_B2_day4,2022.2.4,Win32,60.3646022,,,,,,down,0,0.6549,,-0.177083333,-0.348958333,1,0,0,0,65,65,3,1,mand,images/br_mand.png,images/cb_mand.png,0,,,,,,,,,,,,,,,,,,,,,,
,,,,,00054,2023-10-12_22h26.00.494,vbt_B2_day4,2022.2.4,Win32,60.3646022,,,,,,down,0,2.1555,,-0.177083333,-0.348958333,1,0,0,0,66,66,137,1,trekker,images/br_trekker.png,images/cb_trekker.png,0,,,,,,,,,,,,,,,,,,,,,,
,,,,,00054,2023-10-12_22h26.00.494,vbt_B2_day4,2022.2.4,Win32,60.3646022,,,,,,down,0,3.8786,,-0.177083333,-0.348958333,1,0,0,0,67,67,181,1,toegeven,images/br_toegeven.png,images/cb_toegeven.png,0,,,,,,,,,,,,,,,,,,,,,,
,,,,,00054,2023-10-12_22h26.00.494,vbt_B2_day4,2022.2.4,Win32,60.3646022,,,,,,down,0,0.0278,,-0.177083333,-0.348958333,1,0,0,0,68,68,30,1,uien,images/br_uien.png,images/cb_uien.png,0,,,,,,,,,,,,,,,,,,,,,,
,,,,,00054,2023-10-12_22h26.00.494,vbt_B2_day4,2022.2.4,Win32,60.3646022,,,,,,down,0,2.9312,,-0.177083333,-0.348958333,1,0,0,0,69,69,171,1,aarzelen,images/br_aarzelen.png,images/cb_aarzelen.png,0,,,,,,,,,,,,,,,,,,,,,,
,,,,,00054,2023-10-12_22h26.00.494,vbt_B2_day4,2022.2.4,Win32,60.3646022,,,,,,down,0,0.3982,,-0.177083333,-0.348958333,1,0,0,0,70,70,17,1,taal,images/br_taal.png,images/cb_taal.png,0,,,,,,,,,,,,,,,,,,,,,,
,,,,,00054,2023-10-12_22h26.00.494,vbt_B2_day4,2022.2.4,Win32,60.3646022,,,,,,down,0,0.4595,,-0.177083333,-0.348958333,1,0,0,0,71,71,88,1,boeien,images/br_boeien.png,images/cb_boeien.png,0,,,,,,,,,,,,,,,,,,,,,,
,,,,,00054,2023-10-12_22h26.00.494,vbt_B2_day4,2022.2.4,Win32,60.3646022,,,,,,down,0,0.0239,,-0.177083333,-0.348958333,1,0,0,0,72,72,8,1,knie,images/br_knie.png,images/cb_knie.png,0,,,,,,,,,,,,,,,,,,,,,,
,,,,,00054,2023-10-12_22h26.00.494,vbt_B2_day4,2022.2.4,Win32,60.3646022,,,,,,down,0,3.2035,,-0.177083333,-0.348958333,1,0,0,0,73,73,188,1,strekken,images/br_strekken.png,images/cb_strekken.png,0,,,,,,,,,,,,,,,,,,,,,,
,,,,,00054,2023-10-12_22h26.00.494,vbt_B2_day4,2022.2.4,Win32,60.3646022,,,,,,down,0,2.3554,,-0.177083333,-0.348958333,1,0,0,0,74,74,177,1,maaltijd,images/br_maaltijd.png,images/cb_maaltijd.png,0,,,,,,,,,,,,,,,,,,,,,,
,,,,,00054,2023-10-12_22h26.00.494,vbt_B2_day4,2022.2.4,Win32,60.3646022,,,,,,down,0,3.1956,,-0.177083333,-0.348958333,1,0,0,0,75,75,183,1,getuigen,images/br_getuigen.png,images/cb_getuigen.png,0,,,,,,,,,,,,,,,,,,,,,,
,,,,,00054,2023-10-12_22h26.00.494,vbt_B2_day4,2022.2.4,Win32,60.3646022,,,,,,down,0,1.0505,,-0.177083333,-0.358072917,1,0,0,0,76,76,121,1,twijfel,images/br_twijfel.png,images/cb_twijfel.png,0,,,,,,,,,,,,,,,,,,,,,,
,,,,,00054,2023-10-12_22h26.00.494,vbt_B2_day4,2022.2.4,Win32,60.3646022,,,,,,down,0,4.3654,,-0.177083333,-0.358072917,1,0,0,0,77,77,107,1,maling,images/br_maling.png,images/cb_maling.png,1,maling,,,,,,,,,,,,,,,,,,,,,
,,,,,00054,2023-10-12_22h26.00.494,vbt_B2_day4,2022.2.4,Win32,60.3646022,,,,,,down,0,0.7923,,-0.177083333,-0.358072917,1,0,0,0,78,78,103,1,joggen,images/br_joggen.png,images/cb_joggen.png,0,,,,,,,,,,,,,,,,,,,,,,
,,,,,00054,2023-10-12_22h26.00.494,vbt_B2_day4,2022.2.4,Win32,60.3646022,,,,,,down,0,2.8846,,-0.177083333,-0.358072917,1,0,0,0,79,79,196,1,nakijken,images/br_nakijken.png,images/cb_nakijken.png,0,,,,,,,,,,,,,,,,,,,,,,
,,,,,00054,2023-10-12_22h26.00.494,vbt_B2_day4,2022.2.4,Win32,60.3646022,,,,,,down,0,0.4472,,-0.177083333,-0.358072917,1,0,0,0,80,80,102,1,legaal,images/br_legaal.png,images/cb_legaal.png,0,,,,,,,,,,,,,,,,,,,,,,
,,,,,00054,2023-10-12_22h26.00.494,vbt_B2_day4,2022.2.4,Win32,60.3646022,,,,,,down,0,3.3455,,-0.177083333,-0.358072917,1,0,0,0,81,81,184,1,aandelen,images/br_aandelen.png,images/cb_aandelen.png,1,aandelen,,,,,,,,,,,,,,,,,,,,,
,,,,,00054,2023-10-12_22h26.00.494,vbt_B2_day4,2022.2.4,Win32,60.3646022,,,,,,down,0,0.1822,,-0.177083333,-0.358072917,1,0,0,0,82,82,13,1,kaal,images/br_kaal.png,images/cb_kaal.png,0,,,,,,,,,,,,,,,,,,,,,,
,,,,,00054,2023-10-12_22h26.00.494,vbt_B2_day4,2022.2.4,Win32,60.3646022,,,,,,down,0,2.9992,,-0.177083333,-0.358072917,1,0,0,0,83,83,153,1,vervoer,images/br_vervoer.png,images/cb_vervoer.png,0,,,,,,,,,,,,,,,,,,,,,,
,,,,,00054,2023-10-12_22h26.00.494,vbt_B2_day4,2022.2.4,Win32,60.3646022,,,,,,down,0,0.4138,,-0.177083333,-0.358072917,1,0,0,0,84,84,82,1,muziek,images/br_muziek.png,images/cb_muziek.png,0,,,,,,,,,,,,,,,,,,,,,,
,,,,,00054,2023-10-12_22h26.00.494,vbt_B2_day4,2022.2.4,Win32,60.3646022,,,,,,down,0,4.2802,,-0.177083333,-0.358072917,1,0,0,0,85,85,106,1,zingen,images/br_zingen.png,images/cb_zingen.png,1,zingen,,,,,,,,,,,,,,,,,,,,,
,,,,,00054,2023-10-12_22h26.00.494,vbt_B2_day4,2022.2.4,Win32,60.3646022,,,,,,down,0,2.985,,-0.177083333,-0.358072917,1,0,0,0,86,86,101,1,staren,images/br_staren.png,images/cb_staren.png,0,,,,,,,,,,,,,,,,,,,,,,
,,,,,00054,2023-10-12_22h26.00.494,vbt_B2_day4,2022.2.4,Win32,60.3646022,,,,,,down,0,0.2655,,-0.177083333,-0.358072917,1,0,0,0,87,87,6,1,diep,images/br_diep.png,images/cb_diep.png,0,,,,,,,,,,,,,,,,,,,,,,
,,,,,00054,2023-10-12_22h26.00.494,vbt_B2_day4,2022.2.4,Win32,60.3646022,,,,,,down,0,0.1181,,-0.177083333,-0.358072917,1,0,0,0,88,88,62,1,knaap,images/br_knaap.png,images/cb_knaap.png,0,,,,,,,,,,,,,,,,,,,,,,
,,,,,00054,2023-10-12_22h26.00.494,vbt_B2_day4,2022.2.4,Win32,60.3646022,,,,,,down,0,1.7382,,-0.177083333,-0.358072917,1,0,0,0,89,89,168,1,bisschop,images/br_bisschop.png,images/cb_bisschop.png,0,,,,,,,,,,,,,,,,,,,,,,
,,,,,00054,2023-10-12_22h26.00.494,vbt_B2_day4,2022.2.4,Win32,60.3646022,,,,,,down,0,1.5954,,-0.177083333,-0.358072917,1,0,0,0,90,90,93,1,waarop,images/br_waarop.png,images/cb_waarop.png,0,,,,,,,,,,,,,,,,,,,,,,
,,,,,00054,2023-10-12_22h26.00.494,vbt_B2_day4,2022.2.4,Win32,60.3646022,,,,,,down,0,2.0729,,-0.177083333,-0.358072917,1,0,0,0,91,91,159,1,sufferd,images/br_sufferd.png,images/cb_sufferd.png,0,,,,,,,,,,,,,,,,,,,,,,
,,,,,00054,2023-10-12_22h26.00.494,vbt_B2_day4,2022.2.4,Win32,60.3646022,,,,,,down,0,0.0353,,-0.177083333,-0.358072917,1,0,0,0,92,92,0,1,slak,images/br_slak.png,images/cb_slak.png,0,,,,,,,,,,,,,,,,,,,,,,
,,,,,00054,2023-10-12_22h26.00.494,vbt_B2_day4,2022.2.4,Win32,60.3646022,,,,,,down,0,0.7626,,-0.177083333,-0.358072917,1,0,0,0,93,93,139,1,stiekem,images/br_stiekem.png,images/cb_stiekem.png,0,,,,,,,,,,,,,,,,,,,,,,
,,,,,00054,2023-10-12_22h26.00.494,vbt_B2_day4,2022.2.4,Win32,60.3646022,,,,,,down,0,0.4325,,-0.177083333,-0.358072917,1,0,0,0,94,94,97,1,loyaal,images/br_loyaal.png,images/cb_loyaal.png,0,,,,,,,,,,,,,,,,,,,,,,
,,,,,00054,2023-10-12_22h26.00.494,vbt_B2_day4,2022.2.4,Win32,60.3646022,,,,,,down,0,2.2718,,-0.177083333,-0.358072917,1,0,0,0,95,95,43,1,klauw,images/br_klauw.png,images/cb_klauw.png,0,,,,,,,,,,,,,,,,,,,,,,
,,,,,00054,2023-10-12_22h26.00.494,vbt_B2_day4,2022.2.4,Win32,60.3646022,,,,,,down,0,0.1286,,-0.177083333,-0.358072917,1,0,0,0,96,96,141,1,knielen,images/br_knielen.png,images/cb_knielen.png,0,,,,,,,,,,,,,,,,,,,,,,
,,,,,00054,2023-10-12_22h26.00.494,vbt_B2_day4,2022.2.4,Win32,60.3646022,,,,,,down,0,0.2633,,-0.177083333,-0.358072917,1,0,0,0,97,97,122,1,waarvan,images/br_waarvan.png,images/cb_waarvan.png,0,,,,,,,,,,,,,,,,,,,,,,
,,,,,00054,2023-10-12_22h26.00.494,vbt_B2_day4,2022.2.4,Win32,60.3646022,,,,,,down,0,3.8641,,-0.177083333,-0.358072917,1,0,0,0,98,98,182,1,bijkomen,images/br_bijkomen.png,images/cb_bijkomen.png,0,,,,,,,,,,,,,,,,,,,,,,
,,,,,00054,2023-10-12_22h26.00.494,vbt_B2_day4,2022.2.4,Win32,60.3646022,,,,,,down,0,2.2059,,-0.177083333,-0.358072917,1,0,0,0,99,99,87,1,toeval,images/br_toeval.png,images/cb_toeval.png,0,,,,,,,,,,,,,,,,,,,,,,
,,,,,00054,2023-10-12_22h26.00.494,vbt_B2_day4,2022.2.4,Win32,60.3646022,,,,,,down,0,0.4652,,-0.177083333,-0.358072917,1,0,0,0,100,100,79,1,nodig,images/br_nodig.png,images/cb_nodig.png,0,,,,,,,,,,,,,,,,,,,,,,
,,,,,00054,2023-10-12_22h26.00.494,vbt_B2_day4,2022.2.4,Win32,60.3646022,,,,,,down,0,0.5969,,-0.177083333,-0.358072917,1,0,0,0,101,101,128,1,prikken,images/br_prikken.png,images/cb_prikken.png,0,,,,,,,,,,,,,,,,,,,,,,
,,,,,00054,2023-10-12_22h26.00.494,vbt_B2_day4,2022.2.4,Win32,60.3646022,,,,,,down,0,2.5499,,-0.177083333,-0.358072917,1,0,0,0,102,102,167,1,eenhoorn,images/br_eenhoorn.png,images/cb_eenhoorn.png,0,,,,,,,,,,,,,,,,,,,,,,
,,,,,00054,2023-10-12_22h26.00.494,vbt_B2_day4,2022.2.4,Win32,60.3646022,,,,,,down,0,0.3149,,-0.177083333,-0.358072917,1,0,0,0,103,103,118,1,vinger,images/br_vinger.png,images/cb_vinger.png,0,,,,,,,,,,,,,,,,,,,,,,
,,,,,00054,2023-10-12_22h26.00.494,vbt_B2_day4,2022.2.4,Win32,60.3646022,,,,,,down,0,4.0472,,-0.177083333,-0.358072917,1,0,0,0,104,104,135,1,gedicht,images/br_gedicht.png,images/cb_gedicht.png,0,,,,,,,,,,,,,,,,,,,,,,
,,,,,00054,2023-10-12_22h26.00.494,vbt_B2_day4,2022.2.4,Win32,60.3646022,,,,,,down,0,0.0348,,-0.177083333,-0.358072917,1,0,0,0,105,105,86,1,woning,images/br_woning.png,images/cb_woning.png,0,,,,,,,,,,,,,,,,,,,,,,
,,,,,00054,2023-10-12_22h26.00.494,vbt_B2_day4,2022.2.4,Win32,60.3646022,,,,,,down,0,0.3007,,-0.177083333,-0.358072917,1,0,0,0,106,106,140,1,blijven,images/br_blijven.png,images/cb_blijven.png,0,,,,,,,,,,,,,,,,,,,,,,
,,,,,00054,2023-10-12_22h26.00.494,vbt_B2_day4,2022.2.4,Win32,60.3646022,,,,,,down,0,0.282,,-0.177083333,-0.358072917,1,0,0,0,107,107,134,1,geliefd,images/br_geliefd.png,images/cb_geliefd.png,0,,,,,,,,,,,,,,,,,,,,,,
,,,,,00054,2023-10-12_22h26.00.494,vbt_B2_day4,2022.2.4,Win32,60.3646022,,,,,,down,0,4.3412,,-0.177083333,-0.358072917,1,0,0,0,108,108,156,1,rechten,images/br_rechten.png,images/cb_rechten.png,0,,,,,,,,,,,,,,,,,,,,,,
,,,,,00054,2023-10-12_22h26.00.494,vbt_B2_day4,2022.2.4,Win32,60.3646022,,,,,,down,0,3.3752,,-0.177083333,-0.358072917,1,0,0,0,109,109,92,1,geheim,images/br_geheim.png,images/cb_geheim.png,0,,,,,,,,,,,,,,,,,,,,,,
,,,,,00054,2023-10-12_22h26.00.494,vbt_B2_day4,2022.2.4,Win32,60.3646022,,,,,,down,0,2.1377,,-0.177083333,-0.358072917,1,0,0,0,110,110,76,1,afval,images/br_afval.png,images/cb_afval.png,0,,,,,,,,,,,,,,,,,,,,,,
,,,,,00054,2023-10-12_22h26.00.494,vbt_B2_day4,2022.2.4,Win32,60.3646022,,,,,,down,0,6.4993,,-0.177083333,-0.358072917,1,0,0,0,111,111,136,1,waarbij,images/br_waarbij.png,images/cb_waarbij.png,0,,,,,,,,,,,,,,,,,,,,,,
,,,,,00054,2023-10-12_22h26.00.494,vbt_B2_day4,2022.2.4,Win32,60.3646022,,,,,,down,0,3.0994,,-0.177083333,-0.358072917,1,0,0,0,112,112,189,1,aanraden,images/br_aanraden.png,images/cb_aanraden.png,0,,,,,,,,,,,,,,,,,,,,,,
,,,,,00054,2023-10-12_22h26.00.494,vbt_B2_day4,2022.2.4,Win32,60.3646022,,,,,,down,0,2.7517,,-0.177083333,-0.358072917,1,0,0,0,113,113,85,1,heilig,images/br_heilig.png,images/cb_heilig.png,0,,,,,,,,,,,,,,,,,,,,,,
,,,,,00054,2023-10-12_22h26.00.494,vbt_B2_day4,2022.2.4,Win32,60.3646022,,,,,,down,0,4.1253,,-0.177083333,-0.358072917,1,0,0,0,114,114,138,1,akkoord,images/br_akkoord.png,images/cb_akkoord.png,0,,,,,,,,,,,,,,,,,,,,,,
,,,,,00054,2023-10-12_22h26.00.494,vbt_B2_day4,2022.2.4,Win32,60.3646022,,,,,,down,0,0.4914,,-0.177083333,-0.358072917,1,0,0,0,115,115,84,1,lokken,images/br_lokken.png,images/cb_lokken.png,0,,,,,,,,,,,,,,,,,,,,,,
,,,,,00054,2023-10-12_22h26.00.494,vbt_B2_day4,2022.2.4,Win32,60.3646022,,,,,,down,0,3.9713,,-0.177083333,-0.358072917,1,0,0,0,116,116,152,1,afnemen,images/br_afnemen.png,images/cb_afnemen.png,0,,,,,,,,,,,,,,,,,,,,,,
,,,,,00054,2023-10-12_22h26.00.494,vbt_B2_day4,2022.2.4,Win32,60.3646022,,,,,,down,0,2.6195,,-0.177083333,-0.358072917,1,0,0,0,117,117,146,1,opkomen,images/br_opkomen.png,images/cb_opkomen.png,1,opkomen,,,,,,,,,,,,,,,,,,,,,
,,,,,00054,2023-10-12_22h26.00.494,vbt_B2_day4,2022.2.4,Win32,60.3646022,,,,,,down,0,0.3353,,-0.177083333,-0.358072917,1,0,0,0,118,118,19,1,geit,images/br_geit.png,images/cb_geit.png,0,,,,,,,,,,,,,,,,,,,,,,
,,,,,00054,2023-10-12_22h26.00.494,vbt_B2_day4,2022.2.4,Win32,60.3646022,,,,,,down,0,0.0842,,-0.177083333,-0.358072917,1,0,0,0,119,119,12,1,kust,images/br_kust.png,images/cb_kust.png,0,,,,,,,,,,,,,,,,,,,,,,
,,,,,00054,2023-10-12_22h26.00.494,vbt_B2_day4,2022.2.4,Win32,60.3646022,,,,,,down,0,2.4046,,-0.177083333,-0.358072917,1,0,0,0,120,120,89,1,slapen,images/br_slapen.png,images/cb_slapen.png,0,,,,,,,,,,,,,,,,,,,,,,
,,,,,00054,2023-10-12_22h26.00.494,vbt_B2_day4,2022.2.4,Win32,60.3646022,,,,,,down,0,0.134,,-0.177083333,-0.358072917,1,0,0,0,121,121,65,1,parel,images/br_parel.png,images/cb_parel.png,1,,,,,,,,,,,,,,,,,,,,,,
,,,,,00054,2023-10-12_22h26.00.494,vbt_B2_day4,2022.2.4,Win32,60.3646022,,,,,,down,0,5.7258,,-0.177083333,-0.358072917,1,0,0,0,122,122,187,1,opkijken,images/br_opkijken.png,images/cb_opkijken.png,1,opkijken,,,,,,,,,,,,,,,,,,,,,
,,,,,00054,2023-10-12_22h26.00.494,vbt_B2_day4,2022.2.4,Win32,60.3646022,,,,,,down,0,8.0279,,-0.177083333,-0.358072917,1,0,0,0,123,123,193,1,weeshuis,images/br_weeshuis.png,images/cb_weeshuis.png,0,,,,,,,,,,,,,,,,,,,,,,
,,,,,00054,2023-10-12_22h26.00.494,vbt_B2_day4,2022.2.4,Win32,60.3646022,,,,,,down,0,1.1258,,-0.177083333,-0.358072917,1,0,0,0,124,124,149,1,redding,images/br_redding.png,images/cb_redding.png,0,,,,,,,,,,,,,,,,,,,,,,
,,,,,00054,2023-10-12_22h26.00.494,vbt_B2_day4,2022.2.4,Win32,60.3646022,,,,,,down,0,7.0856,,-0.177083333,-0.358072917,1,0,0,0,125,125,98,1,kreeft,images/br_kreeft.png,images/cb_kreeft.png,0,,,,,,,,,,,,,,,,,,,,,,
,,,,,00054,2023-10-12_22h26.00.494,vbt_B2_day4,2022.2.4,Win32,60.3646022,,,,,,down,0,0.7183,,-0.177083333,-0.358072917,1,0,0,0,126,126,198,1,bedoelen,images/br_bedoelen.png,images/cb_bedoelen.png,0,,,,,,,,,,,,,,,,,,,,,,
,,,,,00054,2023-10-12_22h26.00.494,vbt_B2_day4,2022.2.4,Win32,60.3646022,,,,,,down,0,0.099,,-0.177083333,-0.358072917,1,0,0,0,127,127,48,1,steel,images/br_steel.png,images/cb_steel.png,0,,,,,,,,,,,,,,,,,,,,,,
,,,,,00054,2023-10-12_22h26.00.494,vbt_B2_day4,2022.2.4,Win32,60.3646022,,,,,,down,0,0.1775,,-0.177083333,-0.358072917,1,0,0,0,128,128,11,1,mode,images/br_mode.png,images/cb_mode.png,0,,,,,,,,,,,,,,,,,,,,,,
,,,,,00054,2023-10-12_22h26.00.494,vbt_B2_day4,2022.2.4,Win32,60.3646022,,,,,,down,0,0.28,,-0.177083333,-0.358072917,1,0,0,0,129,129,21,1,mist,images/br_mist.png,images/cb_mist.png,0,,,,,,,,,,,,,,,,,,,,,,
,,,,,00054,2023-10-12_22h26.00.494,vbt_B2_day4,2022.2.4,Win32,60.3646022,,,,,,down,0,3.5797,,-0.177083333,-0.358072917,1,0,0,0,130,130,160,1,daarheen,images/br_daarheen.png,images/cb_daarheen.png,0,,,,,,,,,,,,,,,,,,,,,,
,,,,,00054,2023-10-12_22h26.00.494,vbt_B2_day4,2022.2.4,Win32,60.3646022,,,,,,down,0,0.6628,,-0.177083333,-0.358072917,1,0,0,0,131,131,31,1,poes,images/br_poes.png,images/cb_poes.png,0,,,,,,,,,,,,,,,,,,,,,,
,,,,,00054,2023-10-12_22h26.00.494,vbt_B2_day4,2022.2.4,Win32,60.3646022,,,,,,down,0,2.7179,,-0.177083333,-0.358072917,1,0,0,0,132,132,22,1,stof,images/br_stof.png,images/cb_stof.png,0,,,,,,,,,,,,,,,,,,,,,,
,,,,,00054,2023-10-12_22h26.00.494,vbt_B2_day4,2022.2.4,Win32,60.3646022,,,,,,down,0,6.6382,,-0.177083333,-0.358072917,1,0,0,0,133,133,147,1,komisch,images/br_komisch.png,images/cb_komisch.png,1,komisch,,,,,,,,,,,,,,,,,,,,,
,,,,,00054,2023-10-12_22h26.00.494,vbt_B2_day4,2022.2.4,Win32,60.3646022,,,,,,down,0,0.3679,,-0.177083333,-0.358072917,1,0,0,0,134,134,175,1,heengaan,images/br_heengaan.png,images/cb_heengaan.png,0,,,,,,,,,,,,,,,,,,,,,,
,,,,,00054,2023-10-12_22h26.00.494,vbt_B2_day4,2022.2.4,Win32,60.3646022,,,,,,down,0,0.2855,,-0.177083333,-0.358072917,1,0,0,0,135,135,158,1,innemen,images/br_innemen.png,images/cb_innemen.png,0,,,,,,,,,,,,,,,,,,,,,,
,,,,,00054,2023-10-12_22h26.00.494,vbt_B2_day4,2022.2.4,Win32,60.3646022,,,,,,down,0,2.0038,,-0.177083333,-0.358072917,1,0,0,0,136,136,23,1,zout,images/br_zout.png,images/cb_zout.png,0,,,,,,,,,,,,,,,,,,,,,,
,,,,,00054,2023-10-12_22h26.00.494,vbt_B2_day4,2022.2.4,Win32,60.3646022,,,,,,down,0,4.9976,,-0.177083333,-0.358072917,1,0,0,0,137,137,47,1,kabel,images/br_kabel.png,images/cb_kabel.png,0,,,,,,,,,,,,,,,,,,,,,,
,,,,,00054,2023-10-12_22h26.00.494,vbt_B2_day4,2022.2.4,Win32,60.3646022,,,,,,down,0,0.8015,,-0.177083333,-0.358072917,1,0,0,0,138,138,133,1,seizoen,images/br_seizoen.png,images/cb_seizoen.png,0,,,,,,,,,,,,,,,,,,,,,,
,,,,,00054,2023-10-12_22h26.00.494,vbt_B2_day4,2022.2.4,Win32,60.3646022,,,,,,down,0,0.2096,,-0.177083333,-0.358072917,1,0,0,0,139,139,63,1,flirt,images/br_flirt.png,images/cb_flirt.png,0,,,,,,,,,,,,,,,,,,,,,,
,,,,,00054,2023-10-12_22h26.00.494,vbt_B2_day4,2022.2.4,Win32,60.3646022,,,,,,down,0,3.8438,,-0.177083333,-0.358072917,1,0,0,0,140,140,195,1,middelen,images/br_middelen.png,images/cb_middelen.png,0,,,,,,,,,,,,,,,,,,,,,,
,,,,,00054,2023-10-12_22h26.00.494,vbt_B2_day4,2022.2.4,Win32,60.3646022,,,,,,down,0,2.5665,,-0.177083333,-0.358072917,1,0,0,0,141,141,56,1,traag,images/br_traag.png,images/cb_traag.png,0,,,,,,,,,,,,,,,,,,,,,,
,,,,,00054,2023-10-12_22h26.00.494,vbt_B2_day4,2022.2.4,Win32,60.3646022,,,,,,down,0,0.7814,,-0.177083333,-0.358072917,1,0,0,0,142,142,50,1,stoom,images/br_stoom.png,images/cb_stoom.png,0,,,,,,,,,,,,,,,,,,,,,,
,,,,,00054,2023-10-12_22h26.00.494,vbt_B2_day4,2022.2.4,Win32,60.3646022,,,,,,down,0,5.3568,,-0.177083333,-0.358072917,1,0,0,0,143,143,26,1,leuk,images/br_leuk.png,images/cb_leuk.png,1,leuk,,,,,,,,,,,,,,,,,,,,,
,,,,,00054,2023-10-12_22h26.00.494,vbt_B2_day4,2022.2.4,Win32,60.3646022,,,,,,down,0,0.688,,-0.177083333,-0.358072917,1,0,0,0,144,144,36,1,vuur,images/br_vuur.png,images/cb_vuur.png,0,,,,,,,,,,,,,,,,,,,,,,
,,,,,00054,2023-10-12_22h26.00.494,vbt_B2_day4,2022.2.4,Win32,60.3646022,,,,,,down,0,0.1056,,-0.177083333,-0.358072917,1,0,0,0,145,145,34,1,vorm,images/br_vorm.png,images/cb_vorm.png,0,,,,,,,,,,,,,,,,,,,,,,
,,,,,00054,2023-10-12_22h26.00.494,vbt_B2_day4,2022.2.4,Win32,60.3646022,,,,,,down,0,1.1651,,-0.177083333,-0.358072917,1,0,0,0,146,146,91,1,gezond,images/br_gezond.png,images/cb_gezond.png,0,,,,,,,,,,,,,,,,,,,,,,
,,,,,00054,2023-10-12_22h26.00.494,vbt_B2_day4,2022.2.4,Win32,60.3646022,,,,,,down,0,1.9259,,-0.177083333,-0.358072917,1,0,0,0,147,147,157,1,uitlaat,images/br_uitlaat.png,images/cb_uitlaat.png,0,,,,,,,,,,,,,,,,,,,,,,
,,,,,00054,2023-10-12_22h26.00.494,vbt_B2_day4,2022.2.4,Win32,60.3646022,,,,,,down,0,2.4891,,-0.177083333,-0.358072917,1,0,0,0,148,148,14,1,rijp,images/br_rijp.png,images/cb_rijp.png,0,,,,,,,,,,,,,,,,,,,,,,
,,,,,00054,2023-10-12_22h26.00.494,vbt_B2_day4,2022.2.4,Win32,60.3646022,,,,,,down,0,0.1492,,-0.177083333,-0.358072917,1,0,0,0,149,149,73,1,volop,images/br_volop.png,images/cb_volop.png,0,,,,,,,,,,,,,,,,,,,,,,
,,,,,00054,2023-10-12_22h26.00.494,vbt_B2_day4,2022.2.4,Win32,60.3646022,,,,,,down,0,0.7159,,-0.177083333,-0.358072917,1,0,0,0,150,150,112,1,lukken,images/br_lukken.png,images/cb_lukken.png,0,,,,,,,,,,,,,,,,,,,,,,
,,,,,00054,2023-10-12_22h26.00.494,vbt_B2_day4,2022.2.4,Win32,60.3646022,,,,,,down,0,0.2155,,-0.177083333,-0.358072917,1,0,0,0,151,151,71,1,bever,images/br_bever.png,images/cb_bever.png,0,,,,,,,,,,,,,,,,,,,,,,
,,,,,00054,2023-10-12_22h26.00.494,vbt_B2_day4,2022.2.4,Win32,60.3646022,,,,,,down,0,0.8007,,-0.177083333,-0.358072917,1,0,0,0,152,152,115,1,kleren,images/br_kleren.png,images/cb_kleren.png,0,,,,,,,,,,,,,,,,,,,,,,
,,,,,00054,2023-10-12_22h26.00.494,vbt_B2_day4,2022.2.4,Win32,60.3646022,,,,,,down,0,1.4864,,-0.177083333,-0.358072917,1,0,0,0,153,153,35,1,lust,images/br_lust.png,images/cb_lust.png,0,,,,,,,,,,,,,,,,,,,,,,
,,,,,00054,2023-10-12_22h26.00.494,vbt_B2_day4,2022.2.4,Win32,60.3646022,,,,,,down,0,3.0048,,-0.177083333,-0.358072917,1,0,0,0,154,154,123,1,hiervan,images/br_hiervan.png,images/cb_hiervan.png,0,,,,,,,,,,,,,,,,,,,,,,
,,,,,00054,2023-10-12_22h26.00.494,vbt_B2_day4,2022.2.4,Win32,60.3646022,,,,,,down,0,3.5349,,-0.17578125,-0.358072917,1,0,0,0,155,155,194,1,driemaal,images/br_driemaal.png,images/cb_driemaal.png,0,,,,,,,,,,,,,,,,,,,,,,
,,,,,00054,2023-10-12_22h26.00.494,vbt_B2_day4,2022.2.4,Win32,60.3646022,,,,,,down,0,2.1268,,-0.17578125,-0.358072917,1,0,0,0,156,156,45,1,piste,images/br_piste.png,images/cb_piste.png,0,,,,,,,,,,,,,,,,,,,,,,
,,,,,00054,2023-10-12_22h26.00.494,vbt_B2_day4,2022.2.4,Win32,60.3646022,,,,,,down,0,0.355,,-0.17578125,-0.358072917,1,0,0,0,157,157,5,1,blad,images/br_blad.png,images/cb_blad.png,0,,,,,,,,,,,,,,,,,,,,,,
,,,,,00054,2023-10-12_22h26.00.494,vbt_B2_day4,2022.2.4,Win32,60.3646022,,,,,,down,0,0.0018,,-0.17578125,-0.358072917,1,0,0,0,158,158,15,1,soda,images/br_soda.png,images/cb_soda.png,0,,,,,,,,,,,,,,,,,,,,,,
,,,,,00054,2023-10-12_22h26.00.494,vbt_B2_day4,2022.2.4,Win32,60.3646022,,,,,,down,0,1.3442,,-0.17578125,-0.358072917,1,0,0,0,159,159,191,1,opheffen,images/br_opheffen.png,images/cb_opheffen.png,0,,,,,,,,,,,,,,,,,,,,,,
,,,,,00054,2023-10-12_22h26.00.494,vbt_B2_day4,2022.2.4,Win32,60.3646022,,,,,,down,0,2.075,,-0.17578125,-0.358072917,1,0,0,0,160,160,174,1,stemming,images/br_stemming.png,images/cb_stemming.png,0,,,,,,,,,,,,,,,,,,,,,,
,,,,,00054,2023-10-12_22h26.00.494,vbt_B2_day4,2022.2.4,Win32,60.3646022,,,,,,down,0,4.5526,,-0.17578125,-0.358072917,1,0,0,0,161,161,46,1,jagen,images/br_jagen.png,images/cb_jagen.png,0,,,,,,,,,,,,,,,,,,,,,,
,,,,,00054,2023-10-12_22h26.00.494,vbt_B2_day4,2022.2.4,Win32,60.3646022,,,,,,down,0,3.3648,,-0.17578125,-0.358072917,1,0,0,0,162,162,59,1,kring,images/br_kring.png,images/cb_kring.png,0,,,,,,,,,,,,,,,,,,,,,,
,,,,,00054,2023-10-12_22h26.00.494,vbt_B2_day4,2022.2.4,Win32,60.3646022,,,,,,down,0,1.281,,-0.17578125,-0.358072917,1,0,0,0,163,163,126,1,kasteel,images/br_kasteel.png,images/cb_kasteel.png,0,,,,,,,,,,,,,,,,,,,,,,
,,,,,00054,2023-10-12_22h26.00.494,vbt_B2_day4,2022.2.4,Win32,60.3646022,,,,,,down,0,0.5857,,-0.17578125,-0.358072917,1,0,0,0,164,164,55,1,praat,images/br_praat.png,images/cb_praat.png,0,,,,,,,,,,,,,,,,,,,,,,
,,,,,00054,2023-10-12_22h26.00.494,vbt_B2_day4,2022.2.4,Win32,60.3646022,,,,,,down,0,2.6237,,-0.17578125,-0.358072917,1,0,0,0,165,165,72,1,strak,images/br_strak.png,images/cb_strak.png,0,,,,,,,,,,,,,,,,,,,,,,
,,,,,00054,2023-10-12_22h26.00.494,vbt_B2_day4,2022.2.4,Win32,60.3646022,,,,,,down,0,5.471,,-0.17578125,-0.358072917,1,0,0,0,166,166,178,1,huisdier,images/br_huisdier.png,images/cb_huisdier.png,0,,,,,,,,,,,,,,,,,,,,,,
,,,,,00054,2023-10-12_22h26.00.494,vbt_B2_day4,2022.2.4,Win32,60.3646022,,,,,,down,0,6.2477,,-0.17578125,-0.358072917,1,0,0,0,167,167,186,1,voorraad,images/br_voorraad.png,images/cb_voorraad.png,1,voorraad,,,,,,,,,,,,,,,,,,,,,
,,,,,00054,2023-10-12_22h26.00.494,vbt_B2_day4,2022.2.4,Win32,60.3646022,,,,,,down,0,4.1637,,-0.17578125,-0.358072917,1,0,0,0,168,168,164,1,anarchie,images/br_anarchie.png,images/cb_anarchie.png,0,,,,,,,,,,,,,,,,,,,,,,
,,,,,00054,2023-10-12_22h26.00.494,vbt_B2_day4,2022.2.4,Win32,60.3646022,,,,,,down,0,2.006,,-0.17578125,-0.358072917,1,0,0,0,169,169,54,1,gebit,images/br_gebit.png,images/cb_gebit.png,0,,,,,,,,,,,,,,,,,,,,,,
,,,,,00054,2023-10-12_22h26.00.494,vbt_B2_day4,2022.2.4,Win32,60.3646022,,,,,,down,0,1.8422,,-0.180989583,-0.369791667,1,0,0,0,170,170,77,1,woede,images/br_woede.png,images/cb_woede.png,0,,,,,,,,,,,,,,,,,,,,,,
,,,,,00054,2023-10-12_22h26.00.494,vbt_B2_day4,2022.2.4,Win32,60.3646022,,,,,,down,0,3.4536,,-0.180989583,-0.369791667,1,0,0,0,171,171,172,1,weigeren,images/br_weigeren.png,images/cb_weigeren.png,0,,,,,,,,,,,,,,,,,,,,,,
,,,,,00054,2023-10-12_22h26.00.494,vbt_B2_day4,2022.2.4,Win32,60.3646022,,,,,,down,0,0.3666,,-0.180989583,-0.369791667,1,0,0,0,172,172,10,1,leek,images/br_leek.png,images/cb_leek.png,0,,,,,,,,,,,,,,,,,,,,,,
,,,,,00054,2023-10-12_22h26.00.494,vbt_B2_day4,2022.2.4,Win32,60.3646022,,,,,,down,0,3.0857,,-0.180989583,-0.369791667,1,0,0,0,173,173,69,1,waken,images/br_waken.png,images/cb_waken.png,0,,,,,,,,,,,,,,,,,,,,,,
,,,,,00054,2023-10-12_22h26.00.494,vbt_B2_day4,2022.2.4,Win32,60.3646022,,,,,,down,0,0.2477,,-0.186197917,-0.380208333,1,0,0,0,174,174,16,1,ziek,images/br_ziek.png,images/cb_ziek.png,0,,,,,,,,,,,,,,,,,,,,,,
,,,,,00054,2023-10-12_22h26.00.494,vbt_B2_day4,2022.2.4,Win32,60.3646022,,,,,,down,0,0.3851,,-0.186197917,-0.380208333,1,0,0,0,175,175,25,1,plek,images/br_plek.png,images/cb_plek.png,1,plek,,,,,,,,,,,,,,,,,,,,,
,,,,,00054,2023-10-12_22h26.00.494,vbt_B2_day4,2022.2.4,Win32,60.3646022,,,,,,down,0,3.6264,,-0.186197917,-0.380208333,1,0,0,0,176,176,145,1,invloed,images/br_invloed.png,images/cb_invloed.png,1,invloed,,,,,,,,,,,,,,,,,,,,,
,,,,,00054,2023-10-12_22h26.00.494,vbt_B2_day4,2022.2.4,Win32,60.3646022,,,,,,down,0,0.1978,,-0.186197917,-0.380208333,1,0,0,0,177,177,33,1,vlek,images/br_vlek.png,images/cb_vlek.png,0,,,,,,,,,,,,,,,,,,,,,,
,,,,,00054,2023-10-12_22h26.00.494,vbt_B2_day4,2022.2.4,Win32,60.3646022,,,,,,down,0,0.7843,,-0.186197917,-0.380208333,1,0,0,0,178,178,132,1,grappen,images/br_grappen.png,images/cb_grappen.png,0,,,,,,,,,,,,,,,,,,,,,,
,,,,,00054,2023-10-12_22h26.00.494,vbt_B2_day4,2022.2.4,Win32,60.3646022,,,,,,down,0,0.4001,,-0.186197917,-0.380208333,1,0,0,0,179,179,150,1,gegeven,images/br_gegeven.png,images/cb_gegeven.png,0,,,,,,,,,,,,,,,,,,,,,,
,,,,,00054,2023-10-12_22h26.00.494,vbt_B2_day4,2022.2.4,Win32,60.3646022,,,,,,down,0,3.1066,,-0.186197917,-0.380208333,1,0,0,0,180,180,119,1,liefje,images/br_liefje.png,images/cb_liefje.png,0,,,,,,,,,,,,,,,,,,,,,,
,,,,,00054,2023-10-12_22h26.00.494,vbt_B2_day4,2022.2.4,Win32,60.3646022,,,,,,down,0,2.07,,-0.186197917,-0.380208333,1,0,0,0,181,181,108,1,excuus,images/br_excuus.png,images/cb_excuus.png,0,,,,,,,,,,,,,,,,,,,,,,
,,,,,00054,2023-10-12_22h26.00.494,vbt_B2_day4,2022.2.4,Win32,60.3646022,,,,,,down,0,0.1634,,-0.186197917,-0.380208333,1,0,0,0,182,182,2,1,jaar,images/br_jaar.png,images/cb_jaar.png,0,,,,,,,,,,,,,,,,,,,,,,
,,,,,00054,2023-10-12_22h26.00.494,vbt_B2_day4,2022.2.4,Win32,60.3646022,,,,,,down,0,0.6474,,-0.186197917,-0.380208333,1,0,0,0,183,183,42,1,bleek,images/br_bleek.png,images/cb_bleek.png,0,,,,,,,,,,,,,,,,,,,,,,
,,,,,00054,2023-10-12_22h26.00.494,vbt_B2_day4,2022.2.4,Win32,60.3646022,,,,,,down,0,0.6817,,-0.186197917,-0.380208333,1,0,0,0,184,184,32,1,palm,images/br_palm.png,images/cb_palm.png,0,,,,,,,,,,,,,,,,,,,,,,
,,,,,00054,2023-10-12_22h26.00.494,vbt_B2_day4,2022.2.4,Win32,60.3646022,,,,,,down,0,1.1879,,-0.186197917,-0.380208333,1,0,0,0,185,185,40,1,schep,images/br_schep.png,images/cb_schep.png,0,,,,,,,,,,,,,,,,,,,,,,
,,,,,00054,2023-10-12_22h26.00.494,vbt_B2_day4,2022.2.4,Win32,60.3646022,,,,,,down,0,1.0987,,-0.186197917,-0.380208333,1,0,0,0,186,186,192,1,schaamte,images/br_schaamte.png,images/cb_schaamte.png,0,,,,,,,,,,,,,,,,,,,,,,
,,,,,00054,2023-10-12_22h26.00.494,vbt_B2_day4,2022.2.4,Win32,60.3646022,,,,,,down,0,4.9898,,-0.186197917,-0.380208333,1,0,0,0,187,187,155,1,gerucht,images/br_gerucht.png,images/cb_gerucht.png,0,,,,,,,,,,,,,,,,,,,,,,
,,,,,00054,2023-10-12_22h26.00.494,vbt_B2_day4,2022.2.4,Win32,60.3646022,,,,,,down,0,0.2718,,-0.186197917,-0.380208333,1,0,0,0,188,188,7,1,geld,images/br_geld.png,images/cb_geld.png,0,,,,,,,,,,,,,,,,,,,,,,
,,,,,00054,2023-10-12_22h26.00.494,vbt_B2_day4,2022.2.4,Win32,60.3646022,,,,,,down,0,0.5838,,-0.186197917,-0.380208333,1,0,0,0,189,189,100,1,geduld,images/br_geduld.png,images/cb_geduld.png,0,,,,,,,,,,,,,,,,,,,,,,
,,,,,00054,2023-10-12_22h26.00.494,vbt_B2_day4,2022.2.4,Win32,60.3646022,,,,,,down,0,0.5332,,-0.186197917,-0.380208333,1,0,0,0,190,190,38,1,baai,images/br_baai.png,images/cb_baai.png,0,,,,,,,,,,,,,,,,,,,,,,
,,,,,00054,2023-10-12_22h26.00.494,vbt_B2_day4,2022.2.4,Win32,60.3646022,,,,,,down,0,2.5568,,-0.186197917,-0.380208333,1,0,0,0,191,191,49,1,laken,images/br_laken.png,images/cb_laken.png,0,,,,,,,,,,,,,,,,,,,,,,
,,,,,00054,2023-10-12_22h26.00.494,vbt_B2_day4,2022.2.4,Win32,60.3646022,,,,,,down,0,1.8022,,-0.186197917,-0.380208333,1,0,0,0,192,192,142,1,snuiven,images/br_snuiven.png,images/cb_snuiven.png,0,,,,,,,,,,,,,,,,,,,,,,
,,,,,00054,2023-10-12_22h26.00.494,vbt_B2_day4,2022.2.4,Win32,60.3646022,,,,,,down,0,0.4712,,-0.186197917,-0.380208333,1,0,0,0,193,193,90,1,geluid,images/br_geluid.png,images/cb_geluid.png,0,,,,,,,,,,,,,,,,,,,,,,
,,,,,00054,2023-10-12_22h26.00.494,vbt_B2_day4,2022.2.4,Win32,60.3646022,,,,,,down,0,5.1088,,-0.186197917,-0.380208333,1,0,0,0,194,194,144,1,eetlust,images/br_eetlust.png,images/cb_eetlust.png,1,eetlust,,,,,,,,,,,,,,,,,,,,,
,,,,,00054,2023-10-12_22h26.00.494,vbt_B2_day4,2022.2.4,Win32,60.3646022,,,,,,down,0,0.2683,,-0.186197917,-0.380208333,1,0,0,0,195,195,124,1,bloeien,images/br_bloeien.png,images/cb_bloeien.png,0,,,,,,,,,,,,,,,,,,,,,,
,,,,,00054,2023-10-12_22h26.00.494,vbt_B2_day4,2022.2.4,Win32,60.3646022,,,,,,down,0,4.9426,,-0.186197917,-0.380208333,1,0,0,0,196,196,104,1,zweven,images/br_zweven.png,images/cb_zweven.png,1,zweven,,,,,,,,,,,,,,,,,,,,,
,,,,,00054,2023-10-12_22h26.00.494,vbt_B2_day4,2022.2.4,Win32,60.3646022,,,,,,down,0,0.2079,,-0.186197917,-0.3828125,1,0,0,0,197,197,4,1,moes,images/br_moes.png,images/cb_moes.png,0,,,,,,,,,,,,,,,,,,,,,,
,,,,,00054,2023-10-12_22h26.00.494,vbt_B2_day4,2022.2.4,Win32,60.3646022,,,,,,down,0,1.1631,,-0.186197917,-0.3828125,1,0,0,0,198,198,66,1,lever,images/br_lever.png,images/cb_lever.png,1,lever,,,,,,,,,,,,,,,,,,,,,
,,,,,00054,2023-10-12_22h26.00.494,vbt_B2_day4,2022.2.4,Win32,60.3646022,,,,,,down,0,0.0611,,-0.186197917,-0.3828125,1,0,0,0,199,199,41,1,maken,images/br_maken.png,images/cb_maken.png,0,,,,,,,,,,,,,,,,,,,,,,
,,,,,00054,2023-10-12_22h26.00.494,vbt_B2_day4,2022.2.4,Win32,60.3646022,,,,,,,,,,,,,,,,,,,,,,,,,-0.186197917,-0.3828125,1,0,0,,,,,,,,,,,,,,,,
,,,,,00054,2023-10-12_22h26.00.494,vbt_B2_day4,2022.2.4,Win32,60.3646022,,,,,,,,,,,,,,,,,,,,,,,,,,,,,,-0.186197917,-0.3828125,1,0,0,,,,,,,,,,,
,,,,,00054,2023-10-12_22h26.00.494,vbt_B2_day4,2022.2.4,Win32,60.3646022,,,,,,,,,,,,,,,,,,,,schotel,images/br_schotel.png,images/cb_schotel.png,,schotel,,,,,,,,,,,-0.186197917,-0.3828125,1,0,0,schotel,0,0,0,52,1
,,,,,00054,2023-10-12_22h26.00.494,vbt_B2_day4,2022.2.4,Win32,60.3646022,,,,,,,,,,,,,,,,,,,,drooien,images/br_drooien.png,images/cb_drooien.png,,froeien,,,,,,,,,,,-0.186197917,-0.3828125,1,0,0,froeien,0,1,1,32,1
,,,,,00054,2023-10-12_22h26.00.494,vbt_B2_day4,2022.2.4,Win32,60.3646022,,,,,,,,,,,,,,,,,,,,kaal,images/br_kaal.png,images/cb_kaal.png,,kaal,,,,,,,,,,,0.106770833,-0.395833333,1,0,0,kaal,0,2,2,1,1
,,,,,00054,2023-10-12_22h26.00.494,vbt_B2_day4,2022.2.4,Win32,60.3646022,,,,,,,,,,,,,,,,,,,,oceaan,images/br_oceaan.png,images/cb_oceaan.png,,oceaan,,,,,,,,,,,0.106770833,-0.395833333,1,0,0,oceaan,0,3,3,10,1
,,,,,00054,2023-10-12_22h26.00.494,vbt_B2_day4,2022.2.4,Win32,60.3646022,,,,,,,,,,,,,,,,,,,,zaalrijk,images/br_zaalrijk.png,images/cb_zaalrijk.png,,zaalrijk,,,,,,,,,,,0.106770833,-0.395833333,1,0,0,zaalrijk,0,4,4,37,1
,,,,,00054,2023-10-12_22h26.00.494,vbt_B2_day4,2022.2.4,Win32,60.3646022,,,,,,,,,,,,,,,,,,,,pijnlijk,images/br_pijnlijk.png,images/cb_pijnlijk.png,,pijnlijk,,,,,,,,,,,0.106770833,-0.395833333,1,0,0,pijnlijk,0,5,5,58,1
,,,,,00054,2023-10-12_22h26.00.494,vbt_B2_day4,2022.2.4,Win32,60.3646022,,,,,,,,,,,,,,,,,,,,noodzaak,images/br_noodzaak.png,images/cb_noodzaak.png,,noodzaak,,,,,,,,,,,0.106770833,-0.395833333,1,0,0,noodzaak,0,6,6,56,1
,,,,,00054,2023-10-12_22h26.00.494,vbt_B2_day4,2022.2.4,Win32,60.3646022,,,,,,,,,,,,,,,,,,,,sulbon,images/br_sulbon.png,images/cb_sulbon.png,,sulbon,,,,,,,,,,,0.106770833,-0.395833333,1,0,0,sulbon,0,7,7,31,1
,,,,,00054,2023-10-12_22h26.00.494,vbt_B2_day4,2022.2.4,Win32,60.3646022,,,,,,,,,,,,,,,,,,,,rijp,images/br_rijp.png,images/cb_rijp.png,,rijp,,,,,,,,,,,-0.084635417,-0.317708333,1,0,0,rijp,0,8,8,2,1
,,,,,00054,2023-10-12_22h26.00.494,vbt_B2_day4,2022.2.4,Win32,60.3646022,,,,,,,,,,,,,,,,,,,,haza,images/br_haza.png,images/cb_haza.png,,hasa,,,,,,,,,,,-0.084635417,-0.317708333,1,0,0,hasa,0,9,9,21,1
,,,,,00054,2023-10-12_22h26.00.494,vbt_B2_day4,2022.2.4,Win32,60.3646022,,,,,,,,,,,,,,,,,,,,broodje,images/br_broodje.png,images/cb_broodje.png,,broedje,,,,,,,,,,,-0.084635417,-0.317708333,1,0,0,broedje,0,10,10,55,1
,,,,,00054,2023-10-12_22h26.00.494,vbt_B2_day4,2022.2.4,Win32,60.3646022,,,,,,,,,,,,,,,,,,,,flippen,images/br_flippen.png,images/cb_flippen.png,,flippen,,,,,,,,,,,-0.084635417,-0.317708333,1,0,0,flippen,0,11,11,54,1
,,,,,00054,2023-10-12_22h26.00.494,vbt_B2_day4,2022.2.4,Win32,60.3646022,,,,,,,,,,,,,,,,,,,,geheim,images/br_geheim.png,images/cb_geheim.png,,geheim,,,,,,,,,,,-0.080729167,-0.319010417,1,0,0,geheim,0,12,12,8,1
,,,,,00054,2023-10-12_22h26.00.494,vbt_B2_day4,2022.2.4,Win32,60.3646022,,,,,,,,,,,,,,,,,,,,vreten,images/br_vreten.png,images/cb_vreten.png,,vre...,,,,,,,,,,,0.061197917,-0.385416667,1,0,0,vre...,0,13,13,11,1
,,,,,00054,2023-10-12_22h26.00.494,vbt_B2_day4,2022.2.4,Win32,60.3646022,,,,,,,,,,,,,,,,,,,,seizoen,images/br_seizoen.png,images/cb_seizoen.png,,seizoen,,,,,,,,,,,0.052083333,-0.315104167,1,0,0,seizoen,0,14,14,13,1
,,,,,00054,2023-10-12_22h26.00.494,vbt_B2_day4,2022.2.4,Win32,60.3646022,,,,,,,,,,,,,,,,,,,,zwek,images/br_zwek.png,images/cb_zwek.png,,zwek,,,,,,,,,,,0.052083333,-0.315104167,1,0,0,zwek,0,15,15,20,1
,,,,,00054,2023-10-12_22h26.00.494,vbt_B2_day4,2022.2.4,Win32,60.3646022,,,,,,,,,,,,,,,,,,,,gebog,images/br_gebog.png,images/cb_gebog.png,,gebog,,,,,,,,,,,0.223958333,-0.3125,1,0,0,gebog,0,16,16,24,1
,,,,,00054,2023-10-12_22h26.00.494,vbt_B2_day4,2022.2.4,Win32,60.3646022,,,,,,,,,,,,,,,,,,,,heengaan,images/br_heengaan.png,images/cb_heengaan.png,,heengaan,,,,,,,,,,,0.223958333,-0.3125,1,0,0,heengaan,0,17,17,19,1
,,,,,00054,2023-10-12_22h26.00.494,vbt_B2_day4,2022.2.4,Win32,60.3646022,,,,,,,,,,,,,,,,,,,,drummer,images/br_drummer.png,images/cb_drummer.png,,hrammen,,,,,,,,,,,0.46484375,-0.3359375,1,0,0,hrammen,0,18,18,53,1
,,,,,00054,2023-10-12_22h26.00.494,vbt_B2_day4,2022.2.4,Win32,60.3646022,,,,,,,,,,,,,,,,,,,,schenden,images/br_schenden.png,images/cb_schenden.png,,schenden,,,,,,,,,,,0.46484375,-0.3359375,1,0,0,schenden,0,19,19,57,1
,,,,,00054,2023-10-12_22h26.00.494,vbt_B2_day4,2022.2.4,Win32,60.3646022,,,,,,,,,,,,,,,,,,,,stemming,images/br_stemming.png,images/cb_stemming.png,,stemming,,,,,,,,,,,0.46484375,-0.3359375,1,0,0,stemming,0,20,20,18,1
,,,,,00054,2023-10-12_22h26.00.494,vbt_B2_day4,2022.2.4,Win32,60.3646022,,,,,,,,,,,,,,,,,,,,gaaf,images/br_gaaf.png,images/cb_gaaf.png,,gaaf,,,,,,,,,,,0.46484375,-0.3359375,1,0,0,gaaf,0,21,21,43,1
,,,,,00054,2023-10-12_22h26.00.494,vbt_B2_day4,2022.2.4,Win32,60.3646022,,,,,,,,,,,,,,,,,,,,kust,images/br_kust.png,images/cb_kust.png,,kust,,,,,,,,,,,0.46484375,-0.3359375,1,0,0,kust,0,22,22,0,1
,,,,,00054,2023-10-12_22h26.00.494,vbt_B2_day4,2022.2.4,Win32,60.3646022,,,,,,,,,,,,,,,,,,,,tucket,images/br_tucket.png,images/cb_tucket.png,,tucket,,,,,,,,,,,0.46484375,-0.3359375,1,0,0,tucket,0,23,23,30,1
,,,,,00054,2023-10-12_22h26.00.494,vbt_B2_day4,2022.2.4,Win32,60.3646022,,,,,,,,,,,,,,,,,,,,weigeren,images/br_weigeren.png,images/cb_weigeren.png,,weigeren,,,,,,,,,,,0.46484375,-0.3359375,1,0,0,weigeren,0,24,24,16,1
,,,,,00054,2023-10-12_22h26.00.494,vbt_B2_day4,2022.2.4,Win32,60.3646022,,,,,,,,,,,,,,,,,,,,baron,images/br_baron.png,images/cb_baron.png,,baron,,,,,,,,,,,0.46484375,-0.3359375,1,0,0,baron,0,25,25,5,1
,,,,,00054,2023-10-12_22h26.00.494,vbt_B2_day4,2022.2.4,Win32,60.3646022,,,,,,,,,,,,,,,,,,,,warel,images/br_warel.png,images/cb_warel.png,,warel,,,,,,,,,,,0.46484375,-0.3359375,1,0,0,warel,0,26,26,26,1
,,,,,00054,2023-10-12_22h26.00.494,vbt_B2_day4,2022.2.4,Win32,60.3646022,,,,,,,,,,,,,,,,,,,,dalen,images/br_dalen.png,images/cb_dalen.png,,dalen,,,,,,,,,,,0.46484375,-0.3359375,1,0,0,dalen,0,27,27,46,1
,,,,,00054,2023-10-12_22h26.00.494,vbt_B2_day4,2022.2.4,Win32,60.3646022,,,,,,,,,,,,,,,,,,,,opkicht,images/br_opkicht.png,images/cb_opkicht.png,,opkich.,,,,,,,,,,,0.46484375,-0.3359375,1,0,0,opkich.,0,28,28,34,1
,,,,,00054,2023-10-12_22h26.00.494,vbt_B2_day4,2022.2.4,Win32,60.3646022,,,,,,,,,,,,,,,,,,,,geliefd,images/br_geliefd.png,images/cb_geliefd.png,,geliefd,,,,,,,,,,,0.46484375,-0.3359375,1,0,0,geliefd,0,29,29,14,1
,,,,,00054,2023-10-12_22h26.00.494,vbt_B2_day4,2022.2.4,Win32,60.3646022,,,,,,,,,,,,,,,,,,,,paalbaak,images/br_paalbaak.png,images/cb_paalbaak.png,,paalbaak,,,,,,,,,,,0.46484375,-0.3359375,1,0,0,paalbaak,0,30,30,39,1
,,,,,00054,2023-10-12_22h26.00.494,vbt_B2_day4,2022.2.4,Win32,60.3646022,,,,,,,,,,,,,,,,,,,,eerst,images/br_eerst.png,images/cb_eerst.png,,eerst,,,,,,,,,,,0.46484375,-0.3359375,1,0,0,eerst,0,31,31,47,1
,,,,,00054,2023-10-12_22h26.00.494,vbt_B2_day4,2022.2.4,Win32,60.3646022,,,,,,,,,,,,,,,,,,,,gaan,images/br_gaan.png,images/cb_gaan.png,,gaan,,,,,,,,,,,0.46484375,-0.3359375,1,0,0,gaan,0,32,32,41,1
,,,,,00054,2023-10-12_22h26.00.494,vbt_B2_day4,2022.2.4,Win32,60.3646022,,,,,,,,,,,,,,,,,,,,snee,images/br_snee.png,images/cb_snee.png,,snee,,,,,,,,,,,0.46484375,-0.3359375,1,0,0,snee,0,33,33,40,1
,,,,,00054,2023-10-12_22h26.00.494,vbt_B2_day4,2022.2.4,Win32,60.3646022,,,,,,,,,,,,,,,,,,,,wozing,images/br_wozing.png,images/cb_wozing.png,,wozing,,,,,,,,,,,0.46484375,-0.3359375,1,0,0,wozing,0,34,34,28,1
,,,,,00054,2023-10-12_22h26.00.494,vbt_B2_day4,2022.2.4,Win32,60.3646022,,,,,,,,,,,,,,,,,,,,fran,images/br_fran.png,images/cb_fran.png,,fran,,,,,,,,,,,0.46484375,-0.3359375,1,0,0,fran,0,35,35,22,1
,,,,,00054,2023-10-12_22h26.00.494,vbt_B2_day4,2022.2.4,Win32,60.3646022,,,,,,,,,,,,,,,,,,,,gebit,images/br_gebit.png,images/cb_gebit.png,,gebit,,,,,,,,,,,0.46484375,-0.3359375,1,0,0,gebit,0,36,36,6,1
,,,,,00054,2023-10-12_22h26.00.494,vbt_B2_day4,2022.2.4,Win32,60.3646022,,,,,,,,,,,,,,,,,,,,wagon,images/br_wagon.png,images/cb_wagon.png,,wagon,,,,,,,,,,,0.46484375,-0.3359375,1,0,0,wagon,0,37,37,4,1
,,,,,00054,2023-10-12_22h26.00.494,vbt_B2_day4,2022.2.4,Win32,60.3646022,,,,,,,,,,,,,,,,,,,,gijf,images/br_gijf.png,images/cb_gijf.png,,gijf,,,,,,,,,,,0.46484375,-0.3359375,1,0,0,gijf,0,38,38,23,1
,,,,,00054,2023-10-12_22h26.00.494,vbt_B2_day4,2022.2.4,Win32,60.3646022,,,,,,,,,,,,,,,,,,,,dozijn,images/br_dozijn.png,images/cb_dozijn.png,,dozijn,,,,,,,,,,,0.46484375,-0.3359375,1,0,0,dozijn,0,39,39,48,1
,,,,,00054,2023-10-12_22h26.00.494,vbt_B2_day4,2022.2.4,Win32,60.3646022,,,,,,,,,,,,,,,,,,,,gedicht,images/br_gedicht.png,images/cb_gedicht.png,,gedicht,,,,,,,,,,,0.46484375,-0.3359375,1,0,0,gedicht,0,40,40,15,1
,,,,,00054,2023-10-12_22h26.00.494,vbt_B2_day4,2022.2.4,Win32,60.3646022,,,,,,,,,,,,,,,,,,,,praat,images/br_praat.png,images/cb_praat.png,,praat,,,,,,,,,,,0.46484375,-0.3359375,1,0,0,praat,0,41,41,7,1
,,,,,00054,2023-10-12_22h26.00.494,vbt_B2_day4,2022.2.4,Win32,60.3646022,,,,,,,,,,,,,,,,,,,,lappen,images/br_lappen.png,images/cb_lappen.png,,lappen,,,,,,,,,,,0.46484375,-0.3359375,1,0,0,lappen,0,42,42,49,1
,,,,,00054,2023-10-12_22h26.00.494,vbt_B2_day4,2022.2.4,Win32,60.3646022,,,,,,,,,,,,,,,,,,,,opruimen,images/br_opruimen.png,images/cb_opruimen.png,,opruimen,,,,,,,,,,,0.46484375,-0.3359375,1,0,0,opruimen,0,43,43,59,1
,,,,,00054,2023-10-12_22h26.00.494,vbt_B2_day4,2022.2.4,Win32,60.3646022,,,,,,,,,,,,,,,,,,,,apparaat,images/br_apparaat.png,images/cb_apparaat.png,,apparaat,,,,,,,,,,,0.46484375,-0.3359375,1,0,0,apparaat,0,44,44,17,1
,,,,,00054,2023-10-12_22h26.00.494,vbt_B2_day4,2022.2.4,Win32,60.3646022,,,,,,,,,,,,,,,,,,,,soda,images/br_soda.png,images/cb_soda.png,,soda,,,,,,,,,,,0.46484375,-0.3359375,1,0,0,soda,0,45,45,3,1
,,,,,00054,2023-10-12_22h26.00.494,vbt_B2_day4,2022.2.4,Win32,60.3646022,,,,,,,,,,,,,,,,,,,,aanzwaag,images/br_aanzwaag.png,images/cb_aanzwaag.png,,aanzwaag,,,,,,,,,,,0.46484375,-0.3359375,1,0,0,aanzwaag,0,46,46,38,1
,,,,,00054,2023-10-12_22h26.00.494,vbt_B2_day4,2022.2.4,Win32,60.3646022,,,,,,,,,,,,,,,,,,,,toevol,images/br_toevol.png,images/cb_toevol.png,,toeval,,,,,,,,,,,0.46484375,-0.3359375,1,0,0,toeval,0,47,47,29,1
,,,,,00054,2023-10-12_22h26.00.494,vbt_B2_day4,2022.2.4,Win32,60.3646022,,,,,,,,,,,,,,,,,,,,midden,images/br_midden.png,images/cb_midden.png,,midden,,,,,,,,,,,0.46484375,-0.3359375,1,0,0,midden,0,48,48,50,1
,,,,,00054,2023-10-12_22h26.00.494,vbt_B2_day4,2022.2.4,Win32,60.3646022,,,,,,,,,,,,,,,,,,,,mekst,images/br_mekst.png,images/cb_mekst.png,,mekst,,,,,,,,,,,0.46484375,-0.3359375,1,0,0,mekst,0,49,49,27,1
,,,,,00054,2023-10-12_22h26.00.494,vbt_B2_day4,2022.2.4,Win32,60.3646022,,,,,,,,,,,,,,,,,,,,seizoon,images/br_seizoon.png,images/cb_seizoon.png,,seizoon,,,,,,,,,,,0.46484375,-0.3359375,1,0,0,seizoon,0,50,50,33,1
,,,,,00054,2023-10-12_22h26.00.494,vbt_B2_day4,2022.2.4,Win32,60.3646022,,,,,,,,,,,,,,,,,,,,getucht,images/br_getucht.png,images/cb_getucht.png,,getec...,,,,,,,,,,,0.46484375,-0.3359375,1,0,0,getec...,0,51,51,35,1
,,,,,00054,2023-10-12_22h26.00.494,vbt_B2_day4,2022.2.4,Win32,60.3646022,,,,,,,,,,,,,,,,,,,,pittig,images/br_pittig.png,images/cb_pittig.png,,pittig,,,,,,,,,,,0.46484375,-0.3359375,1,0,0,pittig,0,52,52,51,1
,,,,,00054,2023-10-12_22h26.00.494,vbt_B2_day4,2022.2.4,Win32,60.3646022,,,,,,,,,,,,,,,,,,,,bruin,images/br_bruin.png,images/cb_bruin.png,,bruin,,,,,,,,,,,0.46484375,-0.3359375,1,0,0,bruin,0,53,53,45,1
,,,,,00054,2023-10-12_22h26.00.494,vbt_B2_day4,2022.2.4,Win32,60.3646022,,,,,,,,,,,,,,,,,,,,steen,images/br_steen.png,images/cb_steen.png,,steen,,,,,,,,,,,0.46484375,-0.3359375,1,0,0,steen,0,54,54,44,1
,,,,,00054,2023-10-12_22h26.00.494,vbt_B2_day4,2022.2.4,Win32,60.3646022,,,,,,,,,,,,,,,,,,,,grappen,images/br_grappen.png,images/cb_grappen.png,,grappen,,,,,,,,,,,0.46484375,-0.3359375,1,0,0,grappen,0,55,55,12,1
,,,,,00054,2023-10-12_22h26.00.494,vbt_B2_day4,2022.2.4,Win32,60.3646022,,,,,,,,,,,,,,,,,,,,ezel,images/br_ezel.png,images/cb_ezel.png,,ezel,,,,,,,,,,,0.46484375,-0.3359375,1,0,0,ezel,0,56,56,42,1
,,,,,00054,2023-10-12_22h26.00.494,vbt_B2_day4,2022.2.4,Win32,60.3646022,,,,,,,,,,,,,,,,,,,,waarop,images/br_waarop.png,images/cb_waarop.png,,waarop,,,,,,,,,,,0.46484375,-0.3359375,1,0,0,waarop,0,57,57,9,1
,,,,,00054,2023-10-12_22h26.00.494,vbt_B2_day4,2022.2.4,Win32,60.3646022,,,,,,,,,,,,,,,,,,,,bisschap,images/br_bisschap.png,images/cb_bisschap.png,,bisschop,,,,,,,,,,,0.46484375,-0.3359375,1,0,0,bisschop,0,58,58,36,1
,,,,,00054,2023-10-12_22h26.00.494,vbt_B2_day4,2022.2.4,Win32,60.3646022,,,,,,,,,,,,,,,,,,,,strok,images/br_strok.png,images/cb_strok.png,,strok,,,,,,,,,,,0.46484375,-0.3359375,1,0,0,strok,0,59,59,25,1
,,,,,00054,2023-10-12_22h26.00.494,vbt_B2_day4,2022.2.4,Win32,60.3646022,,,,,,,,,,,,,,,,,,,,,,,,,,,,,,,,,,,,,,,,,,,,,
