welcome_mouse.x,welcome_mouse.y,welcome_mouse.leftButton,welcome_mouse.midButton,welcome_mouse.rightButton,"ID",date,expName,psychopyVersion,OS,frameRate,trainInstr_mouse.x,trainInstr_mouse.y,trainInstr_mouse.leftButton,trainInstr_mouse.midButton,trainInstr_mouse.rightButton,translation_key.keys,translation_key.corr,translation_key.rt,word_rsp.text,trWrd_mouse.x,trWrd_mouse.y,trWrd_mouse.leftButton,trWrd_mouse.midButton,trWrd_mouse.rightButton,train_loop.thisRepN,train_loop.thisTrialN,train_loop.thisN,train_loop.thisIndex,train_loop.ran,nlWrd,brWrd,cbWrd,test,testResp,mouse.x,mouse.y,mouse.leftButton,mouse.midButton,mouse.rightButton,testInstr_mouse.x,testInstr_mouse.y,testInstr_mouse.leftButton,testInstr_mouse.midButton,testInstr_mouse.rightButton,test_mouse.x,test_mouse.y,test_mouse.leftButton,test_mouse.midButton,test_mouse.rightButton,test_response.text,test_loop.thisRepN,test_loop.thisTrialN,test_loop.thisN,test_loop.thisIndex,test_loop.ran
-0.064130435,-0.082608696,1,0,0,00017,2023-08-19_23h21.18.231,vbt_B2_day4,2022.2.4,MacIntel,58.82352941,,,,,,,,,,,,,,,,,,,,,,,,,,,,,,,,,,,,,,,,,,,,,
,,,,,00017,2023-08-19_23h21.18.231,vbt_B2_day4,2022.2.4,MacIntel,58.82352941,-0.008695652,-0.072826087,1,0,0,,,,,,,,,,,,,,,,,,,,,,,,,,,,,,,,,,,,,,,,
,,,,,00017,2023-08-19_23h21.18.231,vbt_B2_day4,2022.2.4,MacIntel,58.82352941,,,,,,down,0,0.034,,0.007608696,-0.138043478,1,0,0,0,0,0,4,1,moes,images/br_moes.png,images/cb_moes.png,0,,,,,,,,,,,,,,,,,,,,,,
,,,,,00017,2023-08-19_23h21.18.231,vbt_B2_day4,2022.2.4,MacIntel,58.82352941,,,,,,down,0,34.382,,0.042391304,-0.129347826,1,0,0,0,1,1,199,1,beseffen,images/br_beseffen.png,images/cb_beseffen.png,0,,,,,,,,,,,,,,,,,,,,,,
,,,,,00017,2023-08-19_23h21.18.231,vbt_B2_day4,2022.2.4,MacIntel,58.82352941,,,,,,down,0,10.937,,0.042391304,-0.132608696,1,0,0,0,2,2,32,1,palm,images/br_palm.png,images/cb_palm.png,0,,,,,,,,,,,,,,,,,,,,,,
,,,,,00017,2023-08-19_23h21.18.231,vbt_B2_day4,2022.2.4,MacIntel,58.82352941,,,,,,down,0,42.782,,0.057608696,-0.115217391,1,0,0,0,3,3,160,1,daarheen,images/br_daarheen.png,images/cb_daarheen.png,0,,,,,,,,,,,,,,,,,,,,,,
,,,,,00017,2023-08-19_23h21.18.231,vbt_B2_day4,2022.2.4,MacIntel,58.82352941,,,,,,down,0,33.617,,0.057608696,-0.115217391,1,0,0,0,4,4,68,1,schat,images/br_schat.png,images/cb_schat.png,0,,,,,,,,,,,,,,,,,,,,,,
,,,,,00017,2023-08-19_23h21.18.231,vbt_B2_day4,2022.2.4,MacIntel,58.82352941,,,,,,down,0,0.7,,0.057608696,-0.115217391,1,0,0,0,5,5,125,1,aanzien,images/br_aanzien.png,images/cb_aanzien.png,0,,,,,,,,,,,,,,,,,,,,,,
,,,,,00017,2023-08-19_23h21.18.231,vbt_B2_day4,2022.2.4,MacIntel,58.82352941,,,,,,down,0,0.392,,0.057608696,-0.115217391,1,0,0,0,6,6,106,1,zingen,images/br_zingen.png,images/cb_zingen.png,1,zingen,,,,,,,,,,,,,,,,,,,,,
,,,,,00017,2023-08-19_23h21.18.231,vbt_B2_day4,2022.2.4,MacIntel,58.82352941,,,,,,down,0,0.337,,0.057608696,-0.115217391,1,0,0,0,7,7,132,1,grappen,images/br_grappen.png,images/cb_grappen.png,0,,,,,,,,,,,,,,,,,,,,,,
,,,,,00017,2023-08-19_23h21.18.231,vbt_B2_day4,2022.2.4,MacIntel,58.82352941,,,,,,down,0,0.5,,0.057608696,-0.115217391,1,0,0,0,8,8,34,1,vorm,images/br_vorm.png,images/cb_vorm.png,0,,,,,,,,,,,,,,,,,,,,,,
,,,,,00017,2023-08-19_23h21.18.231,vbt_B2_day4,2022.2.4,MacIntel,58.82352941,,,,,,down,0,0.487,,0.057608696,-0.115217391,1,0,0,0,9,9,90,1,geluid,images/br_geluid.png,images/cb_geluid.png,0,,,,,,,,,,,,,,,,,,,,,,
,,,,,00017,2023-08-19_23h21.18.231,vbt_B2_day4,2022.2.4,MacIntel,58.82352941,,,,,,down,0,1.801,,0.048913043,-0.085869565,1,0,0,0,10,10,80,1,kanjer,images/br_kanjer.png,images/cb_kanjer.png,0,,,,,,,,,,,,,,,,,,,,,,
,,,,,00017,2023-08-19_23h21.18.231,vbt_B2_day4,2022.2.4,MacIntel,58.82352941,,,,,,down,0,0.316,,0.05,-0.085869565,1,0,0,0,11,11,126,1,kasteel,images/br_kasteel.png,images/cb_kasteel.png,0,,,,,,,,,,,,,,,,,,,,,,
,,,,,00017,2023-08-19_23h21.18.231,vbt_B2_day4,2022.2.4,MacIntel,58.82352941,,,,,,down,0,0.867,,0.05,-0.085869565,1,0,0,0,12,12,189,1,aanraden,images/br_aanraden.png,images/cb_aanraden.png,0,,,,,,,,,,,,,,,,,,,,,,
,,,,,00017,2023-08-19_23h21.18.231,vbt_B2_day4,2022.2.4,MacIntel,58.82352941,,,,,,down,0,1.152,,0.05,-0.085869565,1,0,0,0,13,13,43,1,klauw,images/br_klauw.png,images/cb_klauw.png,0,,,,,,,,,,,,,,,,,,,,,,
,,,,,00017,2023-08-19_23h21.18.231,vbt_B2_day4,2022.2.4,MacIntel,58.82352941,,,,,,down,0,0.433,,0.05,-0.085869565,1,0,0,0,14,14,64,1,wegen,images/br_wegen.png,images/cb_wegen.png,1,wegen,,,,,,,,,,,,,,,,,,,,,
,,,,,00017,2023-08-19_23h21.18.231,vbt_B2_day4,2022.2.4,MacIntel,58.82352941,,,,,,down,0,0.481,,0.05,-0.085869565,1,0,0,0,15,15,16,1,ziek,images/br_ziek.png,images/cb_ziek.png,0,,,,,,,,,,,,,,,,,,,,,,
,,,,,00017,2023-08-19_23h21.18.231,vbt_B2_day4,2022.2.4,MacIntel,58.82352941,,,,,,down,0,3.003,,0.05,-0.085869565,1,0,0,0,16,16,6,1,diep,images/br_diep.png,images/cb_diep.png,0,,,,,,,,,,,,,,,,,,,,,,
,,,,,00017,2023-08-19_23h21.18.231,vbt_B2_day4,2022.2.4,MacIntel,58.82352941,,,,,,down,0,13.089,,0.05,-0.085869565,1,0,0,0,17,17,148,1,smullen,images/br_smullen.png,images/cb_smullen.png,0,,,,,,,,,,,,,,,,,,,,,,
,,,,,00017,2023-08-19_23h21.18.231,vbt_B2_day4,2022.2.4,MacIntel,58.82352941,,,,,,down,0,1.392,,0.05,-0.085869565,1,0,0,0,18,18,130,1,keihard,images/br_keihard.png,images/cb_keihard.png,0,,,,,,,,,,,,,,,,,,,,,,
,,,,,00017,2023-08-19_23h21.18.231,vbt_B2_day4,2022.2.4,MacIntel,58.82352941,,,,,,down,0,10.067,,0.05,-0.085869565,1,0,0,0,19,19,134,1,geliefd,images/br_geliefd.png,images/cb_geliefd.png,0,,,,,,,,,,,,,,,,,,,,,,
,,,,,00017,2023-08-19_23h21.18.231,vbt_B2_day4,2022.2.4,MacIntel,58.82352941,,,,,,down,0,0.636,,0.05,-0.085869565,1,0,0,0,20,20,154,1,aflopen,images/br_aflopen.png,images/cb_aflopen.png,0,,,,,,,,,,,,,,,,,,,,,,
,,,,,00017,2023-08-19_23h21.18.231,vbt_B2_day4,2022.2.4,MacIntel,58.82352941,,,,,,down,0,4.382,,0.05,-0.085869565,1,0,0,0,21,21,70,1,ijdel,images/br_ijdel.png,images/cb_ijdel.png,0,,,,,,,,,,,,,,,,,,,,,,
,,,,,00017,2023-08-19_23h21.18.231,vbt_B2_day4,2022.2.4,MacIntel,58.82352941,,,,,,down,0,0.887,,0.05,-0.085869565,1,0,0,0,22,22,96,1,slagen,images/br_slagen.png,images/cb_slagen.png,0,,,,,,,,,,,,,,,,,,,,,,
,,,,,00017,2023-08-19_23h21.18.231,vbt_B2_day4,2022.2.4,MacIntel,58.82352941,,,,,,down,0,0.058,,0.05,-0.085869565,1,0,0,0,23,23,129,1,verhaal,images/br_verhaal.png,images/cb_verhaal.png,0,,,,,,,,,,,,,,,,,,,,,,
,,,,,00017,2023-08-19_23h21.18.231,vbt_B2_day4,2022.2.4,MacIntel,58.82352941,,,,,,down,0,0.085,,0.05,-0.085869565,1,0,0,0,24,24,135,1,gedicht,images/br_gedicht.png,images/cb_gedicht.png,0,,,,,,,,,,,,,,,,,,,,,,
,,,,,00017,2023-08-19_23h21.18.231,vbt_B2_day4,2022.2.4,MacIntel,58.82352941,,,,,,down,0,5.456,,0.05,-0.079347826,1,0,0,0,25,25,184,1,aandelen,images/br_aandelen.png,images/cb_aandelen.png,1,aandelen,,,,,,,,,,,,,,,,,,,,,
,,,,,00017,2023-08-19_23h21.18.231,vbt_B2_day4,2022.2.4,MacIntel,58.82352941,,,,,,down,0,1.144,,0.05,-0.079347826,1,0,0,0,26,26,180,1,openbaar,images/br_openbaar.png,images/cb_openbaar.png,0,,,,,,,,,,,,,,,,,,,,,,
,,,,,00017,2023-08-19_23h21.18.231,vbt_B2_day4,2022.2.4,MacIntel,58.82352941,,,,,,down,0,0.256,,0.05,-0.079347826,1,0,0,0,27,27,36,1,vuur,images/br_vuur.png,images/cb_vuur.png,0,,,,,,,,,,,,,,,,,,,,,,
,,,,,00017,2023-08-19_23h21.18.231,vbt_B2_day4,2022.2.4,MacIntel,58.82352941,,,,,,down,0,0.284,,0.05,-0.079347826,1,0,0,0,28,28,21,1,mist,images/br_mist.png,images/cb_mist.png,0,,,,,,,,,,,,,,,,,,,,,,
,,,,,00017,2023-08-19_23h21.18.231,vbt_B2_day4,2022.2.4,MacIntel,58.82352941,,,,,,down,0,3.971,,0.05,-0.079347826,1,0,0,0,29,29,169,1,oprotten,images/br_oprotten.png,images/cb_oprotten.png,0,,,,,,,,,,,,,,,,,,,,,,
,,,,,00017,2023-08-19_23h21.18.231,vbt_B2_day4,2022.2.4,MacIntel,58.82352941,,,,,,down,0,0.105,,0.05,-0.079347826,1,0,0,0,30,30,81,1,dubbel,images/br_dubbel.png,images/cb_dubbel.png,0,,,,,,,,,,,,,,,,,,,,,,
,,,,,00017,2023-08-19_23h21.18.231,vbt_B2_day4,2022.2.4,MacIntel,58.82352941,,,,,,down,0,2.788,,0.05,-0.079347826,1,0,0,0,31,31,65,1,parel,images/br_parel.png,images/cb_parel.png,1,parel,,,,,,,,,,,,,,,,,,,,,
,,,,,00017,2023-08-19_23h21.18.231,vbt_B2_day4,2022.2.4,MacIntel,58.82352941,,,,,,down,0,0.287,,0.05,-0.079347826,1,0,0,0,32,32,136,1,waarbij,images/br_waarbij.png,images/cb_waarbij.png,0,,,,,,,,,,,,,,,,,,,,,,
,,,,,00017,2023-08-19_23h21.18.231,vbt_B2_day4,2022.2.4,MacIntel,58.82352941,,,,,,down,0,0.178,,0.05,-0.079347826,1,0,0,0,33,33,137,1,trekker,images/br_trekker.png,images/cb_trekker.png,0,,,,,,,,,,,,,,,,,,,,,,
,,,,,00017,2023-08-19_23h21.18.231,vbt_B2_day4,2022.2.4,MacIntel,58.82352941,,,,,,down,0,16.203,,0.07173913,-0.079347826,1,0,0,0,34,34,159,1,sufferd,images/br_sufferd.png,images/cb_sufferd.png,0,,,,,,,,,,,,,,,,,,,,,,
,,,,,00017,2023-08-19_23h21.18.231,vbt_B2_day4,2022.2.4,MacIntel,58.82352941,,,,,,down,0,0.106,,0.069565217,-0.079347826,1,0,0,0,35,35,114,1,vullen,images/br_vullen.png,images/cb_vullen.png,0,,,,,,,,,,,,,,,,,,,,,,
,,,,,00017,2023-08-19_23h21.18.231,vbt_B2_day4,2022.2.4,MacIntel,58.82352941,,,,,,down,0,0.25,,0.069565217,-0.079347826,1,0,0,0,36,36,155,1,gerucht,images/br_gerucht.png,images/cb_gerucht.png,0,,,,,,,,,,,,,,,,,,,,,,
,,,,,00017,2023-08-19_23h21.18.231,vbt_B2_day4,2022.2.4,MacIntel,58.82352941,,,,,,down,0,3.599,,0.07173913,-0.079347826,1,0,0,0,37,37,78,1,leren,images/br_leren.png,images/cb_leren.png,0,,,,,,,,,,,,,,,,,,,,,,
,,,,,00017,2023-08-19_23h21.18.231,vbt_B2_day4,2022.2.4,MacIntel,58.82352941,,,,,,down,0,0.921,,0.07173913,-0.07826087,1,0,0,0,38,38,157,1,uitlaat,images/br_uitlaat.png,images/cb_uitlaat.png,0,,,,,,,,,,,,,,,,,,,,,,
,,,,,00017,2023-08-19_23h21.18.231,vbt_B2_day4,2022.2.4,MacIntel,58.82352941,,,,,,down,0,0.219,,0.07173913,-0.07826087,1,0,0,0,39,39,59,1,kring,images/br_kring.png,images/cb_kring.png,0,,,,,,,,,,,,,,,,,,,,,,
,,,,,00017,2023-08-19_23h21.18.231,vbt_B2_day4,2022.2.4,MacIntel,58.82352941,,,,,,down,0,0.1,,0.07173913,-0.07826087,1,0,0,0,40,40,116,1,besmet,images/br_besmet.png,images/cb_besmet.png,0,,,,,,,,,,,,,,,,,,,,,,
,,,,,00017,2023-08-19_23h21.18.231,vbt_B2_day4,2022.2.4,MacIntel,58.82352941,,,,,,down,0,1.354,,0.07173913,-0.07826087,1,0,0,0,41,41,40,1,schep,images/br_schep.png,images/cb_schep.png,0,,,,,,,,,,,,,,,,,,,,,,
,,,,,00017,2023-08-19_23h21.18.231,vbt_B2_day4,2022.2.4,MacIntel,58.82352941,,,,,,down,0,0.419,,0.07173913,-0.07826087,1,0,0,0,42,42,33,1,vlek,images/br_vlek.png,images/cb_vlek.png,0,,,,,,,,,,,,,,,,,,,,,,
,,,,,00017,2023-08-19_23h21.18.231,vbt_B2_day4,2022.2.4,MacIntel,58.82352941,,,,,,down,0,2.359,,0.07173913,-0.07826087,1,0,0,0,43,43,100,1,geduld,images/br_geduld.png,images/cb_geduld.png,0,,,,,,,,,,,,,,,,,,,,,,
,,,,,00017,2023-08-19_23h21.18.231,vbt_B2_day4,2022.2.4,MacIntel,58.82352941,,,,,,down,0,1.11,,0.07173913,-0.07826087,1,0,0,0,44,44,58,1,tekst,images/br_tekst.png,images/cb_tekst.png,0,,,,,,,,,,,,,,,,,,,,,,
,,,,,00017,2023-08-19_23h21.18.231,vbt_B2_day4,2022.2.4,MacIntel,58.82352941,,,,,,down,0,0.684,,0.07173913,-0.07826087,1,0,0,0,45,45,73,1,volop,images/br_volop.png,images/cb_volop.png,0,,,,,,,,,,,,,,,,,,,,,,
,,,,,00017,2023-08-19_23h21.18.231,vbt_B2_day4,2022.2.4,MacIntel,58.82352941,,,,,,down,0,1.037,,0.07173913,-0.07826087,1,0,0,0,46,46,182,1,bijkomen,images/br_bijkomen.png,images/cb_bijkomen.png,0,,,,,,,,,,,,,,,,,,,,,,
,,,,,00017,2023-08-19_23h21.18.231,vbt_B2_day4,2022.2.4,MacIntel,58.82352941,,,,,,down,0,2.136,,0.07173913,-0.07826087,1,0,0,0,47,47,108,1,excuus,images/br_excuus.png,images/cb_excuus.png,0,,,,,,,,,,,,,,,,,,,,,,
,,,,,00017,2023-08-19_23h21.18.231,vbt_B2_day4,2022.2.4,MacIntel,58.82352941,,,,,,down,0,0.217,,0.07173913,-0.07826087,1,0,0,0,48,48,171,1,aarzelen,images/br_aarzelen.png,images/cb_aarzelen.png,0,,,,,,,,,,,,,,,,,,,,,,
,,,,,00017,2023-08-19_23h21.18.231,vbt_B2_day4,2022.2.4,MacIntel,58.82352941,,,,,,down,0,0.324,,0.07173913,-0.07826087,1,0,0,0,49,49,103,1,joggen,images/br_joggen.png,images/cb_joggen.png,0,,,,,,,,,,,,,,,,,,,,,,
,,,,,00017,2023-08-19_23h21.18.231,vbt_B2_day4,2022.2.4,MacIntel,58.82352941,,,,,,down,0,0.028,,0.07173913,-0.07826087,1,0,0,0,50,50,39,1,laag,images/br_laag.png,images/cb_laag.png,0,,,,,,,,,,,,,,,,,,,,,,
,,,,,00017,2023-08-19_23h21.18.231,vbt_B2_day4,2022.2.4,MacIntel,58.82352941,,,,,,down,0,1.436,,0.07173913,-0.07826087,1,0,0,0,51,51,23,1,zout,images/br_zout.png,images/cb_zout.png,0,,,,,,,,,,,,,,,,,,,,,,
,,,,,00017,2023-08-19_23h21.18.231,vbt_B2_day4,2022.2.4,MacIntel,58.82352941,,,,,,down,0,2.209,,0.07173913,-0.07826087,1,0,0,0,52,52,85,1,heilig,images/br_heilig.png,images/cb_heilig.png,0,,,,,,,,,,,,,,,,,,,,,,
,,,,,00017,2023-08-19_23h21.18.231,vbt_B2_day4,2022.2.4,MacIntel,58.82352941,,,,,,down,0,1.934,,0.077173913,0.048913043,1,0,0,0,53,53,30,1,uien,images/br_uien.png,images/cb_uien.png,0,,,,,,,,,,,,,,,,,,,,,,
,,,,,00017,2023-08-19_23h21.18.231,vbt_B2_day4,2022.2.4,MacIntel,58.82352941,,,,,,down,0,0.402,,0.070652174,0.030434783,1,0,0,0,54,54,188,1,strekken,images/br_strekken.png,images/cb_strekken.png,0,,,,,,,,,,,,,,,,,,,,,,
,,,,,00017,2023-08-19_23h21.18.231,vbt_B2_day4,2022.2.4,MacIntel,58.82352941,,,,,,down,0,28.298,,0.115217391,0.02173913,1,0,0,0,55,55,145,1,invloed,images/br_invloed.png,images/cb_invloed.png,1,invloed,,,,,,,,,,,,,,,,,,,,,
,,,,,00017,2023-08-19_23h21.18.231,vbt_B2_day4,2022.2.4,MacIntel,58.82352941,,,,,,down,0,24.71,,0.115217391,0.02173913,1,0,0,0,56,56,76,1,afval,images/br_afval.png,images/cb_afval.png,0,,,,,,,,,,,,,,,,,,,,,,
,,,,,00017,2023-08-19_23h21.18.231,vbt_B2_day4,2022.2.4,MacIntel,58.82352941,,,,,,down,0,8.203,,0.113043478,0.02173913,1,0,0,0,57,57,17,1,taal,images/br_taal.png,images/cb_taal.png,0,,,,,,,,,,,,,,,,,,,,,,
,,,,,00017,2023-08-19_23h21.18.231,vbt_B2_day4,2022.2.4,MacIntel,58.82352941,,,,,,down,0,1.647,,0.113043478,0.02173913,1,0,0,0,58,58,28,1,stal,images/br_stal.png,images/cb_stal.png,0,,,,,,,,,,,,,,,,,,,,,,
,,,,,00017,2023-08-19_23h21.18.231,vbt_B2_day4,2022.2.4,MacIntel,58.82352941,,,,,,down,0,0.39,,0.113043478,0.02173913,1,0,0,0,59,59,143,1,hechten,images/br_hechten.png,images/cb_hechten.png,0,,,,,,,,,,,,,,,,,,,,,,
,,,,,00017,2023-08-19_23h21.18.231,vbt_B2_day4,2022.2.4,MacIntel,58.82352941,,,,,,down,0,1.136,,0.113043478,0.02173913,1,0,0,0,60,60,3,1,mand,images/br_mand.png,images/cb_mand.png,0,,,,,,,,,,,,,,,,,,,,,,
,,,,,00017,2023-08-19_23h21.18.231,vbt_B2_day4,2022.2.4,MacIntel,58.82352941,,,,,,down,0,0.387,,0.113043478,0.02173913,1,0,0,0,61,61,118,1,vinger,images/br_vinger.png,images/cb_vinger.png,0,,,,,,,,,,,,,,,,,,,,,,
,,,,,00017,2023-08-19_23h21.18.231,vbt_B2_day4,2022.2.4,MacIntel,58.82352941,,,,,,down,0,0.233,,0.113043478,0.02173913,1,0,0,0,62,62,7,1,geld,images/br_geld.png,images/cb_geld.png,0,,,,,,,,,,,,,,,,,,,,,,
,,,,,00017,2023-08-19_23h21.18.231,vbt_B2_day4,2022.2.4,MacIntel,58.82352941,,,,,,down,0,0.532,,0.113043478,0.02173913,1,0,0,0,63,63,152,1,afnemen,images/br_afnemen.png,images/cb_afnemen.png,0,,,,,,,,,,,,,,,,,,,,,,
,,,,,00017,2023-08-19_23h21.18.231,vbt_B2_day4,2022.2.4,MacIntel,58.82352941,,,,,,down,0,0.317,,0.113043478,0.02173913,1,0,0,0,64,64,165,1,feestdag,images/br_feestdag.png,images/cb_feestdag.png,0,,,,,,,,,,,,,,,,,,,,,,
,,,,,00017,2023-08-19_23h21.18.231,vbt_B2_day4,2022.2.4,MacIntel,58.82352941,,,,,,down,0,0.336,,0.113043478,0.02173913,1,0,0,0,65,65,19,1,geit,images/br_geit.png,images/cb_geit.png,0,,,,,,,,,,,,,,,,,,,,,,
,,,,,00017,2023-08-19_23h21.18.231,vbt_B2_day4,2022.2.4,MacIntel,58.82352941,,,,,,down,0,1.9,,0.113043478,0.02173913,1,0,0,0,66,66,37,1,mijn,images/br_mijn.png,images/cb_mijn.png,0,,,,,,,,,,,,,,,,,,,,,,
,,,,,00017,2023-08-19_23h21.18.231,vbt_B2_day4,2022.2.4,MacIntel,58.82352941,,,,,,down,0,0.975,,0.113043478,0.02173913,1,0,0,0,67,67,167,1,eenhoorn,images/br_eenhoorn.png,images/cb_eenhoorn.png,0,,,,,,,,,,,,,,,,,,,,,,
,,,,,00017,2023-08-19_23h21.18.231,vbt_B2_day4,2022.2.4,MacIntel,58.82352941,,,,,,down,0,0.576,,0.113043478,0.02173913,1,0,0,0,68,68,101,1,staren,images/br_staren.png,images/cb_staren.png,0,,,,,,,,,,,,,,,,,,,,,,
,,,,,00017,2023-08-19_23h21.18.231,vbt_B2_day4,2022.2.4,MacIntel,58.82352941,,,,,,down,0,3.434,,0.113043478,0.02173913,1,0,0,0,69,69,195,1,middelen,images/br_middelen.png,images/cb_middelen.png,0,,,,,,,,,,,,,,,,,,,,,,
,,,,,00017,2023-08-19_23h21.18.231,vbt_B2_day4,2022.2.4,MacIntel,58.82352941,,,,,,down,0,1.719,,0.113043478,0.02173913,1,0,0,0,70,70,26,1,leuk,images/br_leuk.png,images/cb_leuk.png,1,leuk,,,,,,,,,,,,,,,,,,,,,
,,,,,00017,2023-08-19_23h21.18.231,vbt_B2_day4,2022.2.4,MacIntel,58.82352941,,,,,,down,0,0.67,,0.113043478,0.010869565,1,0,0,0,71,71,24,1,jurk,images/br_jurk.png,images/cb_jurk.png,1,jurk,,,,,,,,,,,,,,,,,,,,,
,,,,,00017,2023-08-19_23h21.18.231,vbt_B2_day4,2022.2.4,MacIntel,58.82352941,,,,,,down,0,6.95,,0.113043478,0.010869565,1,0,0,0,72,72,22,1,stof,images/br_stof.png,images/cb_stof.png,0,,,,,,,,,,,,,,,,,,,,,,
,,,,,00017,2023-08-19_23h21.18.231,vbt_B2_day4,2022.2.4,MacIntel,58.82352941,,,,,,down,0,1.033,,0.113043478,0.010869565,1,0,0,0,73,73,25,1,plek,images/br_plek.png,images/cb_plek.png,1,plek,,,,,,,,,,,,,,,,,,,,,
,,,,,00017,2023-08-19_23h21.18.231,vbt_B2_day4,2022.2.4,MacIntel,58.82352941,,,,,,down,0,2.587,,0.113043478,0.010869565,1,0,0,0,74,74,170,1,schatten,images/br_schatten.png,images/cb_schatten.png,0,,,,,,,,,,,,,,,,,,,,,,
,,,,,00017,2023-08-19_23h21.18.231,vbt_B2_day4,2022.2.4,MacIntel,58.82352941,,,,,,down,0,0.842,,0.113043478,0.011956522,1,0,0,0,75,75,161,1,attentie,images/br_attentie.png,images/cb_attentie.png,0,,,,,,,,,,,,,,,,,,,,,,
,,,,,00017,2023-08-19_23h21.18.231,vbt_B2_day4,2022.2.4,MacIntel,58.82352941,,,,,,down,0,4.884,,0.113043478,0.011956522,1,0,0,0,76,76,144,1,eetlust,images/br_eetlust.png,images/cb_eetlust.png,1,eetlust,,,,,,,,,,,,,,,,,,,,,
,,,,,00017,2023-08-19_23h21.18.231,vbt_B2_day4,2022.2.4,MacIntel,58.82352941,,,,,,down,0,5.044,,0.066304348,0.015217391,1,0,0,0,77,77,187,1,opkijken,images/br_opkijken.png,images/cb_opkijken.png,1,opkijken,,,,,,,,,,,,,,,,,,,,,
,,,,,00017,2023-08-19_23h21.18.231,vbt_B2_day4,2022.2.4,MacIntel,58.82352941,,,,,,down,0,0.057,,0.066304348,0.016304348,1,0,0,0,78,78,0,1,slak,images/br_slak.png,images/cb_slak.png,0,,,,,,,,,,,,,,,,,,,,,,
,,,,,00017,2023-08-19_23h21.18.231,vbt_B2_day4,2022.2.4,MacIntel,58.82352941,,,,,,down,0,1.051,,0.066304348,0.016304348,1,0,0,0,79,79,191,1,opheffen,images/br_opheffen.png,images/cb_opheffen.png,0,,,,,,,,,,,,,,,,,,,,,,
,,,,,00017,2023-08-19_23h21.18.231,vbt_B2_day4,2022.2.4,MacIntel,58.82352941,,,,,,down,0,0.117,,0.066304348,0.016304348,1,0,0,0,80,80,128,1,prikken,images/br_prikken.png,images/cb_prikken.png,0,,,,,,,,,,,,,,,,,,,,,,
,,,,,00017,2023-08-19_23h21.18.231,vbt_B2_day4,2022.2.4,MacIntel,58.82352941,,,,,,down,0,0.684,,0.066304348,0.016304348,1,0,0,0,81,81,123,1,hiervan,images/br_hiervan.png,images/cb_hiervan.png,0,,,,,,,,,,,,,,,,,,,,,,
,,,,,00017,2023-08-19_23h21.18.231,vbt_B2_day4,2022.2.4,MacIntel,58.82352941,,,,,,down,0,0.861,,0.066304348,0.016304348,1,0,0,0,82,82,158,1,innemen,images/br_innemen.png,images/cb_innemen.png,0,,,,,,,,,,,,,,,,,,,,,,
,,,,,00017,2023-08-19_23h21.18.231,vbt_B2_day4,2022.2.4,MacIntel,58.82352941,,,,,,down,0,0.225,,0.066304348,0.016304348,1,0,0,0,83,83,46,1,jagen,images/br_jagen.png,images/cb_jagen.png,0,,,,,,,,,,,,,,,,,,,,,,
,,,,,00017,2023-08-19_23h21.18.231,vbt_B2_day4,2022.2.4,MacIntel,58.82352941,,,,,,down,0,3.52,,0.066304348,0.017391304,1,0,0,0,84,84,104,1,zweven,images/br_zweven.png,images/cb_zweven.png,1,zweven,,,,,,,,,,,,,,,,,,,,,
,,,,,00017,2023-08-19_23h21.18.231,vbt_B2_day4,2022.2.4,MacIntel,58.82352941,,,,,,down,0,0.624,,0.066304348,0.017391304,1,0,0,0,85,85,133,1,seizoen,images/br_seizoen.png,images/cb_seizoen.png,0,,,,,,,,,,,,,,,,,,,,,,
,,,,,00017,2023-08-19_23h21.18.231,vbt_B2_day4,2022.2.4,MacIntel,58.82352941,,,,,,down,0,0.189,,0.069565217,0.017391304,1,0,0,0,86,86,11,1,mode,images/br_mode.png,images/cb_mode.png,0,,,,,,,,,,,,,,,,,,,,,,
,,,,,00017,2023-08-19_23h21.18.231,vbt_B2_day4,2022.2.4,MacIntel,58.82352941,,,,,,down,0,0.051,,0.069565217,0.017391304,1,0,0,0,87,87,178,1,huisdier,images/br_huisdier.png,images/cb_huisdier.png,0,,,,,,,,,,,,,,,,,,,,,,
,,,,,00017,2023-08-19_23h21.18.231,vbt_B2_day4,2022.2.4,MacIntel,58.82352941,,,,,,down,0,0.117,,0.069565217,0.017391304,1,0,0,0,88,88,176,1,techniek,images/br_techniek.png,images/cb_techniek.png,0,,,,,,,,,,,,,,,,,,,,,,
,,,,,00017,2023-08-19_23h21.18.231,vbt_B2_day4,2022.2.4,MacIntel,58.82352941,,,,,,down,0,1.203,,0.069565217,0.017391304,1,0,0,0,89,89,196,1,nakijken,images/br_nakijken.png,images/cb_nakijken.png,0,,,,,,,,,,,,,,,,,,,,,,
,,,,,00017,2023-08-19_23h21.18.231,vbt_B2_day4,2022.2.4,MacIntel,58.82352941,,,,,,down,0,0.39,,0.156521739,-0.079347826,1,0,0,0,90,90,197,1,spanning,images/br_spanning.png,images/cb_spanning.png,0,,,,,,,,,,,,,,,,,,,,,,
,,,,,00017,2023-08-19_23h21.18.231,vbt_B2_day4,2022.2.4,MacIntel,58.82352941,,,,,,down,0,0.337,,0.164130435,-0.086956522,1,0,0,0,91,91,5,1,blad,images/br_blad.png,images/cb_blad.png,0,,,,,,,,,,,,,,,,,,,,,,
,,,,,00017,2023-08-19_23h21.18.231,vbt_B2_day4,2022.2.4,MacIntel,58.82352941,,,,,,down,0,4.583,,0.152173913,-0.113043478,1,0,0,0,92,92,140,1,blijven,images/br_blijven.png,images/cb_blijven.png,0,,,,,,,,,,,,,,,,,,,,,,
,,,,,00017,2023-08-19_23h21.18.231,vbt_B2_day4,2022.2.4,MacIntel,58.82352941,,,,,,down,0,0.27,,0.135869565,-0.132608696,1,0,0,0,93,93,10,1,leek,images/br_leek.png,images/cb_leek.png,0,,,,,,,,,,,,,,,,,,,,,,
,,,,,00017,2023-08-19_23h21.18.231,vbt_B2_day4,2022.2.4,MacIntel,58.82352941,,,,,,down,0,0.051,,0.14673913,-0.117391304,1,0,0,0,94,94,83,1,mening,images/br_mening.png,images/cb_mening.png,0,,,,,,,,,,,,,,,,,,,,,,
,,,,,00017,2023-08-19_23h21.18.231,vbt_B2_day4,2022.2.4,MacIntel,58.82352941,,,,,,down,0,2.503,,0.15326087,-0.173913043,1,0,0,0,95,95,75,1,snoep,images/br_snoep.png,images/cb_snoep.png,0,,,,,,,,,,,,,,,,,,,,,,
,,,,,00017,2023-08-19_23h21.18.231,vbt_B2_day4,2022.2.4,MacIntel,58.82352941,,,,,,down,0,0.956,,0.147826087,-0.177173913,1,0,0,0,96,96,71,1,bever,images/br_bever.png,images/cb_bever.png,0,,,,,,,,,,,,,,,,,,,,,,
,,,,,00017,2023-08-19_23h21.18.231,vbt_B2_day4,2022.2.4,MacIntel,58.82352941,,,,,,down,0,1.237,,0.144565217,-0.202173913,1,0,0,0,97,97,49,1,laken,images/br_laken.png,images/cb_laken.png,0,,,,,,,,,,,,,,,,,,,,,,
,,,,,00017,2023-08-19_23h21.18.231,vbt_B2_day4,2022.2.4,MacIntel,58.82352941,,,,,,down,0,0.203,,0.133695652,-0.194565217,1,0,0,0,98,98,88,1,boeien,images/br_boeien.png,images/cb_boeien.png,0,,,,,,,,,,,,,,,,,,,,,,
,,,,,00017,2023-08-19_23h21.18.231,vbt_B2_day4,2022.2.4,MacIntel,58.82352941,,,,,,down,0,0.155,,0.133695652,-0.208695652,1,0,0,0,99,99,29,1,baas,images/br_baas.png,images/cb_baas.png,0,,,,,,,,,,,,,,,,,,,,,,
,,,,,00017,2023-08-19_23h21.18.231,vbt_B2_day4,2022.2.4,MacIntel,58.82352941,,,,,,down,0,6.516,,0.133695652,-0.195652174,1,0,0,0,100,100,139,1,stiekem,images/br_stiekem.png,images/cb_stiekem.png,0,,,,,,,,,,,,,,,,,,,,,,
,,,,,00017,2023-08-19_23h21.18.231,vbt_B2_day4,2022.2.4,MacIntel,58.82352941,,,,,,down,0,13.865,,0.133695652,-0.195652174,1,0,0,0,101,101,111,1,ticket,images/br_ticket.png,images/cb_ticket.png,0,,,,,,,,,,,,,,,,,,,,,,
,,,,,00017,2023-08-19_23h21.18.231,vbt_B2_day4,2022.2.4,MacIntel,58.82352941,,,,,,down,0,1.219,,0.142391304,-0.192391304,1,0,0,0,102,102,174,1,stemming,images/br_stemming.png,images/cb_stemming.png,0,,,,,,,,,,,,,,,,,,,,,,
,,,,,00017,2023-08-19_23h21.18.231,vbt_B2_day4,2022.2.4,MacIntel,58.82352941,,,,,,down,0,0.41,,0.142391304,-0.192391304,1,0,0,0,103,103,150,1,gegeven,images/br_gegeven.png,images/cb_gegeven.png,0,,,,,,,,,,,,,,,,,,,,,,
,,,,,00017,2023-08-19_23h21.18.231,vbt_B2_day4,2022.2.4,MacIntel,58.82352941,,,,,,down,0,3.018,,0.142391304,-0.192391304,1,0,0,0,104,104,107,1,maling,images/br_maling.png,images/cb_maling.png,1,maling,,,,,,,,,,,,,,,,,,,,,
,,,,,00017,2023-08-19_23h21.18.231,vbt_B2_day4,2022.2.4,MacIntel,58.82352941,,,,,,down,0,0.4,,0.142391304,-0.195652174,1,0,0,0,105,105,63,1,flirt,images/br_flirt.png,images/cb_flirt.png,0,,,,,,,,,,,,,,,,,,,,,,
,,,,,00017,2023-08-19_23h21.18.231,vbt_B2_day4,2022.2.4,MacIntel,58.82352941,,,,,,down,0,3.096,,0.157608696,-0.195652174,1,0,0,0,106,106,179,1,woestijn,images/br_woestijn.png,images/cb_woestijn.png,0,,,,,,,,,,,,,,,,,,,,,,
,,,,,00017,2023-08-19_23h21.18.231,vbt_B2_day4,2022.2.4,MacIntel,58.82352941,,,,,,down,0,5.304,,0.157608696,-0.195652174,1,0,0,0,107,107,181,1,toegeven,images/br_toegeven.png,images/cb_toegeven.png,0,,,,,,,,,,,,,,,,,,,,,,
,,,,,00017,2023-08-19_23h21.18.231,vbt_B2_day4,2022.2.4,MacIntel,58.82352941,,,,,,down,0,0.84,,0.157608696,-0.195652174,1,0,0,0,108,108,138,1,akkoord,images/br_akkoord.png,images/cb_akkoord.png,0,,,,,,,,,,,,,,,,,,,,,,
,,,,,00017,2023-08-19_23h21.18.231,vbt_B2_day4,2022.2.4,MacIntel,58.82352941,,,,,,down,0,0.075,,0.157608696,-0.195652174,1,0,0,0,109,109,13,1,kaal,images/br_kaal.png,images/cb_kaal.png,0,,,,,,,,,,,,,,,,,,,,,,
,,,,,00017,2023-08-19_23h21.18.231,vbt_B2_day4,2022.2.4,MacIntel,58.82352941,,,,,,down,0,0.491,,0.157608696,-0.195652174,1,0,0,0,110,110,124,1,bloeien,images/br_bloeien.png,images/cb_bloeien.png,0,,,,,,,,,,,,,,,,,,,,,,
,,,,,00017,2023-08-19_23h21.18.231,vbt_B2_day4,2022.2.4,MacIntel,58.82352941,,,,,,down,0,2.307,,0.157608696,-0.195652174,1,0,0,0,111,111,1,1,zaal,images/br_zaal.png,images/cb_zaal.png,0,,,,,,,,,,,,,,,,,,,,,,
,,,,,00017,2023-08-19_23h21.18.231,vbt_B2_day4,2022.2.4,MacIntel,58.82352941,,,,,,down,0,0.213,,0.157608696,-0.195652174,1,0,0,0,112,112,18,1,blik,images/br_blik.png,images/cb_blik.png,0,,,,,,,,,,,,,,,,,,,,,,
,,,,,00017,2023-08-19_23h21.18.231,vbt_B2_day4,2022.2.4,MacIntel,58.82352941,,,,,,down,0,4.342,,0.157608696,-0.195652174,1,0,0,0,113,113,62,1,knaap,images/br_knaap.png,images/cb_knaap.png,0,,,,,,,,,,,,,,,,,,,,,,
,,,,,00017,2023-08-19_23h21.18.231,vbt_B2_day4,2022.2.4,MacIntel,58.82352941,,,,,,down,0,0.435,,0.158695652,-0.195652174,1,0,0,0,114,114,12,1,kust,images/br_kust.png,images/cb_kust.png,0,,,,,,,,,,,,,,,,,,,,,,
,,,,,00017,2023-08-19_23h21.18.231,vbt_B2_day4,2022.2.4,MacIntel,58.82352941,,,,,,down,0,0.37,,0.158695652,-0.195652174,1,0,0,0,115,115,89,1,slapen,images/br_slapen.png,images/cb_slapen.png,0,,,,,,,,,,,,,,,,,,,,,,
,,,,,00017,2023-08-19_23h21.18.231,vbt_B2_day4,2022.2.4,MacIntel,58.82352941,,,,,,down,0,0.477,,0.158695652,-0.197826087,1,0,0,0,116,116,74,1,graaf,images/br_graaf.png,images/cb_graaf.png,0,,,,,,,,,,,,,,,,,,,,,,
,,,,,00017,2023-08-19_23h21.18.231,vbt_B2_day4,2022.2.4,MacIntel,58.82352941,,,,,,down,0,0.85,,0.158695652,-0.195652174,1,0,0,0,117,117,95,1,vreten,images/br_vreten.png,images/cb_vreten.png,0,,,,,,,,,,,,,,,,,,,,,,
,,,,,00017,2023-08-19_23h21.18.231,vbt_B2_day4,2022.2.4,MacIntel,58.82352941,,,,,,down,0,0.868,,0.163043478,-0.194565217,1,0,0,0,118,118,175,1,heengaan,images/br_heengaan.png,images/cb_heengaan.png,0,,,,,,,,,,,,,,,,,,,,,,
,,,,,00017,2023-08-19_23h21.18.231,vbt_B2_day4,2022.2.4,MacIntel,58.82352941,,,,,,down,0,2.91,,0.163043478,-0.193478261,1,0,0,0,119,119,164,1,anarchie,images/br_anarchie.png,images/cb_anarchie.png,0,,,,,,,,,,,,,,,,,,,,,,
,,,,,00017,2023-08-19_23h21.18.231,vbt_B2_day4,2022.2.4,MacIntel,58.82352941,,,,,,down,0,3.667,,0.167391304,-0.193478261,1,0,0,0,120,120,15,1,soda,images/br_soda.png,images/cb_soda.png,0,,,,,,,,,,,,,,,,,,,,,,
,,,,,00017,2023-08-19_23h21.18.231,vbt_B2_day4,2022.2.4,MacIntel,58.82352941,,,,,,down,0,0.616,,0.167391304,-0.193478261,1,0,0,0,121,121,77,1,woede,images/br_woede.png,images/cb_woede.png,0,,,,,,,,,,,,,,,,,,,,,,
,,,,,00017,2023-08-19_23h21.18.231,vbt_B2_day4,2022.2.4,MacIntel,58.82352941,,,,,,down,0,10.804,,0.167391304,-0.193478261,1,0,0,0,122,122,112,1,lukken,images/br_lukken.png,images/cb_lukken.png,0,,,,,,,,,,,,,,,,,,,,,,
,,,,,00017,2023-08-19_23h21.18.231,vbt_B2_day4,2022.2.4,MacIntel,58.82352941,,,,,,down,0,0.591,,0.167391304,-0.193478261,1,0,0,0,123,123,162,1,uitdelen,images/br_uitdelen.png,images/cb_uitdelen.png,0,,,,,,,,,,,,,,,,,,,,,,
,,,,,00017,2023-08-19_23h21.18.231,vbt_B2_day4,2022.2.4,MacIntel,58.82352941,,,,,,down,0,1.15,,0.167391304,-0.193478261,1,0,0,0,124,124,2,1,jaar,images/br_jaar.png,images/cb_jaar.png,0,,,,,,,,,,,,,,,,,,,,,,
,,,,,00017,2023-08-19_23h21.18.231,vbt_B2_day4,2022.2.4,MacIntel,58.82352941,,,,,,down,0,7.593,,0.167391304,-0.193478261,1,0,0,0,125,125,27,1,dans,images/br_dans.png,images/cb_dans.png,1,dans,,,,,,,,,,,,,,,,,,,,,
,,,,,00017,2023-08-19_23h21.18.231,vbt_B2_day4,2022.2.4,MacIntel,58.82352941,,,,,,down,0,0.602,,0.167391304,-0.193478261,1,0,0,0,126,126,151,1,aanzoek,images/br_aanzoek.png,images/cb_aanzoek.png,0,,,,,,,,,,,,,,,,,,,,,,
,,,,,00017,2023-08-19_23h21.18.231,vbt_B2_day4,2022.2.4,MacIntel,58.82352941,,,,,,down,0,0.302,,0.167391304,-0.193478261,1,0,0,0,127,127,53,1,baron,images/br_baron.png,images/cb_baron.png,0,,,,,,,,,,,,,,,,,,,,,,
,,,,,00017,2023-08-19_23h21.18.231,vbt_B2_day4,2022.2.4,MacIntel,58.82352941,,,,,,down,0,0.789,,0.167391304,-0.193478261,1,0,0,0,128,128,47,1,kabel,images/br_kabel.png,images/cb_kabel.png,0,,,,,,,,,,,,,,,,,,,,,,
,,,,,00017,2023-08-19_23h21.18.231,vbt_B2_day4,2022.2.4,MacIntel,58.82352941,,,,,,down,0,0.449,,0.167391304,-0.193478261,1,0,0,0,129,129,177,1,maaltijd,images/br_maaltijd.png,images/cb_maaltijd.png,0,,,,,,,,,,,,,,,,,,,,,,
,,,,,00017,2023-08-19_23h21.18.231,vbt_B2_day4,2022.2.4,MacIntel,58.82352941,,,,,,down,0,1.084,,0.167391304,-0.193478261,1,0,0,0,130,130,173,1,apparaat,images/br_apparaat.png,images/cb_apparaat.png,0,,,,,,,,,,,,,,,,,,,,,,
,,,,,00017,2023-08-19_23h21.18.231,vbt_B2_day4,2022.2.4,MacIntel,58.82352941,,,,,,down,0,0.691,,0.167391304,-0.193478261,1,0,0,0,131,131,97,1,loyaal,images/br_loyaal.png,images/cb_loyaal.png,0,,,,,,,,,,,,,,,,,,,,,,
,,,,,00017,2023-08-19_23h21.18.231,vbt_B2_day4,2022.2.4,MacIntel,58.82352941,,,,,,down,0,2.665,,0.167391304,-0.193478261,1,0,0,0,132,132,109,1,totaal,images/br_totaal.png,images/cb_totaal.png,0,,,,,,,,,,,,,,,,,,,,,,
,,,,,00017,2023-08-19_23h21.18.231,vbt_B2_day4,2022.2.4,MacIntel,58.82352941,,,,,,down,0,23.776,,0.167391304,-0.193478261,1,0,0,0,133,133,119,1,liefje,images/br_liefje.png,images/cb_liefje.png,0,,,,,,,,,,,,,,,,,,,,,,
,,,,,00017,2023-08-19_23h21.18.231,vbt_B2_day4,2022.2.4,MacIntel,58.82352941,,,,,,down,0,4.942,,0.167391304,-0.193478261,1,0,0,0,134,134,9,1,hier,images/br_hier.png,images/cb_hier.png,0,,,,,,,,,,,,,,,,,,,,,,
,,,,,00017,2023-08-19_23h21.18.231,vbt_B2_day4,2022.2.4,MacIntel,58.82352941,,,,,,down,0,2.315,,0.167391304,-0.193478261,1,0,0,0,135,135,102,1,legaal,images/br_legaal.png,images/cb_legaal.png,0,,,,,,,,,,,,,,,,,,,,,,
,,,,,00017,2023-08-19_23h21.18.231,vbt_B2_day4,2022.2.4,MacIntel,58.82352941,,,,,,down,0,0.686,,0.167391304,-0.193478261,1,0,0,0,136,136,99,1,koffie,images/br_koffie.png,images/cb_koffie.png,0,,,,,,,,,,,,,,,,,,,,,,
,,,,,00017,2023-08-19_23h21.18.231,vbt_B2_day4,2022.2.4,MacIntel,58.82352941,,,,,,down,0,0.368,,0.169565217,-0.193478261,1,0,0,0,137,137,120,1,klimmen,images/br_klimmen.png,images/cb_klimmen.png,0,,,,,,,,,,,,,,,,,,,,,,
,,,,,00017,2023-08-19_23h21.18.231,vbt_B2_day4,2022.2.4,MacIntel,58.82352941,,,,,,down,0,0.472,,0.170652174,-0.197826087,1,0,0,0,138,138,168,1,bisschop,images/br_bisschop.png,images/cb_bisschop.png,0,,,,,,,,,,,,,,,,,,,,,,
,,,,,00017,2023-08-19_23h21.18.231,vbt_B2_day4,2022.2.4,MacIntel,58.82352941,,,,,,down,0,2.184,,0.168478261,-0.197826087,1,0,0,0,139,139,42,1,bleek,images/br_bleek.png,images/cb_bleek.png,0,,,,,,,,,,,,,,,,,,,,,,
,,,,,00017,2023-08-19_23h21.18.231,vbt_B2_day4,2022.2.4,MacIntel,58.82352941,,,,,,down,0,1.16,,0.168478261,-0.197826087,1,0,0,0,140,140,198,1,bedoelen,images/br_bedoelen.png,images/cb_bedoelen.png,0,,,,,,,,,,,,,,,,,,,,,,
,,,,,00017,2023-08-19_23h21.18.231,vbt_B2_day4,2022.2.4,MacIntel,58.82352941,,,,,,down,0,4.683,,0.168478261,-0.197826087,1,0,0,0,141,141,149,1,redding,images/br_redding.png,images/cb_redding.png,0,,,,,,,,,,,,,,,,,,,,,,
,,,,,00017,2023-08-19_23h21.18.231,vbt_B2_day4,2022.2.4,MacIntel,58.82352941,,,,,,down,0,20.759,,0.168478261,-0.197826087,1,0,0,0,142,142,185,1,mijnheer,images/br_mijnheer.png,images/cb_mijnheer.png,1,mijnheer,,,,,,,,,,,,,,,,,,,,,
,,,,,00017,2023-08-19_23h21.18.231,vbt_B2_day4,2022.2.4,MacIntel,58.82352941,,,,,,down,0,0.233,,0.168478261,-0.197826087,1,0,0,0,143,143,56,1,traag,images/br_traag.png,images/cb_traag.png,0,,,,,,,,,,,,,,,,,,,,,,
,,,,,00017,2023-08-19_23h21.18.231,vbt_B2_day4,2022.2.4,MacIntel,58.82352941,,,,,,down,0,0.417,,0.159782609,-0.197826087,1,0,0,0,144,144,142,1,snuiven,images/br_snuiven.png,images/cb_snuiven.png,0,,,,,,,,,,,,,,,,,,,,,,
,,,,,00017,2023-08-19_23h21.18.231,vbt_B2_day4,2022.2.4,MacIntel,58.82352941,,,,,,down,0,0.038,,0.159782609,-0.197826087,1,0,0,0,145,145,86,1,woning,images/br_woning.png,images/cb_woning.png,0,,,,,,,,,,,,,,,,,,,,,,
,,,,,00017,2023-08-19_23h21.18.231,vbt_B2_day4,2022.2.4,MacIntel,58.82352941,,,,,,down,0,5.837,,0.159782609,-0.197826087,1,0,0,0,146,146,48,1,steel,images/br_steel.png,images/cb_steel.png,0,,,,,,,,,,,,,,,,,,,,,,
,,,,,00017,2023-08-19_23h21.18.231,vbt_B2_day4,2022.2.4,MacIntel,58.82352941,,,,,,down,0,2.516,,0.159782609,-0.197826087,1,0,0,0,147,147,57,1,steek,images/br_steek.png,images/cb_steek.png,0,,,,,,,,,,,,,,,,,,,,,,
,,,,,00017,2023-08-19_23h21.18.231,vbt_B2_day4,2022.2.4,MacIntel,58.82352941,,,,,,down,0,1.87,,0.159782609,-0.197826087,1,0,0,0,148,148,121,1,twijfel,images/br_twijfel.png,images/cb_twijfel.png,0,,,,,,,,,,,,,,,,,,,,,,
,,,,,00017,2023-08-19_23h21.18.231,vbt_B2_day4,2022.2.4,MacIntel,58.82352941,,,,,,down,0,0.433,,0.159782609,-0.197826087,1,0,0,0,149,149,113,1,koppen,images/br_koppen.png,images/cb_koppen.png,0,,,,,,,,,,,,,,,,,,,,,,
,,,,,00017,2023-08-19_23h21.18.231,vbt_B2_day4,2022.2.4,MacIntel,58.82352941,,,,,,down,0,0.443,,0.159782609,-0.197826087,1,0,0,0,150,150,72,1,strak,images/br_strak.png,images/cb_strak.png,0,,,,,,,,,,,,,,,,,,,,,,
,,,,,00017,2023-08-19_23h21.18.231,vbt_B2_day4,2022.2.4,MacIntel,58.82352941,,,,,,down,0,0.385,,0.159782609,-0.197826087,1,0,0,0,151,151,66,1,lever,images/br_lever.png,images/cb_lever.png,1,lever,,,,,,,,,,,,,,,,,,,,,
,,,,,00017,2023-08-19_23h21.18.231,vbt_B2_day4,2022.2.4,MacIntel,58.82352941,,,,,,down,0,1.021,,0.159782609,-0.197826087,1,0,0,0,152,152,194,1,driemaal,images/br_driemaal.png,images/cb_driemaal.png,0,,,,,,,,,,,,,,,,,,,,,,
,,,,,00017,2023-08-19_23h21.18.231,vbt_B2_day4,2022.2.4,MacIntel,58.82352941,,,,,,down,0,0.836,,0.133695652,-0.348913043,1,0,0,0,153,153,67,1,zwart,images/br_zwart.png,images/cb_zwart.png,1,zwart,,,,,,,,,,,,,,,,,,,,,
,,,,,00017,2023-08-19_23h21.18.231,vbt_B2_day4,2022.2.4,MacIntel,58.82352941,,,,,,down,0,2.134,,0.133695652,-0.348913043,1,0,0,0,154,154,163,1,schuilen,images/br_schuilen.png,images/cb_schuilen.png,0,,,,,,,,,,,,,,,,,,,,,,
,,,,,00017,2023-08-19_23h21.18.231,vbt_B2_day4,2022.2.4,MacIntel,58.82352941,,,,,,down,0,0.367,,0.133695652,-0.348913043,1,0,0,0,155,155,92,1,geheim,images/br_geheim.png,images/cb_geheim.png,0,,,,,,,,,,,,,,,,,,,,,,
,,,,,00017,2023-08-19_23h21.18.231,vbt_B2_day4,2022.2.4,MacIntel,58.82352941,,,,,,down,0,0.953,,0.135869565,-0.348913043,1,0,0,0,156,156,91,1,gezond,images/br_gezond.png,images/cb_gezond.png,0,,,,,,,,,,,,,,,,,,,,,,
,,,,,00017,2023-08-19_23h21.18.231,vbt_B2_day4,2022.2.4,MacIntel,58.82352941,,,,,,down,0,2.936,,0.135869565,-0.348913043,1,0,0,0,157,157,186,1,voorraad,images/br_voorraad.png,images/cb_voorraad.png,1,voorraad,,,,,,,,,,,,,,,,,,,,,
,,,,,00017,2023-08-19_23h21.18.231,vbt_B2_day4,2022.2.4,MacIntel,58.82352941,,,,,,down,0,1.36,,0.135869565,-0.348913043,1,0,0,0,158,158,35,1,lust,images/br_lust.png,images/cb_lust.png,0,,,,,,,,,,,,,,,,,,,,,,
,,,,,00017,2023-08-19_23h21.18.231,vbt_B2_day4,2022.2.4,MacIntel,58.82352941,,,,,,down,0,0.215,,0.135869565,-0.348913043,1,0,0,0,159,159,127,1,doodmoe,images/br_doodmoe.png,images/cb_doodmoe.png,0,,,,,,,,,,,,,,,,,,,,,,
,,,,,00017,2023-08-19_23h21.18.231,vbt_B2_day4,2022.2.4,MacIntel,58.82352941,,,,,,down,0,0.291,,0.135869565,-0.348913043,1,0,0,0,160,160,84,1,lokken,images/br_lokken.png,images/cb_lokken.png,0,,,,,,,,,,,,,,,,,,,,,,
,,,,,00017,2023-08-19_23h21.18.231,vbt_B2_day4,2022.2.4,MacIntel,58.82352941,,,,,,down,0,0.618,,0.135869565,-0.348913043,1,0,0,0,161,161,31,1,poes,images/br_poes.png,images/cb_poes.png,0,,,,,,,,,,,,,,,,,,,,,,
,,,,,00017,2023-08-19_23h21.18.231,vbt_B2_day4,2022.2.4,MacIntel,58.82352941,,,,,,down,0,2.755,,0.135869565,-0.348913043,1,0,0,0,162,162,117,1,kennis,images/br_kennis.png,images/cb_kennis.png,0,,,,,,,,,,,,,,,,,,,,,,
,,,,,00017,2023-08-19_23h21.18.231,vbt_B2_day4,2022.2.4,MacIntel,58.82352941,,,,,,down,0,3.667,,0.135869565,-0.348913043,1,0,0,0,163,163,153,1,vervoer,images/br_vervoer.png,images/cb_vervoer.png,0,,,,,,,,,,,,,,,,,,,,,,
,,,,,00017,2023-08-19_23h21.18.231,vbt_B2_day4,2022.2.4,MacIntel,58.82352941,,,,,,down,0,0.188,,0.135869565,-0.348913043,1,0,0,0,164,164,45,1,piste,images/br_piste.png,images/cb_piste.png,0,,,,,,,,,,,,,,,,,,,,,,
,,,,,00017,2023-08-19_23h21.18.231,vbt_B2_day4,2022.2.4,MacIntel,58.82352941,,,,,,down,0,0.957,,0.135869565,-0.348913043,1,0,0,0,165,165,98,1,kreeft,images/br_kreeft.png,images/cb_kreeft.png,0,,,,,,,,,,,,,,,,,,,,,,
,,,,,00017,2023-08-19_23h21.18.231,vbt_B2_day4,2022.2.4,MacIntel,58.82352941,,,,,,down,0,3.637,,0.135869565,-0.348913043,1,0,0,0,166,166,172,1,weigeren,images/br_weigeren.png,images/cb_weigeren.png,0,,,,,,,,,,,,,,,,,,,,,,
,,,,,00017,2023-08-19_23h21.18.231,vbt_B2_day4,2022.2.4,MacIntel,58.82352941,,,,,,down,0,0.316,,0.135869565,-0.348913043,1,0,0,0,167,167,93,1,waarop,images/br_waarop.png,images/cb_waarop.png,0,,,,,,,,,,,,,,,,,,,,,,
,,,,,00017,2023-08-19_23h21.18.231,vbt_B2_day4,2022.2.4,MacIntel,58.82352941,,,,,,down,0,0.207,,0.135869565,-0.348913043,1,0,0,0,168,168,192,1,schaamte,images/br_schaamte.png,images/cb_schaamte.png,0,,,,,,,,,,,,,,,,,,,,,,
,,,,,00017,2023-08-19_23h21.18.231,vbt_B2_day4,2022.2.4,MacIntel,58.82352941,,,,,,down,0,0.389,,0.135869565,-0.348913043,1,0,0,0,169,169,183,1,getuigen,images/br_getuigen.png,images/cb_getuigen.png,0,,,,,,,,,,,,,,,,,,,,,,
,,,,,00017,2023-08-19_23h21.18.231,vbt_B2_day4,2022.2.4,MacIntel,58.82352941,,,,,,down,0,2.349,,0.135869565,-0.348913043,1,0,0,0,170,170,105,1,wijlen,images/br_wijlen.png,images/cb_wijlen.png,1,wijlen,,,,,,,,,,,,,,,,,,,,,
,,,,,00017,2023-08-19_23h21.18.231,vbt_B2_day4,2022.2.4,MacIntel,58.82352941,,,,,,down,0,0.303,,0.135869565,-0.348913043,1,0,0,0,171,171,69,1,waken,images/br_waken.png,images/cb_waken.png,0,,,,,,,,,,,,,,,,,,,,,,
,,,,,00017,2023-08-19_23h21.18.231,vbt_B2_day4,2022.2.4,MacIntel,58.82352941,,,,,,down,0,1.482,,0.135869565,-0.348913043,1,0,0,0,172,172,41,1,maken,images/br_maken.png,images/cb_maken.png,0,,,,,,,,,,,,,,,,,,,,,,
,,,,,00017,2023-08-19_23h21.18.231,vbt_B2_day4,2022.2.4,MacIntel,58.82352941,,,,,,down,0,0.453,,0.135869565,-0.348913043,1,0,0,0,173,173,94,1,oceaan,images/br_oceaan.png,images/cb_oceaan.png,0,,,,,,,,,,,,,,,,,,,,,,
,,,,,00017,2023-08-19_23h21.18.231,vbt_B2_day4,2022.2.4,MacIntel,58.82352941,,,,,,down,0,0.704,,0.135869565,-0.348913043,1,0,0,0,174,174,131,1,opzicht,images/br_opzicht.png,images/cb_opzicht.png,0,,,,,,,,,,,,,,,,,,,,,,
,,,,,00017,2023-08-19_23h21.18.231,vbt_B2_day4,2022.2.4,MacIntel,58.82352941,,,,,,down,0,0.865,,0.136956522,-0.348913043,1,0,0,0,175,175,38,1,baai,images/br_baai.png,images/cb_baai.png,0,,,,,,,,,,,,,,,,,,,,,,
,,,,,00017,2023-08-19_23h21.18.231,vbt_B2_day4,2022.2.4,MacIntel,58.82352941,,,,,,down,0,0.481,,0.136956522,-0.348913043,1,0,0,0,176,176,193,1,weeshuis,images/br_weeshuis.png,images/cb_weeshuis.png,0,,,,,,,,,,,,,,,,,,,,,,
,,,,,00017,2023-08-19_23h21.18.231,vbt_B2_day4,2022.2.4,MacIntel,58.82352941,,,,,,down,0,0.405,,0.136956522,-0.348913043,1,0,0,0,177,177,51,1,samen,images/br_samen.png,images/cb_samen.png,0,,,,,,,,,,,,,,,,,,,,,,
,,,,,00017,2023-08-19_23h21.18.231,vbt_B2_day4,2022.2.4,MacIntel,58.82352941,,,,,,down,0,1.315,,0.136956522,-0.348913043,1,0,0,0,178,178,115,1,kleren,images/br_kleren.png,images/cb_kleren.png,0,,,,,,,,,,,,,,,,,,,,,,
,,,,,00017,2023-08-19_23h21.18.231,vbt_B2_day4,2022.2.4,MacIntel,58.82352941,,,,,,down,0,2.103,,0.136956522,-0.348913043,1,0,0,0,179,179,55,1,praat,images/br_praat.png,images/cb_praat.png,0,,,,,,,,,,,,,,,,,,,,,,
,,,,,00017,2023-08-19_23h21.18.231,vbt_B2_day4,2022.2.4,MacIntel,58.82352941,,,,,,down,0,0.601,,0.136956522,-0.348913043,1,0,0,0,180,180,8,1,knie,images/br_knie.png,images/cb_knie.png,0,,,,,,,,,,,,,,,,,,,,,,
,,,,,00017,2023-08-19_23h21.18.231,vbt_B2_day4,2022.2.4,MacIntel,58.82352941,,,,,,down,0,0.366,,0.136956522,-0.348913043,1,0,0,0,181,181,79,1,nodig,images/br_nodig.png,images/cb_nodig.png,0,,,,,,,,,,,,,,,,,,,,,,
,,,,,00017,2023-08-19_23h21.18.231,vbt_B2_day4,2022.2.4,MacIntel,58.82352941,,,,,,down,0,0.776,,0.136956522,-0.348913043,1,0,0,0,182,182,61,1,groen,images/br_groen.png,images/cb_groen.png,0,,,,,,,,,,,,,,,,,,,,,,
,,,,,00017,2023-08-19_23h21.18.231,vbt_B2_day4,2022.2.4,MacIntel,58.82352941,,,,,,down,0,0.536,,0.136956522,-0.348913043,1,0,0,0,183,183,54,1,gebit,images/br_gebit.png,images/cb_gebit.png,0,,,,,,,,,,,,,,,,,,,,,,
,,,,,00017,2023-08-19_23h21.18.231,vbt_B2_day4,2022.2.4,MacIntel,58.82352941,,,,,,down,0,0.444,,0.136956522,-0.348913043,1,0,0,0,184,184,14,1,rijp,images/br_rijp.png,images/cb_rijp.png,0,,,,,,,,,,,,,,,,,,,,,,
,,,,,00017,2023-08-19_23h21.18.231,vbt_B2_day4,2022.2.4,MacIntel,58.82352941,,,,,,down,0,3.053,,0.136956522,-0.348913043,1,0,0,0,185,185,146,1,opkomen,images/br_opkomen.png,images/cb_opkomen.png,1,opkomen,,,,,,,,,,,,,,,,,,,,,
,,,,,00017,2023-08-19_23h21.18.231,vbt_B2_day4,2022.2.4,MacIntel,58.82352941,,,,,,down,0,9.269,,0.136956522,-0.348913043,1,0,0,0,186,186,147,1,komisch,images/br_komisch.png,images/cb_komisch.png,1,komisch,,,,,,,,,,,,,,,,,,,,,
,,,,,00017,2023-08-19_23h21.18.231,vbt_B2_day4,2022.2.4,MacIntel,58.82352941,,,,,,down,0,0.613,,0.136956522,-0.348913043,1,0,0,0,187,187,87,1,toeval,images/br_toeval.png,images/cb_toeval.png,0,,,,,,,,,,,,,,,,,,,,,,
,,,,,00017,2023-08-19_23h21.18.231,vbt_B2_day4,2022.2.4,MacIntel,58.82352941,,,,,,down,0,0.67,,0.136956522,-0.348913043,1,0,0,0,188,188,166,1,strikken,images/br_strikken.png,images/cb_strikken.png,0,,,,,,,,,,,,,,,,,,,,,,
,,,,,00017,2023-08-19_23h21.18.231,vbt_B2_day4,2022.2.4,MacIntel,58.82352941,,,,,,down,0,0.245,,0.136956522,-0.348913043,1,0,0,0,189,189,141,1,knielen,images/br_knielen.png,images/cb_knielen.png,0,,,,,,,,,,,,,,,,,,,,,,
,,,,,00017,2023-08-19_23h21.18.231,vbt_B2_day4,2022.2.4,MacIntel,58.82352941,,,,,,down,0,1.233,,0.136956522,-0.348913043,1,0,0,0,190,190,52,1,wagon,images/br_wagon.png,images/cb_wagon.png,0,,,,,,,,,,,,,,,,,,,,,,
,,,,,00017,2023-08-19_23h21.18.231,vbt_B2_day4,2022.2.4,MacIntel,58.82352941,,,,,,down,0,3.877,,0.136956522,-0.348913043,1,0,0,0,191,191,190,1,goedkoop,images/br_goedkoop.png,images/cb_goedkoop.png,0,,,,,,,,,,,,,,,,,,,,,,
,,,,,00017,2023-08-19_23h21.18.231,vbt_B2_day4,2022.2.4,MacIntel,58.82352941,,,,,,down,0,7.798,,0.136956522,-0.348913043,1,0,0,0,192,192,156,1,rechten,images/br_rechten.png,images/cb_rechten.png,0,,,,,,,,,,,,,,,,,,,,,,
,,,,,00017,2023-08-19_23h21.18.231,vbt_B2_day4,2022.2.4,MacIntel,58.82352941,,,,,,down,0,3.701,,0.136956522,-0.348913043,1,0,0,0,193,193,122,1,waarvan,images/br_waarvan.png,images/cb_waarvan.png,0,,,,,,,,,,,,,,,,,,,,,,
,,,,,00017,2023-08-19_23h21.18.231,vbt_B2_day4,2022.2.4,MacIntel,58.82352941,,,,,,down,0,0.552,,0.136956522,-0.348913043,1,0,0,0,194,194,82,1,muziek,images/br_muziek.png,images/cb_muziek.png,0,,,,,,,,,,,,,,,,,,,,,,
,,,,,00017,2023-08-19_23h21.18.231,vbt_B2_day4,2022.2.4,MacIntel,58.82352941,,,,,,down,0,0.151,,0.136956522,-0.348913043,1,0,0,0,195,195,60,1,jasje,images/br_jasje.png,images/cb_jasje.png,0,,,,,,,,,,,,,,,,,,,,,,
,,,,,00017,2023-08-19_23h21.18.231,vbt_B2_day4,2022.2.4,MacIntel,58.82352941,,,,,,down,0,1.027,,0.136956522,-0.348913043,1,0,0,0,196,196,110,1,zuster,images/br_zuster.png,images/cb_zuster.png,0,,,,,,,,,,,,,,,,,,,,,,
,,,,,00017,2023-08-19_23h21.18.231,vbt_B2_day4,2022.2.4,MacIntel,58.82352941,,,,,,down,0,2.557,,0.136956522,-0.348913043,1,0,0,0,197,197,44,1,flits,images/br_flits.png,images/cb_flits.png,0,,,,,,,,,,,,,,,,,,,,,,
,,,,,00017,2023-08-19_23h21.18.231,vbt_B2_day4,2022.2.4,MacIntel,58.82352941,,,,,,down,0,0.186,,0.136956522,-0.348913043,1,0,0,0,198,198,20,1,site,images/br_site.png,images/cb_site.png,0,,,,,,,,,,,,,,,,,,,,,,
,,,,,00017,2023-08-19_23h21.18.231,vbt_B2_day4,2022.2.4,MacIntel,58.82352941,,,,,,down,0,0.409,,0.136956522,-0.348913043,1,0,0,0,199,199,50,1,stoom,images/br_stoom.png,images/cb_stoom.png,0,,,,,,,,,,,,,,,,,,,,,,
,,,,,00017,2023-08-19_23h21.18.231,vbt_B2_day4,2022.2.4,MacIntel,58.82352941,,,,,,,,,,,,,,,,,,,,,,,,,0.139130435,0.069565217,1,0,0,,,,,,,,,,,,,,,,
,,,,,00017,2023-08-19_23h21.18.231,vbt_B2_day4,2022.2.4,MacIntel,58.82352941,,,,,,,,,,,,,,,,,,,,,,,,,,,,,,0.098913043,0.154347826,1,0,0,,,,,,,,,,,
,,,,,00017,2023-08-19_23h21.18.231,vbt_B2_day4,2022.2.4,MacIntel,58.82352941,,,,,,,,,,,,,,,,,,,,broodje,images/br_broodje.png,images/cb_broodje.png,,broodje,,,,,,,,,,,0.159782609,0.280434783,1,0,0,broodje,0,0,0,55,1
,,,,,00017,2023-08-19_23h21.18.231,vbt_B2_day4,2022.2.4,MacIntel,58.82352941,,,,,,,,,,,,,,,,,,,,pijnlijk,images/br_pijnlijk.png,images/cb_pijnlijk.png,,pijnlijk,,,,,,,,,,,0.016304348,0.214130435,1,0,0,pijnlijk,0,1,1,58,1
,,,,,00017,2023-08-19_23h21.18.231,vbt_B2_day4,2022.2.4,MacIntel,58.82352941,,,,,,,,,,,,,,,,,,,,schenden,images/br_schenden.png,images/cb_schenden.png,,schenden,,,,,,,,,,,-0.041304348,0.190217391,1,0,0,schenden,0,2,2,57,1
,,,,,00017,2023-08-19_23h21.18.231,vbt_B2_day4,2022.2.4,MacIntel,58.82352941,,,,,,,,,,,,,,,,,,,,geliefd,images/br_geliefd.png,images/cb_geliefd.png,,geliefd,,,,,,,,,,,-0.041304348,0.190217391,1,0,0,geliefd,0,3,3,14,1
,,,,,00017,2023-08-19_23h21.18.231,vbt_B2_day4,2022.2.4,MacIntel,58.82352941,,,,,,,,,,,,,,,,,,,,bisschap,images/br_bisschap.png,images/cb_bisschap.png,,besschap,,,,,,,,,,,0.027173913,-0.02826087,1,0,0,besschap,0,4,4,36,1
,,,,,00017,2023-08-19_23h21.18.231,vbt_B2_day4,2022.2.4,MacIntel,58.82352941,,,,,,,,,,,,,,,,,,,,steen,images/br_steen.png,images/cb_steen.png,,steen,,,,,,,,,,,0.006521739,-0.173913043,1,0,0,steen,0,5,5,44,1
,,,,,00017,2023-08-19_23h21.18.231,vbt_B2_day4,2022.2.4,MacIntel,58.82352941,,,,,,,,,,,,,,,,,,,,ezel,images/br_ezel.png,images/cb_ezel.png,,ezel,,,,,,,,,,,0.066304348,-0.073913043,1,0,0,ezel,0,6,6,42,1
,,,,,00017,2023-08-19_23h21.18.231,vbt_B2_day4,2022.2.4,MacIntel,58.82352941,,,,,,,,,,,,,,,,,,,,heengaan,images/br_heengaan.png,images/cb_heengaan.png,,heengaan,,,,,,,,,,,0.079347826,0.257608696,1,0,0,heengaan,0,7,7,19,1
,,,,,00017,2023-08-19_23h21.18.231,vbt_B2_day4,2022.2.4,MacIntel,58.82352941,,,,,,,,,,,,,,,,,,,,strok,images/br_strok.png,images/cb_strok.png,,strok,,,,,,,,,,,0.079347826,0.257608696,1,0,0,strok,0,8,8,25,1
,,,,,00017,2023-08-19_23h21.18.231,vbt_B2_day4,2022.2.4,MacIntel,58.82352941,,,,,,,,,,,,,,,,,,,,wagon,images/br_wagon.png,images/cb_wagon.png,,wagon,,,,,,,,,,,0.086956522,0.356521739,1,0,0,wagon,0,9,9,4,1
,,,,,00017,2023-08-19_23h21.18.231,vbt_B2_day4,2022.2.4,MacIntel,58.82352941,,,,,,,,,,,,,,,,,,,,praat,images/br_praat.png,images/cb_praat.png,,praat,,,,,,,,,,,-0.035869565,0.179347826,1,0,0,praat,0,10,10,7,1
,,,,,00017,2023-08-19_23h21.18.231,vbt_B2_day4,2022.2.4,MacIntel,58.82352941,,,,,,,,,,,,,,,,,,,,paalbaak,images/br_paalbaak.png,images/cb_paalbaak.png,,paalbaak,,,,,,,,,,,-0.083695652,0.413043478,1,0,0,paalbaak,0,11,11,39,1
,,,,,00017,2023-08-19_23h21.18.231,vbt_B2_day4,2022.2.4,MacIntel,58.82352941,,,,,,,,,,,,,,,,,,,,baron,images/br_baron.png,images/cb_baron.png,,baron,,,,,,,,,,,-0.07826087,0.17173913,1,0,0,baron,0,12,12,5,1
,,,,,00017,2023-08-19_23h21.18.231,vbt_B2_day4,2022.2.4,MacIntel,58.82352941,,,,,,,,,,,,,,,,,,,,apparaat,images/br_apparaat.png,images/cb_apparaat.png,,apparaat,,,,,,,,,,,-0.07826087,0.17173913,1,0,0,apparaat,0,13,13,17,1
,,,,,00017,2023-08-19_23h21.18.231,vbt_B2_day4,2022.2.4,MacIntel,58.82352941,,,,,,,,,,,,,,,,,,,,gebog,images/br_gebog.png,images/cb_gebog.png,,gebog,,,,,,,,,,,0.057608696,-0.054347826,1,0,0,gebog,0,14,14,24,1
,,,,,00017,2023-08-19_23h21.18.231,vbt_B2_day4,2022.2.4,MacIntel,58.82352941,,,,,,,,,,,,,,,,,,,,waarop,images/br_waarop.png,images/cb_waarop.png,,waarop,,,,,,,,,,,0.155434783,0.333695652,1,0,0,waarop,0,15,15,9,1
,,,,,00017,2023-08-19_23h21.18.231,vbt_B2_day4,2022.2.4,MacIntel,58.82352941,,,,,,,,,,,,,,,,,,,,opruimen,images/br_opruimen.png,images/cb_opruimen.png,,opruimen,,,,,,,,,,,0.02826087,0.157608696,1,0,0,opruimen,0,16,16,59,1
,,,,,00017,2023-08-19_23h21.18.231,vbt_B2_day4,2022.2.4,MacIntel,58.82352941,,,,,,,,,,,,,,,,,,,,stemming,images/br_stemming.png,images/cb_stemming.png,,stemming,,,,,,,,,,,-0.075,0.243478261,1,0,0,stemming,0,17,17,18,1
,,,,,00017,2023-08-19_23h21.18.231,vbt_B2_day4,2022.2.4,MacIntel,58.82352941,,,,,,,,,,,,,,,,,,,,dalen,images/br_dalen.png,images/cb_dalen.png,,dalen,,,,,,,,,,,-0.225,0.241304348,1,0,0,dalen,0,18,18,46,1
,,,,,00017,2023-08-19_23h21.18.231,vbt_B2_day4,2022.2.4,MacIntel,58.82352941,,,,,,,,,,,,,,,,,,,,dozijn,images/br_dozijn.png,images/cb_dozijn.png,,dozijn,,,,,,,,,,,-0.242391304,0.286956522,1,0,0,dozijn,0,19,19,48,1
,,,,,00017,2023-08-19_23h21.18.231,vbt_B2_day4,2022.2.4,MacIntel,58.82352941,,,,,,,,,,,,,,,,,,,,gijf,images/br_gijf.png,images/cb_gijf.png,,vijf,,,,,,,,,,,-0.239130435,0.265217391,1,0,0,vijf,0,20,20,23,1
,,,,,00017,2023-08-19_23h21.18.231,vbt_B2_day4,2022.2.4,MacIntel,58.82352941,,,,,,,,,,,,,,,,,,,,fran,images/br_fran.png,images/cb_fran.png,,fran,,,,,,,,,,,-0.120652174,0.085869565,1,0,0,fran,0,21,21,22,1
,,,,,00017,2023-08-19_23h21.18.231,vbt_B2_day4,2022.2.4,MacIntel,58.82352941,,,,,,,,,,,,,,,,,,,,bruin,images/br_bruin.png,images/cb_bruin.png,,bruin,,,,,,,,,,,-0.1,0.185869565,1,0,0,bruin,0,22,22,45,1
,,,,,00017,2023-08-19_23h21.18.231,vbt_B2_day4,2022.2.4,MacIntel,58.82352941,,,,,,,,,,,,,,,,,,,,opkicht,images/br_opkicht.png,images/cb_opkicht.png,,opkicht,,,,,,,,,,,0.006521739,-0.097826087,1,0,0,opkicht,0,23,23,34,1
,,,,,00017,2023-08-19_23h21.18.231,vbt_B2_day4,2022.2.4,MacIntel,58.82352941,,,,,,,,,,,,,,,,,,,,geheim,images/br_geheim.png,images/cb_geheim.png,,geheim,,,,,,,,,,,-0.040217391,0.391304348,1,0,0,geheim,0,24,24,8,1
,,,,,00017,2023-08-19_23h21.18.231,vbt_B2_day4,2022.2.4,MacIntel,58.82352941,,,,,,,,,,,,,,,,,,,,toevol,images/br_toevol.png,images/cb_toevol.png,,toevol,,,,,,,,,,,-0.076086957,0.248913043,1,0,0,toevol,0,25,25,29,1
,,,,,00017,2023-08-19_23h21.18.231,vbt_B2_day4,2022.2.4,MacIntel,58.82352941,,,,,,,,,,,,,,,,,,,,aanzwaag,images/br_aanzwaag.png,images/cb_aanzwaag.png,,aanzwaai,,,,,,,,,,,-0.091304348,0.359782609,1,0,0,aanzwaai,0,26,26,38,1
,,,,,00017,2023-08-19_23h21.18.231,vbt_B2_day4,2022.2.4,MacIntel,58.82352941,,,,,,,,,,,,,,,,,,,,tucket,images/br_tucket.png,images/cb_tucket.png,,tucket,,,,,,,,,,,0.025,-0.034782609,1,0,0,tucket,0,27,27,30,1
,,,,,00017,2023-08-19_23h21.18.231,vbt_B2_day4,2022.2.4,MacIntel,58.82352941,,,,,,,,,,,,,,,,,,,,midden,images/br_midden.png,images/cb_midden.png,,midden,,,,,,,,,,,0.059782609,0.15326087,1,0,0,midden,0,28,28,50,1
,,,,,00017,2023-08-19_23h21.18.231,vbt_B2_day4,2022.2.4,MacIntel,58.82352941,,,,,,,,,,,,,,,,,,,,soda,images/br_soda.png,images/cb_soda.png,,soda,,,,,,,,,,,0.020652174,0.180434783,1,0,0,soda,0,29,29,3,1
,,,,,00017,2023-08-19_23h21.18.231,vbt_B2_day4,2022.2.4,MacIntel,58.82352941,,,,,,,,,,,,,,,,,,,,grappen,images/br_grappen.png,images/cb_grappen.png,,grappen,,,,,,,,,,,0.019565217,0.241304348,1,0,0,grappen,0,30,30,12,1
,,,,,00017,2023-08-19_23h21.18.231,vbt_B2_day4,2022.2.4,MacIntel,58.82352941,,,,,,,,,,,,,,,,,,,,drooien,images/br_drooien.png,images/cb_drooien.png,,drooien,,,,,,,,,,,-0.085869565,0.266304348,1,0,0,drooien,0,31,31,32,1
,,,,,00017,2023-08-19_23h21.18.231,vbt_B2_day4,2022.2.4,MacIntel,58.82352941,,,,,,,,,,,,,,,,,,,,rijp,images/br_rijp.png,images/cb_rijp.png,,rijp,,,,,,,,,,,-0.07826087,0.339130435,1,0,0,rijp,0,32,32,2,1
,,,,,00017,2023-08-19_23h21.18.231,vbt_B2_day4,2022.2.4,MacIntel,58.82352941,,,,,,,,,,,,,,,,,,,,mekst,images/br_mekst.png,images/cb_mekst.png,,mekst,,,,,,,,,,,-0.047826087,0.347826087,1,0,0,mekst,0,33,33,27,1
,,,,,00017,2023-08-19_23h21.18.231,vbt_B2_day4,2022.2.4,MacIntel,58.82352941,,,,,,,,,,,,,,,,,,,,flippen,images/br_flippen.png,images/cb_flippen.png,,flippen,,,,,,,,,,,0.060869565,0.034782609,1,0,0,flippen,0,34,34,54,1
,,,,,00017,2023-08-19_23h21.18.231,vbt_B2_day4,2022.2.4,MacIntel,58.82352941,,,,,,,,,,,,,,,,,,,,schotel,images/br_schotel.png,images/cb_schotel.png,,schotel,,,,,,,,,,,0.058695652,0.117391304,1,0,0,schotel,0,35,35,52,1
,,,,,00017,2023-08-19_23h21.18.231,vbt_B2_day4,2022.2.4,MacIntel,58.82352941,,,,,,,,,,,,,,,,,,,,gaan,images/br_gaan.png,images/cb_gaan.png,,gaan,,,,,,,,,,,0.033695652,0.168478261,1,0,0,gaan,0,36,36,41,1
,,,,,00017,2023-08-19_23h21.18.231,vbt_B2_day4,2022.2.4,MacIntel,58.82352941,,,,,,,,,,,,,,,,,,,,snee,images/br_snee.png,images/cb_snee.png,,snee,,,,,,,,,,,0.031521739,0.206521739,1,0,0,snee,0,37,37,40,1
,,,,,00017,2023-08-19_23h21.18.231,vbt_B2_day4,2022.2.4,MacIntel,58.82352941,,,,,,,,,,,,,,,,,,,,weigeren,images/br_weigeren.png,images/cb_weigeren.png,,weigeren,,,,,,,,,,,0.04673913,0.245652174,1,0,0,weigeren,0,38,38,16,1
,,,,,00017,2023-08-19_23h21.18.231,vbt_B2_day4,2022.2.4,MacIntel,58.82352941,,,,,,,,,,,,,,,,,,,,sulbon,images/br_sulbon.png,images/cb_sulbon.png,,sulbon,,,,,,,,,,,-0.004347826,0.288043478,1,0,0,sulbon,0,39,39,31,1
,,,,,00017,2023-08-19_23h21.18.231,vbt_B2_day4,2022.2.4,MacIntel,58.82352941,,,,,,,,,,,,,,,,,,,,warel,images/br_warel.png,images/cb_warel.png,,warel,,,,,,,,,,,0,0.244565217,1,0,0,warel,0,40,40,26,1
,,,,,00017,2023-08-19_23h21.18.231,vbt_B2_day4,2022.2.4,MacIntel,58.82352941,,,,,,,,,,,,,,,,,,,,noodzaak,images/br_noodzaak.png,images/cb_noodzaak.png,,noodzaak,,,,,,,,,,,0.039130435,0.313043478,1,0,0,noodzaak,0,41,41,56,1
,,,,,00017,2023-08-19_23h21.18.231,vbt_B2_day4,2022.2.4,MacIntel,58.82352941,,,,,,,,,,,,,,,,,,,,vreten,images/br_vreten.png,images/cb_vreten.png,,vreten,,,,,,,,,,,-0.00326087,0.244565217,1,0,0,vreten,0,42,42,11,1
,,,,,00017,2023-08-19_23h21.18.231,vbt_B2_day4,2022.2.4,MacIntel,58.82352941,,,,,,,,,,,,,,,,,,,,pittig,images/br_pittig.png,images/cb_pittig.png,,pittig,,,,,,,,,,,0.033695652,0.181521739,1,0,0,pittig,0,43,43,51,1
,,,,,00017,2023-08-19_23h21.18.231,vbt_B2_day4,2022.2.4,MacIntel,58.82352941,,,,,,,,,,,,,,,,,,,,kaal,images/br_kaal.png,images/cb_kaal.png,,kaal,,,,,,,,,,,0.084782609,0.370652174,1,0,0,kaal,0,44,44,1,1
,,,,,00017,2023-08-19_23h21.18.231,vbt_B2_day4,2022.2.4,MacIntel,58.82352941,,,,,,,,,,,,,,,,,,,,eerst,images/br_eerst.png,images/cb_eerst.png,,eerst,,,,,,,,,,,0.014130435,0.22826087,1,0,0,eerst,0,45,45,47,1
,,,,,00017,2023-08-19_23h21.18.231,vbt_B2_day4,2022.2.4,MacIntel,58.82352941,,,,,,,,,,,,,,,,,,,,drummer,images/br_drummer.png,images/cb_drummer.png,,drummer,,,,,,,,,,,0.104347826,0.339130435,1,0,0,drummer,0,46,46,53,1
,,,,,00017,2023-08-19_23h21.18.231,vbt_B2_day4,2022.2.4,MacIntel,58.82352941,,,,,,,,,,,,,,,,,,,,zwek,images/br_zwek.png,images/cb_zwek.png,,zwek,,,,,,,,,,,0.014130435,0.220652174,1,0,0,zwek,0,47,47,20,1
,,,,,00017,2023-08-19_23h21.18.231,vbt_B2_day4,2022.2.4,MacIntel,58.82352941,,,,,,,,,,,,,,,,,,,,wozing,images/br_wozing.png,images/cb_wozing.png,,wozing,,,,,,,,,,,0.031521739,-0.125,1,0,0,wozing,0,48,48,28,1
,,,,,00017,2023-08-19_23h21.18.231,vbt_B2_day4,2022.2.4,MacIntel,58.82352941,,,,,,,,,,,,,,,,,,,,kust,images/br_kust.png,images/cb_kust.png,,kust,,,,,,,,,,,0.141304348,0.389130435,1,0,0,kust,0,49,49,0,1
,,,,,00017,2023-08-19_23h21.18.231,vbt_B2_day4,2022.2.4,MacIntel,58.82352941,,,,,,,,,,,,,,,,,,,,zaalrijk,images/br_zaalrijk.png,images/cb_zaalrijk.png,,zaalrijk,,,,,,,,,,,-0.032608696,0.079347826,1,0,0,zaalrijk,0,50,50,37,1
,,,,,00017,2023-08-19_23h21.18.231,vbt_B2_day4,2022.2.4,MacIntel,58.82352941,,,,,,,,,,,,,,,,,,,,getucht,images/br_getucht.png,images/cb_getucht.png,,getucht,,,,,,,,,,,0.048913043,-0.07826087,1,0,0,getucht,0,51,51,35,1
,,,,,00017,2023-08-19_23h21.18.231,vbt_B2_day4,2022.2.4,MacIntel,58.82352941,,,,,,,,,,,,,,,,,,,,seizoen,images/br_seizoen.png,images/cb_seizoen.png,,seizoen,,,,,,,,,,,0.295652174,0.310869565,1,0,0,seizoen,0,52,52,13,1
,,,,,00017,2023-08-19_23h21.18.231,vbt_B2_day4,2022.2.4,MacIntel,58.82352941,,,,,,,,,,,,,,,,,,,,seizoon,images/br_seizoon.png,images/cb_seizoon.png,,seizoen,,,,,,,,,,,0.173913043,0.155434783,1,0,0,seizoen,0,53,53,33,1
,,,,,00017,2023-08-19_23h21.18.231,vbt_B2_day4,2022.2.4,MacIntel,58.82352941,,,,,,,,,,,,,,,,,,,,gaaf,images/br_gaaf.png,images/cb_gaaf.png,,gaaf,,,,,,,,,,,0.157608696,0.306521739,1,0,0,gaaf,0,54,54,43,1
,,,,,00017,2023-08-19_23h21.18.231,vbt_B2_day4,2022.2.4,MacIntel,58.82352941,,,,,,,,,,,,,,,,,,,,lappen,images/br_lappen.png,images/cb_lappen.png,,lappen,,,,,,,,,,,0.173913043,0.351086957,1,0,0,lappen,0,55,55,49,1
,,,,,00017,2023-08-19_23h21.18.231,vbt_B2_day4,2022.2.4,MacIntel,58.82352941,,,,,,,,,,,,,,,,,,,,gebit,images/br_gebit.png,images/cb_gebit.png,,gebit,,,,,,,,,,,-0.001086957,0.268478261,1,0,0,gebit,0,56,56,6,1
,,,,,00017,2023-08-19_23h21.18.231,vbt_B2_day4,2022.2.4,MacIntel,58.82352941,,,,,,,,,,,,,,,,,,,,oceaan,images/br_oceaan.png,images/cb_oceaan.png,,oceaan,,,,,,,,,,,-0.031521739,0.223913043,1,0,0,oceaan,0,57,57,10,1
,,,,,00017,2023-08-19_23h21.18.231,vbt_B2_day4,2022.2.4,MacIntel,58.82352941,,,,,,,,,,,,,,,,,,,,gedicht,images/br_gedicht.png,images/cb_gedicht.png,,gedicht,,,,,,,,,,,-0.072826087,0.204347826,1,0,0,gedicht,0,58,58,15,1
,,,,,00017,2023-08-19_23h21.18.231,vbt_B2_day4,2022.2.4,MacIntel,58.82352941,,,,,,,,,,,,,,,,,,,,haza,images/br_haza.png,images/cb_haza.png,,haza,,,,,,,,,,,-0.135869565,0.157608696,1,0,0,haza,0,59,59,21,1
,,,,,00017,2023-08-19_23h21.18.231,vbt_B2_day4,2022.2.4,MacIntel,58.82352941,,,,,,,,,,,,,,,,,,,,,,,,,,,,,,,,,,,,,,,,,,,,,
