welcome_mouse.x,welcome_mouse.y,welcome_mouse.leftButton,welcome_mouse.midButton,welcome_mouse.rightButton,"ID",date,expName,psychopyVersion,OS,frameRate,trainInstr_mouse.x,trainInstr_mouse.y,trainInstr_mouse.leftButton,trainInstr_mouse.midButton,trainInstr_mouse.rightButton,translation_key.keys,translation_key.corr,translation_key.rt,word_rsp.text,trWrd_mouse.x,trWrd_mouse.y,trWrd_mouse.leftButton,trWrd_mouse.midButton,trWrd_mouse.rightButton,train_loop.thisRepN,train_loop.thisTrialN,train_loop.thisN,train_loop.thisIndex,train_loop.ran,nlWrd,brWrd,cbWrd,test,testResp,mouse.x,mouse.y,mouse.leftButton,mouse.midButton,mouse.rightButton,testInstr_mouse.x,testInstr_mouse.y,testInstr_mouse.leftButton,testInstr_mouse.midButton,testInstr_mouse.rightButton,test_mouse.x,test_mouse.y,test_mouse.leftButton,test_mouse.midButton,test_mouse.rightButton,test_response.text,test_loop.thisRepN,test_loop.thisTrialN,test_loop.thisN,test_loop.thisIndex,test_loop.ran
-0.034259231,0.006481489,1,0,0,00092,2023-11-02_21h20.06.924,vbt_B2_day4,2022.2.4,Win32,59.90534955,,,,,,,,,,,,,,,,,,,,,,,,,,,,,,,,,,,,,,,,,,,,,
,,,,,00092,2023-11-02_21h20.06.924,vbt_B2_day4,2022.2.4,Win32,59.90534955,-0.026851866,0.021296289,1,0,0,,,,,,,,,,,,,,,,,,,,,,,,,,,,,,,,,,,,,,,,
,,,,,00092,2023-11-02_21h20.06.924,vbt_B2_day4,2022.2.4,Win32,59.90534955,,,,,,down,0,13.8052,,0.014814801,-0.041666667,1,0,0,0,0,0,198,1,bedoelen,images/br_bedoelen.png,images/cb_bedoelen.png,0,,,,,,,,,,,,,,,,,,,,,,
,,,,,00092,2023-11-02_21h20.06.924,vbt_B2_day4,2022.2.4,Win32,59.90534955,,,,,,down,0,5.006,,0.023148148,-0.045370384,1,0,0,0,1,1,106,1,zingen,images/br_zingen.png,images/cb_zingen.png,1,zingen,,,,,,,,,,,,,,,,,,,,,
,,,,,00092,2023-11-02_21h20.06.924,vbt_B2_day4,2022.2.4,Win32,59.90534955,,,,,,down,0,0.6337,,-0.029629601,-0.078703704,1,0,0,0,2,2,17,1,taal,images/br_taal.png,images/cb_taal.png,0,,,,,,,,,,,,,,,,,,,,,,
,,,,,00092,2023-11-02_21h20.06.924,vbt_B2_day4,2022.2.4,Win32,59.90534955,,,,,,down,0,2.7553,,0.026851866,0.020370377,1,0,0,0,3,3,52,1,wagon,images/br_wagon.png,images/cb_wagon.png,0,,,,,,,,,,,,,,,,,,,,,,
,,,,,00092,2023-11-02_21h20.06.924,vbt_B2_day4,2022.2.4,Win32,59.90534955,,,,,,down,0,2.0211,,0.026851866,0.020370377,1,0,0,0,4,4,149,1,redding,images/br_redding.png,images/cb_redding.png,0,,,,,,,,,,,,,,,,,,,,,,
,,,,,00092,2023-11-02_21h20.06.924,vbt_B2_day4,2022.2.4,Win32,59.90534955,,,,,,down,0,7.87,,0.026851866,0.020370377,1,0,0,0,5,5,27,1,dans,images/br_dans.png,images/cb_dans.png,1,dans,,,,,,,,,,,,,,,,,,,,,
,,,,,00092,2023-11-02_21h20.06.924,vbt_B2_day4,2022.2.4,Win32,59.90534955,,,,,,down,0,5.0858,,0.026851866,0.020370377,1,0,0,0,6,6,105,1,wijlen,images/br_wijlen.png,images/cb_wijlen.png,1,wijlen,,,,,,,,,,,,,,,,,,,,,
,,,,,00092,2023-11-02_21h20.06.924,vbt_B2_day4,2022.2.4,Win32,59.90534955,,,,,,down,0,6.0131,,0.026851866,0.020370377,1,0,0,0,7,7,165,1,feestdag,images/br_feestdag.png,images/cb_feestdag.png,0,,,,,,,,,,,,,,,,,,,,,,
,,,,,00092,2023-11-02_21h20.06.924,vbt_B2_day4,2022.2.4,Win32,59.90534955,,,,,,down,0,8.3403,,0.026851866,0.020370377,1,0,0,0,8,8,186,1,voorraad,images/br_voorraad.png,images/cb_voorraad.png,1,voorrang,,,,,,,,,,,,,,,,,,,,,
,,,,,00092,2023-11-02_21h20.06.924,vbt_B2_day4,2022.2.4,Win32,59.90534955,,,,,,down,0,5.3383,,0.026851866,0.020370377,1,0,0,0,9,9,111,1,ticket,images/br_ticket.png,images/cb_ticket.png,0,,,,,,,,,,,,,,,,,,,,,,
,,,,,00092,2023-11-02_21h20.06.924,vbt_B2_day4,2022.2.4,Win32,59.90534955,,,,,,down,0,0.5317,,0.026851866,0.020370377,1,0,0,0,10,10,109,1,totaal,images/br_totaal.png,images/cb_totaal.png,0,,,,,,,,,,,,,,,,,,,,,,
,,,,,00092,2023-11-02_21h20.06.924,vbt_B2_day4,2022.2.4,Win32,59.90534955,,,,,,down,0,3.3962,,0.026851866,0.020370377,1,0,0,0,11,11,152,1,afnemen,images/br_afnemen.png,images/cb_afnemen.png,0,,,,,,,,,,,,,,,,,,,,,,
,,,,,00092,2023-11-02_21h20.06.924,vbt_B2_day4,2022.2.4,Win32,59.90534955,,,,,,down,0,0.9897,,0.02407406,0.041666667,1,0,0,0,12,12,39,1,laag,images/br_laag.png,images/cb_laag.png,0,,,,,,,,,,,,,,,,,,,,,,
,,,,,00092,2023-11-02_21h20.06.924,vbt_B2_day4,2022.2.4,Win32,59.90534955,,,,,,down,0,0.1171,,0.02407406,0.041666667,1,0,0,0,13,13,46,1,jagen,images/br_jagen.png,images/cb_jagen.png,0,,,,,,,,,,,,,,,,,,,,,,
,,,,,00092,2023-11-02_21h20.06.924,vbt_B2_day4,2022.2.4,Win32,59.90534955,,,,,,down,0,0.1505,,0.02407406,0.041666667,1,0,0,0,14,14,125,1,aanzien,images/br_aanzien.png,images/cb_aanzien.png,0,,,,,,,,,,,,,,,,,,,,,,
,,,,,00092,2023-11-02_21h20.06.924,vbt_B2_day4,2022.2.4,Win32,59.90534955,,,,,,down,0,0.0339,,0.02407406,0.041666667,1,0,0,0,15,15,34,1,vorm,images/br_vorm.png,images/cb_vorm.png,0,,,,,,,,,,,,,,,,,,,,,,
,,,,,00092,2023-11-02_21h20.06.924,vbt_B2_day4,2022.2.4,Win32,59.90534955,,,,,,down,0,4.4501,,0.02407406,0.041666667,1,0,0,0,16,16,139,1,stiekem,images/br_stiekem.png,images/cb_stiekem.png,0,,,,,,,,,,,,,,,,,,,,,,
,,,,,00092,2023-11-02_21h20.06.924,vbt_B2_day4,2022.2.4,Win32,59.90534955,,,,,,down,0,12.1309,,0.02407406,0.041666667,1,0,0,0,17,17,162,1,uitdelen,images/br_uitdelen.png,images/cb_uitdelen.png,0,,,,,,,,,,,,,,,,,,,,,,
,,,,,00092,2023-11-02_21h20.06.924,vbt_B2_day4,2022.2.4,Win32,59.90534955,,,,,,down,0,1.0051,,0.02407406,0.041666667,1,0,0,0,18,18,81,1,dubbel,images/br_dubbel.png,images/cb_dubbel.png,0,,,,,,,,,,,,,,,,,,,,,,
,,,,,00092,2023-11-02_21h20.06.924,vbt_B2_day4,2022.2.4,Win32,59.90534955,,,,,,down,0,8.7036,,0.02407406,0.041666667,1,0,0,0,19,19,188,1,strekken,images/br_strekken.png,images/cb_strekken.png,0,,,,,,,,,,,,,,,,,,,,,,
,,,,,00092,2023-11-02_21h20.06.924,vbt_B2_day4,2022.2.4,Win32,59.90534955,,,,,,down,0,1.1858,,0.02407406,0.041666667,1,0,0,0,20,20,41,1,maken,images/br_maken.png,images/cb_maken.png,0,,,,,,,,,,,,,,,,,,,,,,
,,,,,00092,2023-11-02_21h20.06.924,vbt_B2_day4,2022.2.4,Win32,59.90534955,,,,,,down,0,0.4523,,0.02407406,0.041666667,1,0,0,0,21,21,55,1,praat,images/br_praat.png,images/cb_praat.png,0,,,,,,,,,,,,,,,,,,,,,,
,,,,,00092,2023-11-02_21h20.06.924,vbt_B2_day4,2022.2.4,Win32,59.90534955,,,,,,down,0,1.8346,,0.02407406,0.041666667,1,0,0,0,22,22,180,1,openbaar,images/br_openbaar.png,images/cb_openbaar.png,0,,,,,,,,,,,,,,,,,,,,,,
,,,,,00092,2023-11-02_21h20.06.924,vbt_B2_day4,2022.2.4,Win32,59.90534955,,,,,,down,0,4.2522,,0.02407406,0.041666667,1,0,0,0,23,23,92,1,geheim,images/br_geheim.png,images/cb_geheim.png,0,,,,,,,,,,,,,,,,,,,,,,
,,,,,00092,2023-11-02_21h20.06.924,vbt_B2_day4,2022.2.4,Win32,59.90534955,,,,,,down,0,0.0543,,0.02407406,0.041666667,1,0,0,0,24,24,181,1,toegeven,images/br_toegeven.png,images/cb_toegeven.png,0,,,,,,,,,,,,,,,,,,,,,,
,,,,,00092,2023-11-02_21h20.06.924,vbt_B2_day4,2022.2.4,Win32,59.90534955,,,,,,down,0,0.6931,,0.02407406,0.041666667,1,0,0,0,25,25,141,1,knielen,images/br_knielen.png,images/cb_knielen.png,0,,,,,,,,,,,,,,,,,,,,,,
,,,,,00092,2023-11-02_21h20.06.924,vbt_B2_day4,2022.2.4,Win32,59.90534955,,,,,,down,0,1.6212,,0.02407406,0.041666667,1,0,0,0,26,26,168,1,bisschop,images/br_bisschop.png,images/cb_bisschop.png,0,,,,,,,,,,,,,,,,,,,,,,
,,,,,00092,2023-11-02_21h20.06.924,vbt_B2_day4,2022.2.4,Win32,59.90534955,,,,,,down,0,1.1238,,0.02407406,0.041666667,1,0,0,0,27,27,99,1,koffie,images/br_koffie.png,images/cb_koffie.png,0,,,,,,,,,,,,,,,,,,,,,,
,,,,,00092,2023-11-02_21h20.06.924,vbt_B2_day4,2022.2.4,Win32,59.90534955,,,,,,down,0,0.0172,,0.02407406,0.041666667,1,0,0,0,28,28,0,1,slak,images/br_slak.png,images/cb_slak.png,0,,,,,,,,,,,,,,,,,,,,,,
,,,,,00092,2023-11-02_21h20.06.924,vbt_B2_day4,2022.2.4,Win32,59.90534955,,,,,,down,0,2.0221,,0.02407406,0.041666667,1,0,0,0,29,29,40,1,schep,images/br_schep.png,images/cb_schep.png,0,,,,,,,,,,,,,,,,,,,,,,
,,,,,00092,2023-11-02_21h20.06.924,vbt_B2_day4,2022.2.4,Win32,59.90534955,,,,,,down,0,0.9687,,0.02407406,0.041666667,1,0,0,0,30,30,183,1,getuigen,images/br_getuigen.png,images/cb_getuigen.png,0,,,,,,,,,,,,,,,,,,,,,,
,,,,,00092,2023-11-02_21h20.06.924,vbt_B2_day4,2022.2.4,Win32,59.90534955,,,,,,down,0,4.2022,,0.02407406,0.041666667,1,0,0,0,31,31,196,1,nakijken,images/br_nakijken.png,images/cb_nakijken.png,0,,,,,,,,,,,,,,,,,,,,,,
,,,,,00092,2023-11-02_21h20.06.924,vbt_B2_day4,2022.2.4,Win32,59.90534955,,,,,,down,0,1.2007,,0.02407406,0.041666667,1,0,0,0,32,32,110,1,zuster,images/br_zuster.png,images/cb_zuster.png,0,,,,,,,,,,,,,,,,,,,,,,
,,,,,00092,2023-11-02_21h20.06.924,vbt_B2_day4,2022.2.4,Win32,59.90534955,,,,,,down,0,2.3847,,0.02407406,0.041666667,1,0,0,0,33,33,144,1,eetlust,images/br_eetlust.png,images/cb_eetlust.png,1,eetlust,,,,,,,,,,,,,,,,,,,,,
,,,,,00092,2023-11-02_21h20.06.924,vbt_B2_day4,2022.2.4,Win32,59.90534955,,,,,,down,0,7.3982,,0.02407406,0.041666667,1,0,0,0,34,34,166,1,strikken,images/br_strikken.png,images/cb_strikken.png,0,,,,,,,,,,,,,,,,,,,,,,
,,,,,00092,2023-11-02_21h20.06.924,vbt_B2_day4,2022.2.4,Win32,59.90534955,,,,,,down,0,0.4753,,0.02407406,0.041666667,1,0,0,0,35,35,174,1,stemming,images/br_stemming.png,images/cb_stemming.png,0,,,,,,,,,,,,,,,,,,,,,,
,,,,,00092,2023-11-02_21h20.06.924,vbt_B2_day4,2022.2.4,Win32,59.90534955,,,,,,down,0,3.5525,,0.02407406,0.041666667,1,0,0,0,36,36,155,1,gerucht,images/br_gerucht.png,images/cb_gerucht.png,0,,,,,,,,,,,,,,,,,,,,,,
,,,,,00092,2023-11-02_21h20.06.924,vbt_B2_day4,2022.2.4,Win32,59.90534955,,,,,,down,0,13.9555,,0.02407406,0.041666667,1,0,0,0,37,37,145,1,invloed,images/br_invloed.png,images/cb_invloed.png,1,invloed,,,,,,,,,,,,,,,,,,,,,
,,,,,00092,2023-11-02_21h20.06.924,vbt_B2_day4,2022.2.4,Win32,59.90534955,,,,,,down,0,9.1206,,0.02407406,0.041666667,1,0,0,0,38,38,178,1,huisdier,images/br_huisdier.png,images/cb_huisdier.png,0,,,,,,,,,,,,,,,,,,,,,,
,,,,,00092,2023-11-02_21h20.06.924,vbt_B2_day4,2022.2.4,Win32,59.90534955,,,,,,down,0,13.8789,,0.02407406,0.041666667,1,0,0,0,39,39,24,1,jurk,images/br_jurk.png,images/cb_jurk.png,1,jurk,,,,,,,,,,,,,,,,,,,,,
,,,,,00092,2023-11-02_21h20.06.924,vbt_B2_day4,2022.2.4,Win32,59.90534955,,,,,,down,0,2.0089,,0.038888931,0.042592578,1,0,0,0,40,40,43,1,klauw,images/br_klauw.png,images/cb_klauw.png,0,,,,,,,,,,,,,,,,,,,,,,
,,,,,00092,2023-11-02_21h20.06.924,vbt_B2_day4,2022.2.4,Win32,59.90534955,,,,,,down,0,0.8866,,0.038888931,0.042592578,1,0,0,0,41,41,177,1,maaltijd,images/br_maaltijd.png,images/cb_maaltijd.png,0,,,,,,,,,,,,,,,,,,,,,,
,,,,,00092,2023-11-02_21h20.06.924,vbt_B2_day4,2022.2.4,Win32,59.90534955,,,,,,down,0,12.522,,0.038888931,0.042592578,1,0,0,0,42,42,154,1,aflopen,images/br_aflopen.png,images/cb_aflopen.png,0,,,,,,,,,,,,,,,,,,,,,,
,,,,,00092,2023-11-02_21h20.06.924,vbt_B2_day4,2022.2.4,Win32,59.90534955,,,,,,down,0,0.8839,,0.038888931,0.042592578,1,0,0,0,43,43,8,1,knie,images/br_knie.png,images/cb_knie.png,0,,,,,,,,,,,,,,,,,,,,,,
,,,,,00092,2023-11-02_21h20.06.924,vbt_B2_day4,2022.2.4,Win32,59.90534955,,,,,,down,0,1.1176,,0.038888931,0.042592578,1,0,0,0,44,44,62,1,knaap,images/br_knaap.png,images/cb_knaap.png,0,,,,,,,,,,,,,,,,,,,,,,
,,,,,00092,2023-11-02_21h20.06.924,vbt_B2_day4,2022.2.4,Win32,59.90534955,,,,,,down,0,2.2346,,0.038888931,0.042592578,1,0,0,0,45,45,146,1,opkomen,images/br_opkomen.png,images/cb_opkomen.png,1,opkomen,,,,,,,,,,,,,,,,,,,,,
,,,,,00092,2023-11-02_21h20.06.924,vbt_B2_day4,2022.2.4,Win32,59.90534955,,,,,,down,0,0.3505,,0.038888931,0.042592578,1,0,0,0,46,46,48,1,steel,images/br_steel.png,images/cb_steel.png,0,,,,,,,,,,,,,,,,,,,,,,
,,,,,00092,2023-11-02_21h20.06.924,vbt_B2_day4,2022.2.4,Win32,59.90534955,,,,,,down,0,0.4722,,0.038888931,0.042592578,1,0,0,0,47,47,75,1,snoep,images/br_snoep.png,images/cb_snoep.png,0,,,,,,,,,,,,,,,,,,,,,,
,,,,,00092,2023-11-02_21h20.06.924,vbt_B2_day4,2022.2.4,Win32,59.90534955,,,,,,down,0,5.3004,,0.038888931,0.042592578,1,0,0,0,48,48,153,1,vervoer,images/br_vervoer.png,images/cb_vervoer.png,0,,,,,,,,,,,,,,,,,,,,,,
,,,,,00092,2023-11-02_21h20.06.924,vbt_B2_day4,2022.2.4,Win32,59.90534955,,,,,,down,0,4.6874,,0.038888931,0.042592578,1,0,0,0,49,49,51,1,samen,images/br_samen.png,images/cb_samen.png,0,,,,,,,,,,,,,,,,,,,,,,
,,,,,00092,2023-11-02_21h20.06.924,vbt_B2_day4,2022.2.4,Win32,59.90534955,,,,,,down,0,0.461,,0.038888931,0.042592578,1,0,0,0,50,50,127,1,doodmoe,images/br_doodmoe.png,images/cb_doodmoe.png,0,,,,,,,,,,,,,,,,,,,,,,
,,,,,00092,2023-11-02_21h20.06.924,vbt_B2_day4,2022.2.4,Win32,59.90534955,,,,,,down,0,8.7627,,0.038888931,0.042592578,1,0,0,0,51,51,59,1,kring,images/br_kring.png,images/cb_kring.png,0,,,,,,,,,,,,,,,,,,,,,,
,,,,,00092,2023-11-02_21h20.06.924,vbt_B2_day4,2022.2.4,Win32,59.90534955,,,,,,down,0,1.9125,,0.038888931,0.042592578,1,0,0,0,52,52,45,1,piste,images/br_piste.png,images/cb_piste.png,0,,,,,,,,,,,,,,,,,,,,,,
,,,,,00092,2023-11-02_21h20.06.924,vbt_B2_day4,2022.2.4,Win32,59.90534955,,,,,,down,0,0.1043,,0.038888931,0.042592578,1,0,0,0,53,53,10,1,leek,images/br_leek.png,images/cb_leek.png,0,,,,,,,,,,,,,,,,,,,,,,
,,,,,00092,2023-11-02_21h20.06.924,vbt_B2_day4,2022.2.4,Win32,59.90534955,,,,,,down,0,3.5018,,0.038888931,0.042592578,1,0,0,0,54,54,85,1,heilig,images/br_heilig.png,images/cb_heilig.png,0,,,,,,,,,,,,,,,,,,,,,,
,,,,,00092,2023-11-02_21h20.06.924,vbt_B2_day4,2022.2.4,Win32,59.90534955,,,,,,down,0,5.3975,,0.038888931,0.042592578,1,0,0,0,55,55,82,1,muziek,images/br_muziek.png,images/cb_muziek.png,0,,,,,,,,,,,,,,,,,,,,,,
,,,,,00092,2023-11-02_21h20.06.924,vbt_B2_day4,2022.2.4,Win32,59.90534955,,,,,,down,0,3.707,,0.038888931,0.042592578,1,0,0,0,56,56,66,1,lever,images/br_lever.png,images/cb_lever.png,1,lever,,,,,,,,,,,,,,,,,,,,,
,,,,,00092,2023-11-02_21h20.06.924,vbt_B2_day4,2022.2.4,Win32,59.90534955,,,,,,down,0,0.8344,,0.038888931,0.042592578,1,0,0,0,57,57,5,1,blad,images/br_blad.png,images/cb_blad.png,0,,,,,,,,,,,,,,,,,,,,,,
,,,,,00092,2023-11-02_21h20.06.924,vbt_B2_day4,2022.2.4,Win32,59.90534955,,,,,,down,0,0.6176,,0.038888931,0.042592578,1,0,0,0,58,58,73,1,volop,images/br_volop.png,images/cb_volop.png,0,,,,,,,,,,,,,,,,,,,,,,
,,,,,00092,2023-11-02_21h20.06.924,vbt_B2_day4,2022.2.4,Win32,59.90534955,,,,,,down,0,8.0483,,0.038888931,0.042592578,1,0,0,0,59,59,14,1,rijp,images/br_rijp.png,images/cb_rijp.png,0,,,,,,,,,,,,,,,,,,,,,,
,,,,,00092,2023-11-02_21h20.06.924,vbt_B2_day4,2022.2.4,Win32,59.90534955,,,,,,down,0,1.4374,,0.038888931,0.042592578,1,0,0,0,60,60,36,1,vuur,images/br_vuur.png,images/cb_vuur.png,0,,,,,,,,,,,,,,,,,,,,,,
,,,,,00092,2023-11-02_21h20.06.924,vbt_B2_day4,2022.2.4,Win32,59.90534955,,,,,,down,0,2.0245,,0.038888931,0.042592578,1,0,0,0,61,61,33,1,vlek,images/br_vlek.png,images/cb_vlek.png,0,,,,,,,,,,,,,,,,,,,,,,
,,,,,00092,2023-11-02_21h20.06.924,vbt_B2_day4,2022.2.4,Win32,59.90534955,,,,,,down,0,0.8637,,0.038888931,0.042592578,1,0,0,0,62,62,101,1,staren,images/br_staren.png,images/cb_staren.png,0,,,,,,,,,,,,,,,,,,,,,,
,,,,,00092,2023-11-02_21h20.06.924,vbt_B2_day4,2022.2.4,Win32,59.90534955,,,,,,down,0,3.1055,,0.038888931,0.042592578,1,0,0,0,63,63,107,1,maling,images/br_maling.png,images/cb_maling.png,1,maling,,,,,,,,,,,,,,,,,,,,,
,,,,,00092,2023-11-02_21h20.06.924,vbt_B2_day4,2022.2.4,Win32,59.90534955,,,,,,down,0,2.6178,,0.038888931,0.042592578,1,0,0,0,64,64,163,1,schuilen,images/br_schuilen.png,images/cb_schuilen.png,0,,,,,,,,,,,,,,,,,,,,,,
,,,,,00092,2023-11-02_21h20.06.924,vbt_B2_day4,2022.2.4,Win32,59.90534955,,,,,,down,0,3.5018,,0.038888931,0.042592578,1,0,0,0,65,65,187,1,opkijken,images/br_opkijken.png,images/cb_opkijken.png,1,opkijken,,,,,,,,,,,,,,,,,,,,,
,,,,,00092,2023-11-02_21h20.06.924,vbt_B2_day4,2022.2.4,Win32,59.90534955,,,,,,down,0,0.4202,,0.038888931,0.042592578,1,0,0,0,66,66,132,1,grappen,images/br_grappen.png,images/cb_grappen.png,0,,,,,,,,,,,,,,,,,,,,,,
,,,,,00092,2023-11-02_21h20.06.924,vbt_B2_day4,2022.2.4,Win32,59.90534955,,,,,,down,0,0.5514,,0.038888931,0.042592578,1,0,0,0,67,67,9,1,hier,images/br_hier.png,images/cb_hier.png,0,,,,,,,,,,,,,,,,,,,,,,
,,,,,00092,2023-11-02_21h20.06.924,vbt_B2_day4,2022.2.4,Win32,59.90534955,,,,,,down,0,6.0753,,0.038888931,0.042592578,1,0,0,0,68,68,63,1,flirt,images/br_flirt.png,images/cb_flirt.png,0,,,,,,,,,,,,,,,,,,,,,,
,,,,,00092,2023-11-02_21h20.06.924,vbt_B2_day4,2022.2.4,Win32,59.90534955,,,,,,down,0,11.1802,,0.038888931,0.042592578,1,0,0,0,69,69,88,1,boeien,images/br_boeien.png,images/cb_boeien.png,0,,,,,,,,,,,,,,,,,,,,,,
,,,,,00092,2023-11-02_21h20.06.924,vbt_B2_day4,2022.2.4,Win32,59.90534955,,,,,,down,0,0.5268,,0.038888931,0.042592578,1,0,0,0,70,70,151,1,aanzoek,images/br_aanzoek.png,images/cb_aanzoek.png,0,,,,,,,,,,,,,,,,,,,,,,
,,,,,00092,2023-11-02_21h20.06.924,vbt_B2_day4,2022.2.4,Win32,59.90534955,,,,,,down,0,0.8384,,0.038888931,0.042592578,1,0,0,0,71,71,86,1,woning,images/br_woning.png,images/cb_woning.png,0,,,,,,,,,,,,,,,,,,,,,,
,,,,,00092,2023-11-02_21h20.06.924,vbt_B2_day4,2022.2.4,Win32,59.90534955,,,,,,down,0,1.1342,,0.038888931,0.042592578,1,0,0,0,72,72,192,1,schaamte,images/br_schaamte.png,images/cb_schaamte.png,0,,,,,,,,,,,,,,,,,,,,,,
,,,,,00092,2023-11-02_21h20.06.924,vbt_B2_day4,2022.2.4,Win32,59.90534955,,,,,,down,0,11.3293,,0.038888931,0.042592578,1,0,0,0,73,73,159,1,sufferd,images/br_sufferd.png,images/cb_sufferd.png,0,,,,,,,,,,,,,,,,,,,,,,
,,,,,00092,2023-11-02_21h20.06.924,vbt_B2_day4,2022.2.4,Win32,59.90534955,,,,,,down,0,4.613,,0.038888931,0.042592578,1,0,0,0,74,74,76,1,afval,images/br_afval.png,images/cb_afval.png,0,,,,,,,,,,,,,,,,,,,,,,
,,,,,00092,2023-11-02_21h20.06.924,vbt_B2_day4,2022.2.4,Win32,59.90534955,,,,,,down,0,0.7184,,0.038888931,0.042592578,1,0,0,0,75,75,38,1,baai,images/br_baai.png,images/cb_baai.png,0,,,,,,,,,,,,,,,,,,,,,,
,,,,,00092,2023-11-02_21h20.06.924,vbt_B2_day4,2022.2.4,Win32,59.90534955,,,,,,down,0,2.1763,,0.038888931,0.042592578,1,0,0,0,76,76,72,1,strak,images/br_strak.png,images/cb_strak.png,0,,,,,,,,,,,,,,,,,,,,,,
,,,,,00092,2023-11-02_21h20.06.924,vbt_B2_day4,2022.2.4,Win32,59.90534955,,,,,,down,0,2.0013,,0.038888931,0.042592578,1,0,0,0,77,77,65,1,parel,images/br_parel.png,images/cb_parel.png,1,parel,,,,,,,,,,,,,,,,,,,,,
,,,,,00092,2023-11-02_21h20.06.924,vbt_B2_day4,2022.2.4,Win32,59.90534955,,,,,,down,0,9.054,,0.038888931,0.042592578,1,0,0,0,78,78,102,1,legaal,images/br_legaal.png,images/cb_legaal.png,0,,,,,,,,,,,,,,,,,,,,,,
,,,,,00092,2023-11-02_21h20.06.924,vbt_B2_day4,2022.2.4,Win32,59.90534955,,,,,,down,0,0.1904,,0.038888931,0.042592578,1,0,0,0,79,79,84,1,lokken,images/br_lokken.png,images/cb_lokken.png,0,,,,,,,,,,,,,,,,,,,,,,
,,,,,00092,2023-11-02_21h20.06.924,vbt_B2_day4,2022.2.4,Win32,59.90534955,,,,,,down,0,10.4876,,0.038888931,0.042592578,1,0,0,0,80,80,121,1,twijfel,images/br_twijfel.png,images/cb_twijfel.png,0,,,,,,,,,,,,,,,,,,,,,,
,,,,,00092,2023-11-02_21h20.06.924,vbt_B2_day4,2022.2.4,Win32,59.90534955,,,,,,down,0,0.0904,,0.038888931,0.042592578,1,0,0,0,81,81,113,1,koppen,images/br_koppen.png,images/cb_koppen.png,0,,,,,,,,,,,,,,,,,,,,,,
,,,,,00092,2023-11-02_21h20.06.924,vbt_B2_day4,2022.2.4,Win32,59.90534955,,,,,,down,0,1.0677,,0.038888931,0.042592578,1,0,0,0,82,82,30,1,uien,images/br_uien.png,images/cb_uien.png,0,,,,,,,,,,,,,,,,,,,,,,
,,,,,00092,2023-11-02_21h20.06.924,vbt_B2_day4,2022.2.4,Win32,59.90534955,,,,,,down,0,9.5038,,0.022222236,0.057407414,1,0,0,0,83,83,54,1,gebit,images/br_gebit.png,images/cb_gebit.png,0,,,,,,,,,,,,,,,,,,,,,,
,,,,,00092,2023-11-02_21h20.06.924,vbt_B2_day4,2022.2.4,Win32,59.90534955,,,,,,down,0,6.4193,,0.022222236,0.057407414,1,0,0,0,84,84,78,1,leren,images/br_leren.png,images/cb_leren.png,0,,,,,,,,,,,,,,,,,,,,,,
,,,,,00092,2023-11-02_21h20.06.924,vbt_B2_day4,2022.2.4,Win32,59.90534955,,,,,,down,0,16.8967,,0.022222236,0.057407414,1,0,0,0,85,85,122,1,waarvan,images/br_waarvan.png,images/cb_waarvan.png,0,,,,,,,,,,,,,,,,,,,,,,
,,,,,00092,2023-11-02_21h20.06.924,vbt_B2_day4,2022.2.4,Win32,59.90534955,,,,,,down,0,0.0004,,0.022222236,0.057407414,1,0,0,0,86,86,148,1,smullen,images/br_smullen.png,images/cb_smullen.png,0,,,,,,,,,,,,,,,,,,,,,,
,,,,,00092,2023-11-02_21h20.06.924,vbt_B2_day4,2022.2.4,Win32,59.90534955,,,,,,down,0,13.3117,,0.087962963,-0.000925947,1,0,0,0,87,87,179,1,woestijn,images/br_woestijn.png,images/cb_woestijn.png,0,,,,,,,,,,,,,,,,,,,,,,
,,,,,00092,2023-11-02_21h20.06.924,vbt_B2_day4,2022.2.4,Win32,59.90534955,,,,,,down,0,8.6877,,0.087962963,-0.000925947,1,0,0,0,88,88,193,1,weeshuis,images/br_weeshuis.png,images/cb_weeshuis.png,0,,,,,,,,,,,,,,,,,,,,,,
,,,,,00092,2023-11-02_21h20.06.924,vbt_B2_day4,2022.2.4,Win32,59.90534955,,,,,,down,0,11.2917,,0.087962963,-0.000925947,1,0,0,0,89,89,70,1,ijdel,images/br_ijdel.png,images/cb_ijdel.png,0,,,,,,,,,,,,,,,,,,,,,,
,,,,,00092,2023-11-02_21h20.06.924,vbt_B2_day4,2022.2.4,Win32,59.90534955,,,,,,down,0,1.3734,,0.087962963,-0.000925947,1,0,0,0,90,90,164,1,anarchie,images/br_anarchie.png,images/cb_anarchie.png,0,,,,,,,,,,,,,,,,,,,,,,
,,,,,00092,2023-11-02_21h20.06.924,vbt_B2_day4,2022.2.4,Win32,59.90534955,,,,,,down,0,1.8987,,0.087962963,-0.000925947,1,0,0,0,91,91,161,1,attentie,images/br_attentie.png,images/cb_attentie.png,0,,,,,,,,,,,,,,,,,,,,,,
,,,,,00092,2023-11-02_21h20.06.924,vbt_B2_day4,2022.2.4,Win32,59.90534955,,,,,,down,0,1.0387,,0.087962963,-0.000925947,1,0,0,0,92,92,103,1,joggen,images/br_joggen.png,images/cb_joggen.png,0,,,,,,,,,,,,,,,,,,,,,,
,,,,,00092,2023-11-02_21h20.06.924,vbt_B2_day4,2022.2.4,Win32,59.90534955,,,,,,down,0,0.02,,0.087962963,-0.000925947,1,0,0,0,93,93,21,1,mist,images/br_mist.png,images/cb_mist.png,0,,,,,,,,,,,,,,,,,,,,,,
,,,,,00092,2023-11-02_21h20.06.924,vbt_B2_day4,2022.2.4,Win32,59.90534955,,,,,,down,0,1.4358,,0.087962963,-0.000925947,1,0,0,0,94,94,197,1,spanning,images/br_spanning.png,images/cb_spanning.png,0,,,,,,,,,,,,,,,,,,,,,,
,,,,,00092,2023-11-02_21h20.06.924,vbt_B2_day4,2022.2.4,Win32,59.90534955,,,,,,down,0,0.6362,,0.087962963,-0.000925947,1,0,0,0,95,95,195,1,middelen,images/br_middelen.png,images/cb_middelen.png,0,,,,,,,,,,,,,,,,,,,,,,
,,,,,00092,2023-11-02_21h20.06.924,vbt_B2_day4,2022.2.4,Win32,59.90534955,,,,,,down,0,7.6747,,0.087962963,-0.000925947,1,0,0,0,96,96,158,1,innemen,images/br_innemen.png,images/cb_innemen.png,0,,,,,,,,,,,,,,,,,,,,,,
,,,,,00092,2023-11-02_21h20.06.924,vbt_B2_day4,2022.2.4,Win32,59.90534955,,,,,,down,0,1.3896,,0.087962963,-0.000925947,1,0,0,0,97,97,100,1,geduld,images/br_geduld.png,images/cb_geduld.png,0,,,,,,,,,,,,,,,,,,,,,,
,,,,,00092,2023-11-02_21h20.06.924,vbt_B2_day4,2022.2.4,Win32,59.90534955,,,,,,down,0,3.6044,,0.087962963,-0.000925947,1,0,0,0,98,98,172,1,weigeren,images/br_weigeren.png,images/cb_weigeren.png,0,,,,,,,,,,,,,,,,,,,,,,
,,,,,00092,2023-11-02_21h20.06.924,vbt_B2_day4,2022.2.4,Win32,59.90534955,,,,,,down,0,1.5562,,0.087962963,-0.000925947,1,0,0,0,99,99,67,1,zwart,images/br_zwart.png,images/cb_zwart.png,1,zwart,,,,,,,,,,,,,,,,,,,,,
,,,,,00092,2023-11-02_21h20.06.924,vbt_B2_day4,2022.2.4,Win32,59.90534955,,,,,,down,0,1.0958,,0.087962963,-0.000925947,1,0,0,0,100,100,53,1,baron,images/br_baron.png,images/cb_baron.png,0,,,,,,,,,,,,,,,,,,,,,,
,,,,,00092,2023-11-02_21h20.06.924,vbt_B2_day4,2022.2.4,Win32,59.90534955,,,,,,down,0,1.3098,,0.087962963,-0.000925947,1,0,0,0,101,101,22,1,stof,images/br_stof.png,images/cb_stof.png,0,,,,,,,,,,,,,,,,,,,,,,
,,,,,00092,2023-11-02_21h20.06.924,vbt_B2_day4,2022.2.4,Win32,59.90534955,,,,,,down,0,3.1694,,0.087962963,-0.000925947,1,0,0,0,102,102,126,1,kasteel,images/br_kasteel.png,images/cb_kasteel.png,0,,,,,,,,,,,,,,,,,,,,,,
,,,,,00092,2023-11-02_21h20.06.924,vbt_B2_day4,2022.2.4,Win32,59.90534955,,,,,,down,0,1.6613,,0.087962963,-0.000925947,1,0,0,0,103,103,3,1,mand,images/br_mand.png,images/cb_mand.png,0,,,,,,,,,,,,,,,,,,,,,,
,,,,,00092,2023-11-02_21h20.06.924,vbt_B2_day4,2022.2.4,Win32,59.90534955,,,,,,down,0,5.3976,,0.087962963,-0.000925947,1,0,0,0,104,104,117,1,kennis,images/br_kennis.png,images/cb_kennis.png,0,,,,,,,,,,,,,,,,,,,,,,
,,,,,00092,2023-11-02_21h20.06.924,vbt_B2_day4,2022.2.4,Win32,59.90534955,,,,,,down,0,0.3199,,0.087962963,-0.000925947,1,0,0,0,105,105,11,1,mode,images/br_mode.png,images/cb_mode.png,0,,,,,,,,,,,,,,,,,,,,,,
,,,,,00092,2023-11-02_21h20.06.924,vbt_B2_day4,2022.2.4,Win32,59.90534955,,,,,,down,0,4.8448,,0.087962963,-0.000925947,1,0,0,0,106,106,171,1,aarzelen,images/br_aarzelen.png,images/cb_aarzelen.png,0,,,,,,,,,,,,,,,,,,,,,,
,,,,,00092,2023-11-02_21h20.06.924,vbt_B2_day4,2022.2.4,Win32,59.90534955,,,,,,down,0,3.2683,,0.087962963,-0.000925947,1,0,0,0,107,107,129,1,verhaal,images/br_verhaal.png,images/cb_verhaal.png,0,,,,,,,,,,,,,,,,,,,,,,
,,,,,00092,2023-11-02_21h20.06.924,vbt_B2_day4,2022.2.4,Win32,59.90534955,,,,,,down,0,0.1002,,0.087962963,-0.000925947,1,0,0,0,108,108,7,1,geld,images/br_geld.png,images/cb_geld.png,0,,,,,,,,,,,,,,,,,,,,,,
,,,,,00092,2023-11-02_21h20.06.924,vbt_B2_day4,2022.2.4,Win32,59.90534955,,,,,,down,0,0.0505,,0.087962963,-0.000925947,1,0,0,0,109,109,28,1,stal,images/br_stal.png,images/cb_stal.png,0,,,,,,,,,,,,,,,,,,,,,,
,,,,,00092,2023-11-02_21h20.06.924,vbt_B2_day4,2022.2.4,Win32,59.90534955,,,,,,down,0,2.9521,,0.087962963,-0.000925947,1,0,0,0,110,110,32,1,palm,images/br_palm.png,images/cb_palm.png,0,,,,,,,,,,,,,,,,,,,,,,
,,,,,00092,2023-11-02_21h20.06.924,vbt_B2_day4,2022.2.4,Win32,59.90534955,,,,,,down,0,0.2439,,0.087962963,-0.000925947,1,0,0,0,111,111,89,1,slapen,images/br_slapen.png,images/cb_slapen.png,0,,,,,,,,,,,,,,,,,,,,,,
,,,,,00092,2023-11-02_21h20.06.924,vbt_B2_day4,2022.2.4,Win32,59.90534955,,,,,,down,0,0.065,,0.087962963,-0.000925947,1,0,0,0,112,112,114,1,vullen,images/br_vullen.png,images/cb_vullen.png,0,,,,,,,,,,,,,,,,,,,,,,
,,,,,00092,2023-11-02_21h20.06.924,vbt_B2_day4,2022.2.4,Win32,59.90534955,,,,,,down,0,0.8006,,0.087962963,-0.000925947,1,0,0,0,113,113,79,1,nodig,images/br_nodig.png,images/cb_nodig.png,0,,,,,,,,,,,,,,,,,,,,,,
,,,,,00092,2023-11-02_21h20.06.924,vbt_B2_day4,2022.2.4,Win32,59.90534955,,,,,,down,0,3.0854,,0.087962963,-0.000925947,1,0,0,0,114,114,173,1,apparaat,images/br_apparaat.png,images/cb_apparaat.png,0,,,,,,,,,,,,,,,,,,,,,,
,,,,,00092,2023-11-02_21h20.06.924,vbt_B2_day4,2022.2.4,Win32,59.90534955,,,,,,down,0,22.4961,,0.087962963,-0.000925947,1,0,0,0,115,115,26,1,leuk,images/br_leuk.png,images/cb_leuk.png,1,lemk,,,,,,,,,,,,,,,,,,,,,
,,,,,00092,2023-11-02_21h20.06.924,vbt_B2_day4,2022.2.4,Win32,59.90534955,,,,,,down,0,1.8394,,0.087962963,-0.000925947,1,0,0,0,116,116,120,1,klimmen,images/br_klimmen.png,images/cb_klimmen.png,0,,,,,,,,,,,,,,,,,,,,,,
,,,,,00092,2023-11-02_21h20.06.924,vbt_B2_day4,2022.2.4,Win32,59.90534955,,,,,,down,0,6.0134,,0.087962963,-0.000925947,1,0,0,0,117,117,167,1,eenhoorn,images/br_eenhoorn.png,images/cb_eenhoorn.png,0,,,,,,,,,,,,,,,,,,,,,,
,,,,,00092,2023-11-02_21h20.06.924,vbt_B2_day4,2022.2.4,Win32,59.90534955,,,,,,down,0,0.6917,,0.087962963,-0.000925947,1,0,0,0,118,118,90,1,geluid,images/br_geluid.png,images/cb_geluid.png,0,,,,,,,,,,,,,,,,,,,,,,
,,,,,00092,2023-11-02_21h20.06.924,vbt_B2_day4,2022.2.4,Win32,59.90534955,,,,,,down,0,2.3355,,0.087962963,-0.000925947,1,0,0,0,119,119,160,1,daarheen,images/br_daarheen.png,images/cb_daarheen.png,0,,,,,,,,,,,,,,,,,,,,,,
,,,,,00092,2023-11-02_21h20.06.924,vbt_B2_day4,2022.2.4,Win32,59.90534955,,,,,,down,0,0.0359,,0.087962963,-0.000925947,1,0,0,0,120,120,35,1,lust,images/br_lust.png,images/cb_lust.png,0,,,,,,,,,,,,,,,,,,,,,,
,,,,,00092,2023-11-02_21h20.06.924,vbt_B2_day4,2022.2.4,Win32,59.90534955,,,,,,down,0,0.105,,0.087962963,-0.000925947,1,0,0,0,121,121,13,1,kaal,images/br_kaal.png,images/cb_kaal.png,0,,,,,,,,,,,,,,,,,,,,,,
,,,,,00092,2023-11-02_21h20.06.924,vbt_B2_day4,2022.2.4,Win32,59.90534955,,,,,,down,0,2.0679,,0.087962963,-0.000925947,1,0,0,0,122,122,60,1,jasje,images/br_jasje.png,images/cb_jasje.png,0,,,,,,,,,,,,,,,,,,,,,,
,,,,,00092,2023-11-02_21h20.06.924,vbt_B2_day4,2022.2.4,Win32,59.90534955,,,,,,down,0,7.3639,,0.087962963,-0.000925947,1,0,0,0,123,123,182,1,bijkomen,images/br_bijkomen.png,images/cb_bijkomen.png,0,,,,,,,,,,,,,,,,,,,,,,
,,,,,00092,2023-11-02_21h20.06.924,vbt_B2_day4,2022.2.4,Win32,59.90534955,,,,,,down,0,0.1704,,0.087962963,-0.000925947,1,0,0,0,124,124,150,1,gegeven,images/br_gegeven.png,images/cb_gegeven.png,0,,,,,,,,,,,,,,,,,,,,,,
,,,,,00092,2023-11-02_21h20.06.924,vbt_B2_day4,2022.2.4,Win32,59.90534955,,,,,,down,0,1.5691,,0.133333347,0.049999979,1,0,0,0,125,125,6,1,diep,images/br_diep.png,images/cb_diep.png,0,,,,,,,,,,,,,,,,,,,,,,
,,,,,00092,2023-11-02_21h20.06.924,vbt_B2_day4,2022.2.4,Win32,59.90534955,,,,,,down,0,0.719,,0.133333347,0.049999979,1,0,0,0,126,126,95,1,vreten,images/br_vreten.png,images/cb_vreten.png,0,,,,,,,,,,,,,,,,,,,,,,
,,,,,00092,2023-11-02_21h20.06.924,vbt_B2_day4,2022.2.4,Win32,59.90534955,,,,,,down,0,0.0137,,0.133333347,0.049999979,1,0,0,0,127,127,96,1,slagen,images/br_slagen.png,images/cb_slagen.png,0,,,,,,,,,,,,,,,,,,,,,,
,,,,,00092,2023-11-02_21h20.06.924,vbt_B2_day4,2022.2.4,Win32,59.90534955,,,,,,down,0,4.6618,,0.133333347,0.049999979,1,0,0,0,128,128,147,1,komisch,images/br_komisch.png,images/cb_komisch.png,1,komisch,,,,,,,,,,,,,,,,,,,,,
,,,,,00092,2023-11-02_21h20.06.924,vbt_B2_day4,2022.2.4,Win32,59.90534955,,,,,,down,0,1.1191,,0.133333347,0.049999979,1,0,0,0,129,129,170,1,schatten,images/br_schatten.png,images/cb_schatten.png,0,,,,,,,,,,,,,,,,,,,,,,
,,,,,00092,2023-11-02_21h20.06.924,vbt_B2_day4,2022.2.4,Win32,59.90534955,,,,,,down,0,4.4522,,0.133333347,0.049999979,1,0,0,0,130,130,157,1,uitlaat,images/br_uitlaat.png,images/cb_uitlaat.png,0,,,,,,,,,,,,,,,,,,,,,,
,,,,,00092,2023-11-02_21h20.06.924,vbt_B2_day4,2022.2.4,Win32,59.90534955,,,,,,down,0,15.1177,,0.133333347,0.049999979,1,0,0,0,131,131,199,1,beseffen,images/br_beseffen.png,images/cb_beseffen.png,0,,,,,,,,,,,,,,,,,,,,,,
,,,,,00092,2023-11-02_21h20.06.924,vbt_B2_day4,2022.2.4,Win32,59.90534955,,,,,,down,0,1.0008,,0.133333347,0.049999979,1,0,0,0,132,132,97,1,loyaal,images/br_loyaal.png,images/cb_loyaal.png,0,,,,,,,,,,,,,,,,,,,,,,
,,,,,00092,2023-11-02_21h20.06.924,vbt_B2_day4,2022.2.4,Win32,59.90534955,,,,,,down,0,0.372,,0.133333347,0.049999979,1,0,0,0,133,133,57,1,steek,images/br_steek.png,images/cb_steek.png,0,,,,,,,,,,,,,,,,,,,,,,
,,,,,00092,2023-11-02_21h20.06.924,vbt_B2_day4,2022.2.4,Win32,59.90534955,,,,,,down,0,0.4006,,0.133333347,0.049999979,1,0,0,0,134,134,69,1,waken,images/br_waken.png,images/cb_waken.png,0,,,,,,,,,,,,,,,,,,,,,,
,,,,,00092,2023-11-02_21h20.06.924,vbt_B2_day4,2022.2.4,Win32,59.90534955,,,,,,down,0,3.8854,,0.133333347,0.049999979,1,0,0,0,135,135,20,1,site,images/br_site.png,images/cb_site.png,0,,,,,,,,,,,,,,,,,,,,,,
,,,,,00092,2023-11-02_21h20.06.924,vbt_B2_day4,2022.2.4,Win32,59.90534955,,,,,,down,0,6.8825,,0.133333347,0.049999979,1,0,0,0,136,136,185,1,mijnheer,images/br_mijnheer.png,images/cb_mijnheer.png,1,mijnheer,,,,,,,,,,,,,,,,,,,,,
,,,,,00092,2023-11-02_21h20.06.924,vbt_B2_day4,2022.2.4,Win32,59.90534955,,,,,,down,0,0.5342,,0.133333347,0.049999979,1,0,0,0,137,137,77,1,woede,images/br_woede.png,images/cb_woede.png,0,,,,,,,,,,,,,,,,,,,,,,
,,,,,00092,2023-11-02_21h20.06.924,vbt_B2_day4,2022.2.4,Win32,59.90534955,,,,,,down,0,0.3734,,0.133333347,0.049999979,1,0,0,0,138,138,15,1,soda,images/br_soda.png,images/cb_soda.png,0,,,,,,,,,,,,,,,,,,,,,,
,,,,,00092,2023-11-02_21h20.06.924,vbt_B2_day4,2022.2.4,Win32,59.90534955,,,,,,down,0,1.1676,,0.133333347,0.049999979,1,0,0,0,139,139,94,1,oceaan,images/br_oceaan.png,images/cb_oceaan.png,0,,,,,,,,,,,,,,,,,,,,,,
,,,,,00092,2023-11-02_21h20.06.924,vbt_B2_day4,2022.2.4,Win32,59.90534955,,,,,,down,0,16.0909,,0.133333347,0.049999979,1,0,0,0,140,140,25,1,plek,images/br_plek.png,images/cb_plek.png,1,plek,,,,,,,,,,,,,,,,,,,,,
,,,,,00092,2023-11-02_21h20.06.924,vbt_B2_day4,2022.2.4,Win32,59.90534955,,,,,,down,0,0.2396,,0.133333347,0.049999979,1,0,0,0,141,141,12,1,kust,images/br_kust.png,images/cb_kust.png,0,,,,,,,,,,,,,,,,,,,,,,
,,,,,00092,2023-11-02_21h20.06.924,vbt_B2_day4,2022.2.4,Win32,59.90534955,,,,,,down,0,0.1933,,0.133333347,0.049999979,1,0,0,0,142,142,71,1,bever,images/br_bever.png,images/cb_bever.png,0,,,,,,,,,,,,,,,,,,,,,,
,,,,,00092,2023-11-02_21h20.06.924,vbt_B2_day4,2022.2.4,Win32,59.90534955,,,,,,down,0,5.8192,,0.133333347,0.049999979,1,0,0,0,143,143,74,1,graaf,images/br_graaf.png,images/cb_graaf.png,0,,,,,,,,,,,,,,,,,,,,,,
,,,,,00092,2023-11-02_21h20.06.924,vbt_B2_day4,2022.2.4,Win32,59.90534955,,,,,,down,0,8.2487,,0.133333347,0.049999979,1,0,0,0,144,144,134,1,geliefd,images/br_geliefd.png,images/cb_geliefd.png,0,,,,,,,,,,,,,,,,,,,,,,
,,,,,00092,2023-11-02_21h20.06.924,vbt_B2_day4,2022.2.4,Win32,59.90534955,,,,,,down,0,0.2813,,0.133333347,0.049999979,1,0,0,0,145,145,108,1,excuus,images/br_excuus.png,images/cb_excuus.png,0,,,,,,,,,,,,,,,,,,,,,,
,,,,,00092,2023-11-02_21h20.06.924,vbt_B2_day4,2022.2.4,Win32,59.90534955,,,,,,down,0,1.1081,,0.133333347,0.049999979,1,0,0,0,146,146,137,1,trekker,images/br_trekker.png,images/cb_trekker.png,0,,,,,,,,,,,,,,,,,,,,,,
,,,,,00092,2023-11-02_21h20.06.924,vbt_B2_day4,2022.2.4,Win32,59.90534955,,,,,,down,0,1.0161,,0.133333347,0.049999979,1,0,0,0,147,147,175,1,heengaan,images/br_heengaan.png,images/cb_heengaan.png,0,,,,,,,,,,,,,,,,,,,,,,
,,,,,00092,2023-11-02_21h20.06.924,vbt_B2_day4,2022.2.4,Win32,59.90534955,,,,,,down,0,0.8287,,0.133333347,0.049999979,1,0,0,0,148,148,16,1,ziek,images/br_ziek.png,images/cb_ziek.png,0,,,,,,,,,,,,,,,,,,,,,,
,,,,,00092,2023-11-02_21h20.06.924,vbt_B2_day4,2022.2.4,Win32,59.90534955,,,,,,down,0,0.9008,,0.132407436,0.048148155,1,0,0,0,149,149,29,1,baas,images/br_baas.png,images/cb_baas.png,0,,,,,,,,,,,,,,,,,,,,,,
,,,,,00092,2023-11-02_21h20.06.924,vbt_B2_day4,2022.2.4,Win32,59.90534955,,,,,,down,0,5.7049,,0.132407436,0.048148155,1,0,0,0,150,150,80,1,kanjer,images/br_kanjer.png,images/cb_kanjer.png,0,,,,,,,,,,,,,,,,,,,,,,
,,,,,00092,2023-11-02_21h20.06.924,vbt_B2_day4,2022.2.4,Win32,59.90534955,,,,,,down,0,0.3652,,0.132407436,0.048148155,1,0,0,0,151,151,31,1,poes,images/br_poes.png,images/cb_poes.png,0,,,,,,,,,,,,,,,,,,,,,,
,,,,,00092,2023-11-02_21h20.06.924,vbt_B2_day4,2022.2.4,Win32,59.90534955,,,,,,down,0,3.1879,,0.132407436,0.048148155,1,0,0,0,152,152,58,1,tekst,images/br_tekst.png,images/cb_tekst.png,0,,,,,,,,,,,,,,,,,,,,,,
,,,,,00092,2023-11-02_21h20.06.924,vbt_B2_day4,2022.2.4,Win32,59.90534955,,,,,,down,0,0.8711,,0.132407436,0.048148155,1,0,0,0,153,153,2,1,jaar,images/br_jaar.png,images/cb_jaar.png,0,,,,,,,,,,,,,,,,,,,,,,
,,,,,00092,2023-11-02_21h20.06.924,vbt_B2_day4,2022.2.4,Win32,59.90534955,,,,,,down,0,8.1923,,0.132407436,0.048148155,1,0,0,0,154,154,118,1,vinger,images/br_vinger.png,images/cb_vinger.png,0,,,,,,,,,,,,,,,,,,,,,,
,,,,,00092,2023-11-02_21h20.06.924,vbt_B2_day4,2022.2.4,Win32,59.90534955,,,,,,down,0,6.9768,,0.132407436,0.048148155,1,0,0,0,155,155,98,1,kreeft,images/br_kreeft.png,images/cb_kreeft.png,0,,,,,,,,,,,,,,,,,,,,,,
,,,,,00092,2023-11-02_21h20.06.924,vbt_B2_day4,2022.2.4,Win32,59.90534955,,,,,,down,0,2.2512,,0.132407436,0.048148155,1,0,0,0,156,156,135,1,gedicht,images/br_gedicht.png,images/cb_gedicht.png,0,,,,,,,,,,,,,,,,,,,,,,
,,,,,00092,2023-11-02_21h20.06.924,vbt_B2_day4,2022.2.4,Win32,59.90534955,,,,,,down,0,5.6566,,0.132407436,0.048148155,1,0,0,0,157,157,140,1,blijven,images/br_blijven.png,images/cb_blijven.png,0,,,,,,,,,,,,,,,,,,,,,,
,,,,,00092,2023-11-02_21h20.06.924,vbt_B2_day4,2022.2.4,Win32,59.90534955,,,,,,down,0,0.0543,,0.132407436,0.048148155,1,0,0,0,158,158,68,1,schat,images/br_schat.png,images/cb_schat.png,0,,,,,,,,,,,,,,,,,,,,,,
,,,,,00092,2023-11-02_21h20.06.924,vbt_B2_day4,2022.2.4,Win32,59.90534955,,,,,,down,0,9.7314,,0.132407436,0.048148155,1,0,0,0,159,159,189,1,aanraden,images/br_aanraden.png,images/cb_aanraden.png,0,,,,,,,,,,,,,,,,,,,,,,
,,,,,00092,2023-11-02_21h20.06.924,vbt_B2_day4,2022.2.4,Win32,59.90534955,,,,,,down,0,0.6955,,0.132407436,0.048148155,1,0,0,0,160,160,115,1,kleren,images/br_kleren.png,images/cb_kleren.png,0,,,,,,,,,,,,,,,,,,,,,,
,,,,,00092,2023-11-02_21h20.06.924,vbt_B2_day4,2022.2.4,Win32,59.90534955,,,,,,down,0,0.1357,,0.132407436,0.048148155,1,0,0,0,161,161,116,1,besmet,images/br_besmet.png,images/cb_besmet.png,0,,,,,,,,,,,,,,,,,,,,,,
,,,,,00092,2023-11-02_21h20.06.924,vbt_B2_day4,2022.2.4,Win32,59.90534955,,,,,,down,0,0.1551,,0.132407436,0.048148155,1,0,0,0,162,162,49,1,laken,images/br_laken.png,images/cb_laken.png,0,,,,,,,,,,,,,,,,,,,,,,
,,,,,00092,2023-11-02_21h20.06.924,vbt_B2_day4,2022.2.4,Win32,59.90534955,,,,,,down,0,3.9743,,0.132407436,0.048148155,1,0,0,0,163,163,169,1,oprotten,images/br_oprotten.png,images/cb_oprotten.png,0,,,,,,,,,,,,,,,,,,,,,,
,,,,,00092,2023-11-02_21h20.06.924,vbt_B2_day4,2022.2.4,Win32,59.90534955,,,,,,down,0,0.1029,,0.132407436,0.048148155,1,0,0,0,164,164,18,1,blik,images/br_blik.png,images/cb_blik.png,0,,,,,,,,,,,,,,,,,,,,,,
,,,,,00092,2023-11-02_21h20.06.924,vbt_B2_day4,2022.2.4,Win32,59.90534955,,,,,,down,0,9.7714,,0.132407436,0.048148155,1,0,0,0,165,165,176,1,techniek,images/br_techniek.png,images/cb_techniek.png,0,,,,,,,,,,,,,,,,,,,,,,
,,,,,00092,2023-11-02_21h20.06.924,vbt_B2_day4,2022.2.4,Win32,59.90534955,,,,,,down,0,7.8246,,0.132407436,0.048148155,1,0,0,0,166,166,194,1,driemaal,images/br_driemaal.png,images/cb_driemaal.png,0,,,,,,,,,,,,,,,,,,,,,,
,,,,,00092,2023-11-02_21h20.06.924,vbt_B2_day4,2022.2.4,Win32,59.90534955,,,,,,down,0,1.0791,,0.132407436,0.048148155,1,0,0,0,167,167,61,1,groen,images/br_groen.png,images/cb_groen.png,0,,,,,,,,,,,,,,,,,,,,,,
,,,,,00092,2023-11-02_21h20.06.924,vbt_B2_day4,2022.2.4,Win32,59.90534955,,,,,,down,0,2.4847,,0.132407436,0.048148155,1,0,0,0,168,168,112,1,lukken,images/br_lukken.png,images/cb_lukken.png,0,,,,,,,,,,,,,,,,,,,,,,
,,,,,00092,2023-11-02_21h20.06.924,vbt_B2_day4,2022.2.4,Win32,59.90534955,,,,,,down,0,3.3284,,0.132407436,0.048148155,1,0,0,0,169,169,83,1,mening,images/br_mening.png,images/cb_mening.png,0,,,,,,,,,,,,,,,,,,,,,,
,,,,,00092,2023-11-02_21h20.06.924,vbt_B2_day4,2022.2.4,Win32,59.90534955,,,,,,down,0,5.002,,0.132407436,0.048148155,1,0,0,0,170,170,104,1,zweven,images/br_zweven.png,images/cb_zweven.png,1,zwepen,,,,,,,,,,,,,,,,,,,,,
,,,,,00092,2023-11-02_21h20.06.924,vbt_B2_day4,2022.2.4,Win32,59.90534955,,,,,,down,0,5.6272,,0.132407436,0.048148155,1,0,0,0,171,171,143,1,hechten,images/br_hechten.png,images/cb_hechten.png,0,,,,,,,,,,,,,,,,,,,,,,
,,,,,00092,2023-11-02_21h20.06.924,vbt_B2_day4,2022.2.4,Win32,59.90534955,,,,,,down,0,0.0697,,0.132407436,0.048148155,1,0,0,0,172,172,37,1,mijn,images/br_mijn.png,images/cb_mijn.png,0,,,,,,,,,,,,,,,,,,,,,,
,,,,,00092,2023-11-02_21h20.06.924,vbt_B2_day4,2022.2.4,Win32,59.90534955,,,,,,down,0,1.5105,,0.132407436,0.048148155,1,0,0,0,173,173,44,1,flits,images/br_flits.png,images/cb_flits.png,0,,,,,,,,,,,,,,,,,,,,,,
,,,,,00092,2023-11-02_21h20.06.924,vbt_B2_day4,2022.2.4,Win32,59.90534955,,,,,,down,0,5.3525,,0.132407436,0.048148155,1,0,0,0,174,174,124,1,bloeien,images/br_bloeien.png,images/cb_bloeien.png,0,,,,,,,,,,,,,,,,,,,,,,
,,,,,00092,2023-11-02_21h20.06.924,vbt_B2_day4,2022.2.4,Win32,59.90534955,,,,,,down,0,5.669,,0.132407436,0.048148155,1,0,0,0,175,175,123,1,hiervan,images/br_hiervan.png,images/cb_hiervan.png,0,,,,,,,,,,,,,,,,,,,,,,
,,,,,00092,2023-11-02_21h20.06.924,vbt_B2_day4,2022.2.4,Win32,59.90534955,,,,,,down,0,2.0509,,0.132407436,0.048148155,1,0,0,0,176,176,56,1,traag,images/br_traag.png,images/cb_traag.png,0,,,,,,,,,,,,,,,,,,,,,,
,,,,,00092,2023-11-02_21h20.06.924,vbt_B2_day4,2022.2.4,Win32,59.90534955,,,,,,down,0,1.4176,,0.132407436,0.048148155,1,0,0,0,177,177,23,1,zout,images/br_zout.png,images/cb_zout.png,0,,,,,,,,,,,,,,,,,,,,,,
,,,,,00092,2023-11-02_21h20.06.924,vbt_B2_day4,2022.2.4,Win32,59.90534955,,,,,,down,0,2.6181,,0.132407436,0.048148155,1,0,0,0,178,178,136,1,waarbij,images/br_waarbij.png,images/cb_waarbij.png,0,,,,,,,,,,,,,,,,,,,,,,
,,,,,00092,2023-11-02_21h20.06.924,vbt_B2_day4,2022.2.4,Win32,59.90534955,,,,,,down,0,0.6542,,0.132407436,0.048148155,1,0,0,0,179,179,4,1,moes,images/br_moes.png,images/cb_moes.png,0,,,,,,,,,,,,,,,,,,,,,,
,,,,,00092,2023-11-02_21h20.06.924,vbt_B2_day4,2022.2.4,Win32,59.90534955,,,,,,down,0,2.9596,,0.132407436,0.048148155,1,0,0,0,180,180,142,1,snuiven,images/br_snuiven.png,images/cb_snuiven.png,0,,,,,,,,,,,,,,,,,,,,,,
,,,,,00092,2023-11-02_21h20.06.924,vbt_B2_day4,2022.2.4,Win32,59.90534955,,,,,,down,0,5.1857,,0.132407436,0.048148155,1,0,0,0,181,181,130,1,keihard,images/br_keihard.png,images/cb_keihard.png,0,,,,,,,,,,,,,,,,,,,,,,
,,,,,00092,2023-11-02_21h20.06.924,vbt_B2_day4,2022.2.4,Win32,59.90534955,,,,,,down,0,12.5823,,0.132407436,0.048148155,1,0,0,0,182,182,184,1,aandelen,images/br_aandelen.png,images/cb_aandelen.png,1,aandelen,,,,,,,,,,,,,,,,,,,,,
,,,,,00092,2023-11-02_21h20.06.924,vbt_B2_day4,2022.2.4,Win32,59.90534955,,,,,,down,0,1.3894,,0.132407436,0.048148155,1,0,0,0,183,183,64,1,wegen,images/br_wegen.png,images/cb_wegen.png,1,wegen,,,,,,,,,,,,,,,,,,,,,
,,,,,00092,2023-11-02_21h20.06.924,vbt_B2_day4,2022.2.4,Win32,59.90534955,,,,,,down,0,0.7175,,0.132407436,0.048148155,1,0,0,0,184,184,119,1,liefje,images/br_liefje.png,images/cb_liefje.png,0,,,,,,,,,,,,,,,,,,,,,,
,,,,,00092,2023-11-02_21h20.06.924,vbt_B2_day4,2022.2.4,Win32,59.90534955,,,,,,down,0,0.8173,,0.132407436,0.048148155,1,0,0,0,185,185,47,1,kabel,images/br_kabel.png,images/cb_kabel.png,0,,,,,,,,,,,,,,,,,,,,,,
,,,,,00092,2023-11-02_21h20.06.924,vbt_B2_day4,2022.2.4,Win32,59.90534955,,,,,,down,0,0.2848,,0.132407436,0.048148155,1,0,0,0,186,186,138,1,akkoord,images/br_akkoord.png,images/cb_akkoord.png,0,,,,,,,,,,,,,,,,,,,,,,
,,,,,00092,2023-11-02_21h20.06.924,vbt_B2_day4,2022.2.4,Win32,59.90534955,,,,,,down,0,0.3665,,0.132407436,0.048148155,1,0,0,0,187,187,50,1,stoom,images/br_stoom.png,images/cb_stoom.png,0,,,,,,,,,,,,,,,,,,,,,,
,,,,,00092,2023-11-02_21h20.06.924,vbt_B2_day4,2022.2.4,Win32,59.90534955,,,,,,down,0,0.9845,,0.132407436,0.048148155,1,0,0,0,188,188,93,1,waarop,images/br_waarop.png,images/cb_waarop.png,0,,,,,,,,,,,,,,,,,,,,,,
,,,,,00092,2023-11-02_21h20.06.924,vbt_B2_day4,2022.2.4,Win32,59.90534955,,,,,,down,0,0.2287,,0.132407436,0.048148155,1,0,0,0,189,189,19,1,geit,images/br_geit.png,images/cb_geit.png,0,,,,,,,,,,,,,,,,,,,,,,
,,,,,00092,2023-11-02_21h20.06.924,vbt_B2_day4,2022.2.4,Win32,59.90534955,,,,,,down,0,0.3455,,0.132407436,0.048148155,1,0,0,0,190,190,91,1,gezond,images/br_gezond.png,images/cb_gezond.png,0,,,,,,,,,,,,,,,,,,,,,,
,,,,,00092,2023-11-02_21h20.06.924,vbt_B2_day4,2022.2.4,Win32,59.90534955,,,,,,down,0,0.2429,,0.132407436,0.048148155,1,0,0,0,191,191,42,1,bleek,images/br_bleek.png,images/cb_bleek.png,0,,,,,,,,,,,,,,,,,,,,,,
,,,,,00092,2023-11-02_21h20.06.924,vbt_B2_day4,2022.2.4,Win32,59.90534955,,,,,,down,0,4.0557,,0.132407436,0.048148155,1,0,0,0,192,192,133,1,seizoen,images/br_seizoen.png,images/cb_seizoen.png,0,,,,,,,,,,,,,,,,,,,,,,
,,,,,00092,2023-11-02_21h20.06.924,vbt_B2_day4,2022.2.4,Win32,59.90534955,,,,,,down,0,6.4528,,0.132407436,0.048148155,1,0,0,0,193,193,87,1,toeval,images/br_toeval.png,images/cb_toeval.png,0,,,,,,,,,,,,,,,,,,,,,,
,,,,,00092,2023-11-02_21h20.06.924,vbt_B2_day4,2022.2.4,Win32,59.90534955,,,,,,down,0,7.5085,,0.132407436,0.048148155,1,0,0,0,194,194,156,1,rechten,images/br_rechten.png,images/cb_rechten.png,0,,,,,,,,,,,,,,,,,,,,,,
,,,,,00092,2023-11-02_21h20.06.924,vbt_B2_day4,2022.2.4,Win32,59.90534955,,,,,,down,0,3.4374,,0.132407436,0.048148155,1,0,0,0,195,195,131,1,opzicht,images/br_opzicht.png,images/cb_opzicht.png,0,,,,,,,,,,,,,,,,,,,,,,
,,,,,00092,2023-11-02_21h20.06.924,vbt_B2_day4,2022.2.4,Win32,59.90534955,,,,,,down,0,6.2477,,0.132407436,0.048148155,1,0,0,0,196,196,190,1,goedkoop,images/br_goedkoop.png,images/cb_goedkoop.png,0,,,,,,,,,,,,,,,,,,,,,,
,,,,,00092,2023-11-02_21h20.06.924,vbt_B2_day4,2022.2.4,Win32,59.90534955,,,,,,down,0,2.8348,,0.132407436,0.048148155,1,0,0,0,197,197,191,1,opheffen,images/br_opheffen.png,images/cb_opheffen.png,0,,,,,,,,,,,,,,,,,,,,,,
,,,,,00092,2023-11-02_21h20.06.924,vbt_B2_day4,2022.2.4,Win32,59.90534955,,,,,,down,0,0.1378,,0.132407436,0.048148155,1,0,0,0,198,198,1,1,zaal,images/br_zaal.png,images/cb_zaal.png,0,,,,,,,,,,,,,,,,,,,,,,
,,,,,00092,2023-11-02_21h20.06.924,vbt_B2_day4,2022.2.4,Win32,59.90534955,,,,,,down,0,2.6789,,0.132407436,0.048148155,1,0,0,0,199,199,128,1,prikken,images/br_prikken.png,images/cb_prikken.png,0,,,,,,,,,,,,,,,,,,,,,,
,,,,,00092,2023-11-02_21h20.06.924,vbt_B2_day4,2022.2.4,Win32,59.90534955,,,,,,,,,,,,,,,,,,,,,,,,,0.088260289,-0.06888262,1,0,0,,,,,,,,,,,,,,,,
,,,,,00092,2023-11-02_21h20.06.924,vbt_B2_day4,2022.2.4,Win32,59.90534955,,,,,,,,,,,,,,,,,,,,,,,,,,,,,,0.384724187,0.212871287,1,0,0,,,,,,,,,,,
,,,,,00092,2023-11-02_21h20.06.924,vbt_B2_day4,2022.2.4,Win32,59.90534955,,,,,,,,,,,,,,,,,,,,dozijn,images/br_dozijn.png,images/cb_dozijn.png,,don...,,,,,,,,,,,0.384294583,0.213033642,1,0,0,don...,0,0,0,48,1
,,,,,00092,2023-11-02_21h20.06.924,vbt_B2_day4,2022.2.4,Win32,59.90534955,,,,,,,,,,,,,,,,,,,,vreten,images/br_vreten.png,images/cb_vreten.png,,poetsen,,,,,,,,,,,0.1456743,0.105597964,1,0,0,poetsen,0,1,1,11,1
,,,,,00092,2023-11-02_21h20.06.924,vbt_B2_day4,2022.2.4,Win32,59.90534955,,,,,,,,,,,,,,,,,,,,zaalrijk,images/br_zaalrijk.png,images/cb_zaalrijk.png,,zaalr....,,,,,,,,,,,0.1456743,0.105597964,1,0,0,zaalr....,0,2,2,37,1
,,,,,00092,2023-11-02_21h20.06.924,vbt_B2_day4,2022.2.4,Win32,59.90534955,,,,,,,,,,,,,,,,,,,,oceaan,images/br_oceaan.png,images/cb_oceaan.png,,oceaan,,,,,,,,,,,0.1456743,0.105597964,1,0,0,oceaan,0,3,3,10,1
,,,,,00092,2023-11-02_21h20.06.924,vbt_B2_day4,2022.2.4,Win32,59.90534955,,,,,,,,,,,,,,,,,,,,gaaf,images/br_gaaf.png,images/cb_gaaf.png,,gaaf,,,,,,,,,,,0.1456743,0.105597964,1,0,0,gaaf,0,4,4,43,1
,,,,,00092,2023-11-02_21h20.06.924,vbt_B2_day4,2022.2.4,Win32,59.90534955,,,,,,,,,,,,,,,,,,,,gijf,images/br_gijf.png,images/cb_gijf.png,,gijf,,,,,,,,,,,0.1456743,0.105597964,1,0,0,gijf,0,5,5,23,1
,,,,,00092,2023-11-02_21h20.06.924,vbt_B2_day4,2022.2.4,Win32,59.90534955,,,,,,,,,,,,,,,,,,,,tucket,images/br_tucket.png,images/cb_tucket.png,,ticket,,,,,,,,,,,0.013358856,0.008340345,1,0,0,ticket,0,6,6,30,1
,,,,,00092,2023-11-02_21h20.06.924,vbt_B2_day4,2022.2.4,Win32,59.90534955,,,,,,,,,,,,,,,,,,,,opkicht,images/br_opkicht.png,images/cb_opkicht.png,,opk....,,,,,,,,,,,-0.164192802,-0.007492221,1,0,0,opk....,0,7,7,34,1
,,,,,00092,2023-11-02_21h20.06.924,vbt_B2_day4,2022.2.4,Win32,59.90534955,,,,,,,,,,,,,,,,,,,,dalen,images/br_dalen.png,images/cb_dalen.png,,dalen,,,,,,,,,,,-0.164192802,-0.007492221,1,0,0,dalen,0,8,8,46,1
,,,,,00092,2023-11-02_21h20.06.924,vbt_B2_day4,2022.2.4,Win32,59.90534955,,,,,,,,,,,,,,,,,,,,gedicht,images/br_gedicht.png,images/cb_gedicht.png,,gedicht,,,,,,,,,,,-0.164192802,-0.007492221,1,0,0,gedicht,0,9,9,15,1
,,,,,00092,2023-11-02_21h20.06.924,vbt_B2_day4,2022.2.4,Win32,59.90534955,,,,,,,,,,,,,,,,,,,,wagon,images/br_wagon.png,images/cb_wagon.png,,wagon,,,,,,,,,,,-0.049971719,0.020780335,1,0,0,wagon,0,10,10,4,1
,,,,,00092,2023-11-02_21h20.06.924,vbt_B2_day4,2022.2.4,Win32,59.90534955,,,,,,,,,,,,,,,,,,,,gebit,images/br_gebit.png,images/cb_gebit.png,,gebit,,,,,,,,,,,-0.055626246,-0.001837733,1,0,0,gebit,0,11,11,6,1
,,,,,00092,2023-11-02_21h20.06.924,vbt_B2_day4,2022.2.4,Win32,59.90534955,,,,,,,,,,,,,,,,,,,,sulbon,images/br_sulbon.png,images/cb_sulbon.png,,sul...,,,,,,,,,,,0.035976886,0.000424101,1,0,0,sul...,0,12,12,31,1
,,,,,00092,2023-11-02_21h20.06.924,vbt_B2_day4,2022.2.4,Win32,59.90534955,,,,,,,,,,,,,,,,,,,,schenden,images/br_schenden.png,images/cb_schenden.png,,schenden,,,,,,,,,,,0.035976886,0.000424101,1,0,0,schenden,0,13,13,57,1
,,,,,00092,2023-11-02_21h20.06.924,vbt_B2_day4,2022.2.4,Win32,59.90534955,,,,,,,,,,,,,,,,,,,,waarop,images/br_waarop.png,images/cb_waarop.png,,waarop,,,,,,,,,,,0.035976886,0.000424101,1,0,0,waarop,0,14,14,9,1
,,,,,00092,2023-11-02_21h20.06.924,vbt_B2_day4,2022.2.4,Win32,59.90534955,,,,,,,,,,,,,,,,,,,,toevol,images/br_toevol.png,images/cb_toevol.png,,soepel,,,,,,,,,,,0.035976886,0.000424101,1,0,0,soepel,0,15,15,29,1
,,,,,00092,2023-11-02_21h20.06.924,vbt_B2_day4,2022.2.4,Win32,59.90534955,,,,,,,,,,,,,,,,,,,,snee,images/br_snee.png,images/cb_snee.png,,snee,,,,,,,,,,,0.035976886,0.000424101,1,0,0,snee,0,16,16,40,1
,,,,,00092,2023-11-02_21h20.06.924,vbt_B2_day4,2022.2.4,Win32,59.90534955,,,,,,,,,,,,,,,,,,,,weigeren,images/br_weigeren.png,images/cb_weigeren.png,,weigeren,,,,,,,,,,,0.035976886,0.000424101,1,0,0,weigeren,0,17,17,16,1
,,,,,00092,2023-11-02_21h20.06.924,vbt_B2_day4,2022.2.4,Win32,59.90534955,,,,,,,,,,,,,,,,,,,,seizoon,images/br_seizoon.png,images/cb_seizoon.png,,seizoen,,,,,,,,,,,0.035976886,0.000424101,1,0,0,seizoen,0,18,18,33,1
,,,,,00092,2023-11-02_21h20.06.924,vbt_B2_day4,2022.2.4,Win32,59.90534955,,,,,,,,,,,,,,,,,,,,rijp,images/br_rijp.png,images/cb_rijp.png,,ra...,,,,,,,,,,,-0.108778626,0.007209487,1,0,0,ra...,0,19,19,2,1
,,,,,00092,2023-11-02_21h20.06.924,vbt_B2_day4,2022.2.4,Win32,59.90534955,,,,,,,,,,,,,,,,,,,,pittig,images/br_pittig.png,images/cb_pittig.png,,pittig,,,,,,,,,,,-0.040924538,-0.008623157,1,0,0,pittig,0,20,20,51,1
,,,,,00092,2023-11-02_21h20.06.924,vbt_B2_day4,2022.2.4,Win32,59.90534955,,,,,,,,,,,,,,,,,,,,wozing,images/br_wozing.png,images/cb_wozing.png,,woning,,,,,,,,,,,-0.040924538,-0.008623157,1,0,0,woning,0,21,21,28,1
,,,,,00092,2023-11-02_21h20.06.924,vbt_B2_day4,2022.2.4,Win32,59.90534955,,,,,,,,,,,,,,,,,,,,schotel,images/br_schotel.png,images/cb_schotel.png,,schotel,,,,,,,,,,,-0.040924538,-0.008623157,1,0,0,schotel,0,22,22,52,1
,,,,,00092,2023-11-02_21h20.06.924,vbt_B2_day4,2022.2.4,Win32,59.90534955,,,,,,,,,,,,,,,,,,,,bruin,images/br_bruin.png,images/cb_bruin.png,,bezem,,,,,,,,,,,-0.040924538,-0.008623157,1,0,0,bezem,0,23,23,45,1
,,,,,00092,2023-11-02_21h20.06.924,vbt_B2_day4,2022.2.4,Win32,59.90534955,,,,,,,,,,,,,,,,,,,,lappen,images/br_lappen.png,images/cb_lappen.png,,lappen,,,,,,,,,,,-0.040924538,-0.008623157,1,0,0,lappen,0,24,24,49,1
,,,,,00092,2023-11-02_21h20.06.924,vbt_B2_day4,2022.2.4,Win32,59.90534955,,,,,,,,,,,,,,,,,,,,warel,images/br_warel.png,images/cb_warel.png,,warel,,,,,,,,,,,-0.040924538,-0.008623157,1,0,0,warel,0,25,25,26,1
,,,,,00092,2023-11-02_21h20.06.924,vbt_B2_day4,2022.2.4,Win32,59.90534955,,,,,,,,,,,,,,,,,,,,broodje,images/br_broodje.png,images/cb_broodje.png,,broodje,,,,,,,,,,,-0.040924538,-0.008623157,1,0,0,broodje,0,26,26,55,1
,,,,,00092,2023-11-02_21h20.06.924,vbt_B2_day4,2022.2.4,Win32,59.90534955,,,,,,,,,,,,,,,,,,,,steen,images/br_steen.png,images/cb_steen.png,,steen,,,,,,,,,,,-0.040924538,-0.008623157,1,0,0,steen,0,27,27,44,1
,,,,,00092,2023-11-02_21h20.06.924,vbt_B2_day4,2022.2.4,Win32,59.90534955,,,,,,,,,,,,,,,,,,,,soda,images/br_soda.png,images/cb_soda.png,,soda,,,,,,,,,,,-0.040924538,-0.008623157,1,0,0,soda,0,28,28,3,1
,,,,,00092,2023-11-02_21h20.06.924,vbt_B2_day4,2022.2.4,Win32,59.90534955,,,,,,,,,,,,,,,,,,,,apparaat,images/br_apparaat.png,images/cb_apparaat.png,,apparaat,,,,,,,,,,,-0.040924538,-0.008623157,1,0,0,apparaat,0,29,29,17,1
,,,,,00092,2023-11-02_21h20.06.924,vbt_B2_day4,2022.2.4,Win32,59.90534955,,,,,,,,,,,,,,,,,,,,stemming,images/br_stemming.png,images/cb_stemming.png,,stemming,,,,,,,,,,,-0.22639244,0.012864013,1,0,0,stemming,0,30,30,18,1
,,,,,00092,2023-11-02_21h20.06.924,vbt_B2_day4,2022.2.4,Win32,59.90534955,,,,,,,,,,,,,,,,,,,,ezel,images/br_ezel.png,images/cb_ezel.png,,ezel,,,,,,,,,,,-0.22639244,0.012864013,1,0,0,ezel,0,31,31,42,1
,,,,,00092,2023-11-02_21h20.06.924,vbt_B2_day4,2022.2.4,Win32,59.90534955,,,,,,,,,,,,,,,,,,,,midden,images/br_midden.png,images/cb_midden.png,,midden,,,,,,,,,,,-0.22639244,0.012864013,1,0,0,midden,0,32,32,50,1
,,,,,00092,2023-11-02_21h20.06.924,vbt_B2_day4,2022.2.4,Win32,59.90534955,,,,,,,,,,,,,,,,,,,,eerst,images/br_eerst.png,images/cb_eerst.png,,eerst,,,,,,,,,,,-0.22639244,0.012864013,1,0,0,eerst,0,33,33,47,1
,,,,,00092,2023-11-02_21h20.06.924,vbt_B2_day4,2022.2.4,Win32,59.90534955,,,,,,,,,,,,,,,,,,,,strok,images/br_strok.png,images/cb_strok.png,,stoek,,,,,,,,,,,-0.22639244,0.012864013,1,0,0,stoek,0,34,34,25,1
,,,,,00092,2023-11-02_21h20.06.924,vbt_B2_day4,2022.2.4,Win32,59.90534955,,,,,,,,,,,,,,,,,,,,geliefd,images/br_geliefd.png,images/cb_geliefd.png,,gelief,,,,,,,,,,,-0.22639244,0.012864013,1,0,0,gelief,0,35,35,14,1
,,,,,00092,2023-11-02_21h20.06.924,vbt_B2_day4,2022.2.4,Win32,59.90534955,,,,,,,,,,,,,,,,,,,,paalbaak,images/br_paalbaak.png,images/cb_paalbaak.png,,paalbaak,,,,,,,,,,,-0.22639244,0.012864013,1,0,0,paalbaak,0,36,36,39,1
,,,,,00092,2023-11-02_21h20.06.924,vbt_B2_day4,2022.2.4,Win32,59.90534955,,,,,,,,,,,,,,,,,,,,heengaan,images/br_heengaan.png,images/cb_heengaan.png,,heengaan,,,,,,,,,,,-0.22639244,0.012864013,1,0,0,heengaan,0,37,37,19,1
,,,,,00092,2023-11-02_21h20.06.924,vbt_B2_day4,2022.2.4,Win32,59.90534955,,,,,,,,,,,,,,,,,,,,opruimen,images/br_opruimen.png,images/cb_opruimen.png,,opru....,,,,,,,,,,,-0.22639244,0.012864013,1,0,0,opru....,0,38,38,59,1
,,,,,00092,2023-11-02_21h20.06.924,vbt_B2_day4,2022.2.4,Win32,59.90534955,,,,,,,,,,,,,,,,,,,,baron,images/br_baron.png,images/cb_baron.png,,baron,,,,,,,,,,,-0.22639244,0.012864013,1,0,0,baron,0,39,39,5,1
,,,,,00092,2023-11-02_21h20.06.924,vbt_B2_day4,2022.2.4,Win32,59.90534955,,,,,,,,,,,,,,,,,,,,pijnlijk,images/br_pijnlijk.png,images/cb_pijnlijk.png,,,,,,,,,,,,,-0.22639244,0.012864013,1,0,0,,0,40,40,58,1
,,,,,00092,2023-11-02_21h20.06.924,vbt_B2_day4,2022.2.4,Win32,59.90534955,,,,,,,,,,,,,,,,,,,,haza,images/br_haza.png,images/cb_haza.png,,.aza,,,,,,,,,,,-0.22639244,0.012864013,1,0,0,.aza,0,41,41,21,1
,,,,,00092,2023-11-02_21h20.06.924,vbt_B2_day4,2022.2.4,Win32,59.90534955,,,,,,,,,,,,,,,,,,,,bisschap,images/br_bisschap.png,images/cb_bisschap.png,,bisschop,,,,,,,,,,,-0.081637006,-0.000706835,1,0,0,bisschop,0,42,42,36,1
,,,,,00092,2023-11-02_21h20.06.924,vbt_B2_day4,2022.2.4,Win32,59.90534955,,,,,,,,,,,,,,,,,,,,noodzaak,images/br_noodzaak.png,images/cb_noodzaak.png,,noodzaak,,,,,,,,,,,-0.175501855,-0.010884952,1,0,0,noodzaak,0,43,43,56,1
,,,,,00092,2023-11-02_21h20.06.924,vbt_B2_day4,2022.2.4,Win32,59.90534955,,,,,,,,,,,,,,,,,,,,gaan,images/br_gaan.png,images/cb_gaan.png,,gaan,,,,,,,,,,,-0.175501855,-0.010884952,1,0,0,gaan,0,44,44,41,1
,,,,,00092,2023-11-02_21h20.06.924,vbt_B2_day4,2022.2.4,Win32,59.90534955,,,,,,,,,,,,,,,,,,,,kust,images/br_kust.png,images/cb_kust.png,,kust,,,,,,,,,,,-0.175501855,-0.010884952,1,0,0,kust,0,45,45,0,1
,,,,,00092,2023-11-02_21h20.06.924,vbt_B2_day4,2022.2.4,Win32,59.90534955,,,,,,,,,,,,,,,,,,,,flippen,images/br_flippen.png,images/cb_flippen.png,,flippen,,,,,,,,,,,-0.175501855,-0.010884952,1,0,0,flippen,0,46,46,54,1
,,,,,00092,2023-11-02_21h20.06.924,vbt_B2_day4,2022.2.4,Win32,59.90534955,,,,,,,,,,,,,,,,,,,,seizoen,images/br_seizoen.png,images/cb_seizoen.png,,seizoen,,,,,,,,,,,-0.175501855,-0.010884952,1,0,0,seizoen,0,47,47,13,1
,,,,,00092,2023-11-02_21h20.06.924,vbt_B2_day4,2022.2.4,Win32,59.90534955,,,,,,,,,,,,,,,,,,,,zwek,images/br_zwek.png,images/cb_zwek.png,,zwek,,,,,,,,,,,-0.175501855,-0.010884952,1,0,0,zwek,0,48,48,20,1
,,,,,00092,2023-11-02_21h20.06.924,vbt_B2_day4,2022.2.4,Win32,59.90534955,,,,,,,,,,,,,,,,,,,,aanzwaag,images/br_aanzwaag.png,images/cb_aanzwaag.png,,aanz...,,,,,,,,,,,-0.175501855,-0.010884952,1,0,0,aanz...,0,49,49,38,1
,,,,,00092,2023-11-02_21h20.06.924,vbt_B2_day4,2022.2.4,Win32,59.90534955,,,,,,,,,,,,,,,,,,,,grappen,images/br_grappen.png,images/cb_grappen.png,,grappen,,,,,,,,,,,-0.175501855,-0.010884952,1,0,0,grappen,0,50,50,12,1
,,,,,00092,2023-11-02_21h20.06.924,vbt_B2_day4,2022.2.4,Win32,59.90534955,,,,,,,,,,,,,,,,,,,,praat,images/br_praat.png,images/cb_praat.png,,praat,,,,,,,,,,,-0.175501855,-0.010884952,1,0,0,praat,0,51,51,7,1
,,,,,00092,2023-11-02_21h20.06.924,vbt_B2_day4,2022.2.4,Win32,59.90534955,,,,,,,,,,,,,,,,,,,,kaal,images/br_kaal.png,images/cb_kaal.png,,kaal,,,,,,,,,,,-0.175501855,-0.010884952,1,0,0,kaal,0,52,52,1,1
,,,,,00092,2023-11-02_21h20.06.924,vbt_B2_day4,2022.2.4,Win32,59.90534955,,,,,,,,,,,,,,,,,,,,drummer,images/br_drummer.png,images/cb_drummer.png,,..umen,,,,,,,,,,,-0.175501855,-0.010884952,1,0,0,..umen,0,53,53,53,1
,,,,,00092,2023-11-02_21h20.06.924,vbt_B2_day4,2022.2.4,Win32,59.90534955,,,,,,,,,,,,,,,,,,,,geheim,images/br_geheim.png,images/cb_geheim.png,,geheim,,,,,,,,,,,-0.175501855,-0.010884952,1,0,0,geheim,0,54,54,8,1
,,,,,00092,2023-11-02_21h20.06.924,vbt_B2_day4,2022.2.4,Win32,59.90534955,,,,,,,,,,,,,,,,,,,,mekst,images/br_mekst.png,images/cb_mekst.png,,mekst,,,,,,,,,,,-0.175501855,-0.010884952,1,0,0,mekst,0,55,55,27,1
,,,,,00092,2023-11-02_21h20.06.924,vbt_B2_day4,2022.2.4,Win32,59.90534955,,,,,,,,,,,,,,,,,,,,getucht,images/br_getucht.png,images/cb_getucht.png,,gezu....,,,,,,,,,,,-0.175501855,-0.010884952,1,0,0,gezu....,0,56,56,35,1
,,,,,00092,2023-11-02_21h20.06.924,vbt_B2_day4,2022.2.4,Win32,59.90534955,,,,,,,,,,,,,,,,,,,,drooien,images/br_drooien.png,images/cb_drooien.png,,bloeien,,,,,,,,,,,0.045024066,0.051314686,1,0,0,bloeien,0,57,57,32,1
,,,,,00092,2023-11-02_21h20.06.924,vbt_B2_day4,2022.2.4,Win32,59.90534955,,,,,,,,,,,,,,,,,,,,gebog,images/br_gebog.png,images/cb_gebog.png,,gebog,,,,,,,,,,,0.045024066,0.051314686,1,0,0,gebog,0,58,58,24,1
,,,,,00092,2023-11-02_21h20.06.924,vbt_B2_day4,2022.2.4,Win32,59.90534955,,,,,,,,,,,,,,,,,,,,fran,images/br_fran.png,images/cb_fran.png,,jrad,,,,,,,,,,,0.045024066,0.051314686,1,0,0,jrad,0,59,59,22,1
,,,,,00092,2023-11-02_21h20.06.924,vbt_B2_day4,2022.2.4,Win32,59.90534955,,,,,,,,,,,,,,,,,,,,,,,,,,,,,,,,,,,,,,,,,,,,,
