welcome_mouse.x,welcome_mouse.y,welcome_mouse.leftButton,welcome_mouse.midButton,welcome_mouse.rightButton,"ID",date,expName,psychopyVersion,OS,frameRate,trainInstr_mouse.x,trainInstr_mouse.y,trainInstr_mouse.leftButton,trainInstr_mouse.midButton,trainInstr_mouse.rightButton,translation_key.keys,translation_key.corr,translation_key.rt,word_rsp.text,trWrd_mouse.x,trWrd_mouse.y,trWrd_mouse.leftButton,trWrd_mouse.midButton,trWrd_mouse.rightButton,train_loop.thisRepN,train_loop.thisTrialN,train_loop.thisN,train_loop.thisIndex,train_loop.ran,nlWrd,brWrd,cbWrd,test,testResp,mouse.x,mouse.y,mouse.leftButton,mouse.midButton,mouse.rightButton,testInstr_mouse.x,testInstr_mouse.y,testInstr_mouse.leftButton,testInstr_mouse.midButton,testInstr_mouse.rightButton,test_mouse.x,test_mouse.y,test_mouse.leftButton,test_mouse.midButton,test_mouse.rightButton,test_response.text,test_loop.thisRepN,test_loop.thisTrialN,test_loop.thisN,test_loop.thisIndex,test_loop.ran
-0.037192383,-0.162988281,1,0,0,00035,2023-09-28_12h24.11.361,vbt_B2_day4,2022.2.4,MacIntel,59.87665409,,,,,,,,,,,,,,,,,,,,,,,,,,,,,,,,,,,,,,,,,,,,,
,,,,,00035,2023-09-28_12h24.11.361,vbt_B2_day4,2022.2.4,MacIntel,59.87665409,-0.112124023,-0.333867187,1,0,0,,,,,,,,,,,,,,,,,,,,,,,,,,,,,,,,,,,,,,,,
,,,,,00035,2023-09-28_12h24.11.361,vbt_B2_day4,2022.2.4,MacIntel,59.87665409,,,,,,down,0,1.3176,,-0.112124023,-0.035551758,1,0,0,0,0,0,173,1,apparaat,images/br_apparaat.png,images/cb_apparaat.png,0,,,,,,,,,,,,,,,,,,,,,,
,,,,,00035,2023-09-28_12h24.11.361,vbt_B2_day4,2022.2.4,MacIntel,59.87665409,,,,,,down,0,0.2848,,-0.045214844,-0.00371582,1,0,0,0,1,1,47,1,kabel,images/br_kabel.png,images/cb_kabel.png,0,,,,,,,,,,,,,,,,,,,,,,
,,,,,00035,2023-09-28_12h24.11.361,vbt_B2_day4,2022.2.4,MacIntel,59.87665409,,,,,,down,0,2.5731,,0.329604492,-0.084858398,1,0,0,0,2,2,97,1,loyaal,images/br_loyaal.png,images/cb_loyaal.png,0,,,,,,,,,,,,,,,,,,,,,,
,,,,,00035,2023-09-28_12h24.11.361,vbt_B2_day4,2022.2.4,MacIntel,59.87665409,,,,,,down,0,0.7013,,0.42206543,-0.068095703,1,0,0,0,3,3,178,1,huisdier,images/br_huisdier.png,images/cb_huisdier.png,0,,,,,,,,,,,,,,,,,,,,,,
,,,,,00035,2023-09-28_12h24.11.361,vbt_B2_day4,2022.2.4,MacIntel,59.87665409,,,,,,down,0,0.7691,,0.422504883,-0.070258789,1,0,0,0,4,4,37,1,mijn,images/br_mijn.png,images/cb_mijn.png,0,,,,,,,,,,,,,,,,,,,,,,
,,,,,00035,2023-09-28_12h24.11.361,vbt_B2_day4,2022.2.4,MacIntel,59.87665409,,,,,,down,0,0.2345,,0.423227539,-0.044897461,1,0,0,0,5,5,191,1,opheffen,images/br_opheffen.png,images/cb_opheffen.png,0,,,,,,,,,,,,,,,,,,,,,,
,,,,,00035,2023-09-28_12h24.11.361,vbt_B2_day4,2022.2.4,MacIntel,59.87665409,,,,,,down,0,9.1968,,0.423227539,-0.044897461,1,0,0,0,6,6,170,1,schatten,images/br_schatten.png,images/cb_schatten.png,0,,,,,,,,,,,,,,,,,,,,,,
,,,,,00035,2023-09-28_12h24.11.361,vbt_B2_day4,2022.2.4,MacIntel,59.87665409,,,,,,down,0,3.9426,,0.423227539,-0.044897461,1,0,0,0,7,7,96,1,slagen,images/br_slagen.png,images/cb_slagen.png,0,,,,,,,,,,,,,,,,,,,,,,
,,,,,00035,2023-09-28_12h24.11.361,vbt_B2_day4,2022.2.4,MacIntel,59.87665409,,,,,,down,0,0.3606,,0.423227539,-0.044897461,1,0,0,0,8,8,176,1,techniek,images/br_techniek.png,images/cb_techniek.png,0,,,,,,,,,,,,,,,,,,,,,,
,,,,,00035,2023-09-28_12h24.11.361,vbt_B2_day4,2022.2.4,MacIntel,59.87665409,,,,,,down,0,7.3496,,0.428496094,-0.050571289,1,0,0,0,9,9,157,1,uitlaat,images/br_uitlaat.png,images/cb_uitlaat.png,0,,,,,,,,,,,,,,,,,,,,,,
,,,,,00035,2023-09-28_12h24.11.361,vbt_B2_day4,2022.2.4,MacIntel,59.87665409,,,,,,down,0,1.0289,,0.428496094,-0.050571289,1,0,0,0,10,10,0,1,slak,images/br_slak.png,images/cb_slak.png,0,,,,,,,,,,,,,,,,,,,,,,
,,,,,00035,2023-09-28_12h24.11.361,vbt_B2_day4,2022.2.4,MacIntel,59.87665409,,,,,,down,0,1.3365,,0.428496094,-0.050571289,1,0,0,0,11,11,137,1,trekker,images/br_trekker.png,images/cb_trekker.png,0,,,,,,,,,,,,,,,,,,,,,,
,,,,,00035,2023-09-28_12h24.11.361,vbt_B2_day4,2022.2.4,MacIntel,59.87665409,,,,,,down,0,5.0801,,0.428496094,-0.050571289,1,0,0,0,12,12,118,1,vinger,images/br_vinger.png,images/cb_vinger.png,0,,,,,,,,,,,,,,,,,,,,,,
,,,,,00035,2023-09-28_12h24.11.361,vbt_B2_day4,2022.2.4,MacIntel,59.87665409,,,,,,down,0,4.7612,,0.405751953,-0.010039062,1,0,0,0,13,13,146,1,opkomen,images/br_opkomen.png,images/cb_opkomen.png,1,opkomen,,,,,,,,,,,,,,,,,,,,,
,,,,,00035,2023-09-28_12h24.11.361,vbt_B2_day4,2022.2.4,MacIntel,59.87665409,,,,,,down,0,5.1874,,0.405751953,-0.010039062,1,0,0,0,14,14,122,1,waarvan,images/br_waarvan.png,images/cb_waarvan.png,0,,,,,,,,,,,,,,,,,,,,,,
,,,,,00035,2023-09-28_12h24.11.361,vbt_B2_day4,2022.2.4,MacIntel,59.87665409,,,,,,down,0,6.9903,,0.405751953,-0.010039062,1,0,0,0,15,15,11,1,mode,images/br_mode.png,images/cb_mode.png,0,,,,,,,,,,,,,,,,,,,,,,
,,,,,00035,2023-09-28_12h24.11.361,vbt_B2_day4,2022.2.4,MacIntel,59.87665409,,,,,,down,0,3.1063,,0.405751953,-0.010039062,1,0,0,0,16,16,62,1,knaap,images/br_knaap.png,images/cb_knaap.png,0,,,,,,,,,,,,,,,,,,,,,,
,,,,,00035,2023-09-28_12h24.11.361,vbt_B2_day4,2022.2.4,MacIntel,59.87665409,,,,,,down,0,1.1623,,0.405751953,-0.010039062,1,0,0,0,17,17,38,1,baai,images/br_baai.png,images/cb_baai.png,0,,,,,,,,,,,,,,,,,,,,,,
,,,,,00035,2023-09-28_12h24.11.361,vbt_B2_day4,2022.2.4,MacIntel,59.87665409,,,,,,down,0,1.6707,,0.405751953,-0.010039062,1,0,0,0,18,18,53,1,baron,images/br_baron.png,images/cb_baron.png,0,,,,,,,,,,,,,,,,,,,,,,
,,,,,00035,2023-09-28_12h24.11.361,vbt_B2_day4,2022.2.4,MacIntel,59.87665409,,,,,,down,0,1.2409,,0.405751953,-0.010039062,1,0,0,0,19,19,113,1,koppen,images/br_koppen.png,images/cb_koppen.png,0,,,,,,,,,,,,,,,,,,,,,,
,,,,,00035,2023-09-28_12h24.11.361,vbt_B2_day4,2022.2.4,MacIntel,59.87665409,,,,,,down,0,5.0951,,0.405751953,-0.010039062,1,0,0,0,20,20,1,1,zaal,images/br_zaal.png,images/cb_zaal.png,0,,,,,,,,,,,,,,,,,,,,,,
,,,,,00035,2023-09-28_12h24.11.361,vbt_B2_day4,2022.2.4,MacIntel,59.87665409,,,,,,down,0,0.1768,,0.405751953,-0.010039062,1,0,0,0,21,21,103,1,joggen,images/br_joggen.png,images/cb_joggen.png,0,,,,,,,,,,,,,,,,,,,,,,
,,,,,00035,2023-09-28_12h24.11.361,vbt_B2_day4,2022.2.4,MacIntel,59.87665409,,,,,,down,0,2.0079,,0.405751953,-0.010039062,1,0,0,0,22,22,89,1,slapen,images/br_slapen.png,images/cb_slapen.png,0,,,,,,,,,,,,,,,,,,,,,,
,,,,,00035,2023-09-28_12h24.11.361,vbt_B2_day4,2022.2.4,MacIntel,59.87665409,,,,,,down,0,3.8013,,0.405751953,-0.010039062,1,0,0,0,23,23,15,1,soda,images/br_soda.png,images/cb_soda.png,0,,,,,,,,,,,,,,,,,,,,,,
,,,,,00035,2023-09-28_12h24.11.361,vbt_B2_day4,2022.2.4,MacIntel,59.87665409,,,,,,down,0,0.6141,,0.405751953,-0.010039062,1,0,0,0,24,24,76,1,afval,images/br_afval.png,images/cb_afval.png,0,,,,,,,,,,,,,,,,,,,,,,
,,,,,00035,2023-09-28_12h24.11.361,vbt_B2_day4,2022.2.4,MacIntel,59.87665409,,,,,,down,0,2.6487,,0.405751953,-0.010039062,1,0,0,0,25,25,94,1,oceaan,images/br_oceaan.png,images/cb_oceaan.png,0,,,,,,,,,,,,,,,,,,,,,,
,,,,,00035,2023-09-28_12h24.11.361,vbt_B2_day4,2022.2.4,MacIntel,59.87665409,,,,,,down,0,0.0006,,0.405751953,-0.010039062,1,0,0,0,26,26,121,1,twijfel,images/br_twijfel.png,images/cb_twijfel.png,0,,,,,,,,,,,,,,,,,,,,,,
,,,,,00035,2023-09-28_12h24.11.361,vbt_B2_day4,2022.2.4,MacIntel,59.87665409,,,,,,down,0,1.1269,,0.404643555,-0.010039062,1,0,0,0,27,27,172,1,weigeren,images/br_weigeren.png,images/cb_weigeren.png,0,,,,,,,,,,,,,,,,,,,,,,
,,,,,00035,2023-09-28_12h24.11.361,vbt_B2_day4,2022.2.4,MacIntel,59.87665409,,,,,,down,0,0.2346,,0.404643555,-0.010039062,1,0,0,0,28,28,155,1,gerucht,images/br_gerucht.png,images/cb_gerucht.png,0,,,,,,,,,,,,,,,,,,,,,,
,,,,,00035,2023-09-28_12h24.11.361,vbt_B2_day4,2022.2.4,MacIntel,59.87665409,,,,,,down,0,6.9992,,0.404643555,-0.010039062,1,0,0,0,29,29,40,1,schep,images/br_schep.png,images/cb_schep.png,0,,,,,,,,,,,,,,,,,,,,,,
,,,,,00035,2023-09-28_12h24.11.361,vbt_B2_day4,2022.2.4,MacIntel,59.87665409,,,,,,down,0,14.2745,,0.603227539,0.090976562,1,0,0,0,30,30,64,1,wegen,images/br_wegen.png,images/cb_wegen.png,1,wegen,,,,,,,,,,,,,,,,,,,,,
,,,,,00035,2023-09-28_12h24.11.361,vbt_B2_day4,2022.2.4,MacIntel,59.87665409,,,,,,down,0,0.3211,,0.603227539,0.090976562,1,0,0,0,31,31,13,1,kaal,images/br_kaal.png,images/cb_kaal.png,0,,,,,,,,,,,,,,,,,,,,,,
,,,,,00035,2023-09-28_12h24.11.361,vbt_B2_day4,2022.2.4,MacIntel,59.87665409,,,,,,down,0,2.7883,,0.392172852,0.083100586,1,0,0,0,32,32,5,1,blad,images/br_blad.png,images/cb_blad.png,0,,,,,,,,,,,,,,,,,,,,,,
,,,,,00035,2023-09-28_12h24.11.361,vbt_B2_day4,2022.2.4,MacIntel,59.87665409,,,,,,down,0,2.3557,,0.392172852,0.083100586,1,0,0,0,33,33,17,1,taal,images/br_taal.png,images/cb_taal.png,0,,,,,,,,,,,,,,,,,,,,,,
,,,,,00035,2023-09-28_12h24.11.361,vbt_B2_day4,2022.2.4,MacIntel,59.87665409,,,,,,down,0,4.2356,,0.392172852,0.083100586,1,0,0,0,34,34,154,1,aflopen,images/br_aflopen.png,images/cb_aflopen.png,0,,,,,,,,,,,,,,,,,,,,,,
,,,,,00035,2023-09-28_12h24.11.361,vbt_B2_day4,2022.2.4,MacIntel,59.87665409,,,,,,down,0,0.4519,,0.392172852,0.083100586,1,0,0,0,35,35,142,1,snuiven,images/br_snuiven.png,images/cb_snuiven.png,0,,,,,,,,,,,,,,,,,,,,,,
,,,,,00035,2023-09-28_12h24.11.361,vbt_B2_day4,2022.2.4,MacIntel,59.87665409,,,,,,down,0,0.0841,,0.392172852,0.083100586,1,0,0,0,36,36,31,1,poes,images/br_poes.png,images/cb_poes.png,0,,,,,,,,,,,,,,,,,,,,,,
,,,,,00035,2023-09-28_12h24.11.361,vbt_B2_day4,2022.2.4,MacIntel,59.87665409,,,,,,down,0,3.7171,,0.392172852,0.083100586,1,0,0,0,37,37,55,1,praat,images/br_praat.png,images/cb_praat.png,0,,,,,,,,,,,,,,,,,,,,,,
,,,,,00035,2023-09-28_12h24.11.361,vbt_B2_day4,2022.2.4,MacIntel,59.87665409,,,,,,down,0,10.7562,,0.392172852,0.083100586,1,0,0,0,38,38,138,1,akkoord,images/br_akkoord.png,images/cb_akkoord.png,0,,,,,,,,,,,,,,,,,,,,,,
,,,,,00035,2023-09-28_12h24.11.361,vbt_B2_day4,2022.2.4,MacIntel,59.87665409,,,,,,down,0,0.6188,,0.392172852,0.083100586,1,0,0,0,39,39,50,1,stoom,images/br_stoom.png,images/cb_stoom.png,0,,,,,,,,,,,,,,,,,,,,,,
,,,,,00035,2023-09-28_12h24.11.361,vbt_B2_day4,2022.2.4,MacIntel,59.87665409,,,,,,down,0,0.8274,,0.392172852,0.083100586,1,0,0,0,40,40,196,1,nakijken,images/br_nakijken.png,images/cb_nakijken.png,0,,,,,,,,,,,,,,,,,,,,,,
,,,,,00035,2023-09-28_12h24.11.361,vbt_B2_day4,2022.2.4,MacIntel,59.87665409,,,,,,down,0,0.318,,0.392172852,0.083100586,1,0,0,0,41,41,75,1,snoep,images/br_snoep.png,images/cb_snoep.png,0,,,,,,,,,,,,,,,,,,,,,,
,,,,,00035,2023-09-28_12h24.11.361,vbt_B2_day4,2022.2.4,MacIntel,59.87665409,,,,,,down,0,1.5374,,0.392172852,0.083100586,1,0,0,0,42,42,109,1,totaal,images/br_totaal.png,images/cb_totaal.png,0,,,,,,,,,,,,,,,,,,,,,,
,,,,,00035,2023-09-28_12h24.11.361,vbt_B2_day4,2022.2.4,MacIntel,59.87665409,,,,,,down,0,2.0125,,0.392172852,0.087260742,1,0,0,0,43,43,41,1,maken,images/br_maken.png,images/cb_maken.png,0,,,,,,,,,,,,,,,,,,,,,,
,,,,,00035,2023-09-28_12h24.11.361,vbt_B2_day4,2022.2.4,MacIntel,59.87665409,,,,,,down,0,4.2098,,0.392172852,0.087260742,1,0,0,0,44,44,93,1,waarop,images/br_waarop.png,images/cb_waarop.png,0,,,,,,,,,,,,,,,,,,,,,,
,,,,,00035,2023-09-28_12h24.11.361,vbt_B2_day4,2022.2.4,MacIntel,59.87665409,,,,,,down,0,1.2868,,0.392172852,0.087260742,1,0,0,0,45,45,88,1,boeien,images/br_boeien.png,images/cb_boeien.png,0,,,,,,,,,,,,,,,,,,,,,,
,,,,,00035,2023-09-28_12h24.11.361,vbt_B2_day4,2022.2.4,MacIntel,59.87665409,,,,,,down,0,2.4392,,0.392172852,0.087260742,1,0,0,0,46,46,136,1,waarbij,images/br_waarbij.png,images/cb_waarbij.png,0,,,,,,,,,,,,,,,,,,,,,,
,,,,,00035,2023-09-28_12h24.11.361,vbt_B2_day4,2022.2.4,MacIntel,59.87665409,,,,,,down,0,5.4518,,0.392172852,0.087260742,1,0,0,0,47,47,168,1,bisschop,images/br_bisschop.png,images/cb_bisschop.png,0,,,,,,,,,,,,,,,,,,,,,,
,,,,,00035,2023-09-28_12h24.11.361,vbt_B2_day4,2022.2.4,MacIntel,59.87665409,,,,,,down,0,0.9028,,0.392172852,0.087260742,1,0,0,0,48,48,181,1,toegeven,images/br_toegeven.png,images/cb_toegeven.png,0,,,,,,,,,,,,,,,,,,,,,,
,,,,,00035,2023-09-28_12h24.11.361,vbt_B2_day4,2022.2.4,MacIntel,59.87665409,,,,,,down,0,0.7842,,0.392172852,0.087260742,1,0,0,0,49,49,162,1,uitdelen,images/br_uitdelen.png,images/cb_uitdelen.png,0,,,,,,,,,,,,,,,,,,,,,,
,,,,,00035,2023-09-28_12h24.11.361,vbt_B2_day4,2022.2.4,MacIntel,59.87665409,,,,,,down,0,1.2348,,0.394384766,0.092583008,1,0,0,0,50,50,74,1,graaf,images/br_graaf.png,images/cb_graaf.png,0,,,,,,,,,,,,,,,,,,,,,,
,,,,,00035,2023-09-28_12h24.11.361,vbt_B2_day4,2022.2.4,MacIntel,59.87665409,,,,,,down,0,0.2615,,0.394384766,0.092583008,1,0,0,0,51,51,81,1,dubbel,images/br_dubbel.png,images/cb_dubbel.png,0,,,,,,,,,,,,,,,,,,,,,,
,,,,,00035,2023-09-28_12h24.11.361,vbt_B2_day4,2022.2.4,MacIntel,59.87665409,,,,,,down,0,0.8447,,0.394384766,0.092583008,1,0,0,0,52,52,2,1,jaar,images/br_jaar.png,images/cb_jaar.png,0,,,,,,,,,,,,,,,,,,,,,,
,,,,,00035,2023-09-28_12h24.11.361,vbt_B2_day4,2022.2.4,MacIntel,59.87665409,,,,,,down,0,0.4767,,0.394384766,0.092583008,1,0,0,0,53,53,189,1,aanraden,images/br_aanraden.png,images/cb_aanraden.png,0,,,,,,,,,,,,,,,,,,,,,,
,,,,,00035,2023-09-28_12h24.11.361,vbt_B2_day4,2022.2.4,MacIntel,59.87665409,,,,,,down,0,4.2934,,0.394384766,0.092583008,1,0,0,0,54,54,8,1,knie,images/br_knie.png,images/cb_knie.png,0,,,,,,,,,,,,,,,,,,,,,,
,,,,,00035,2023-09-28_12h24.11.361,vbt_B2_day4,2022.2.4,MacIntel,59.87665409,,,,,,down,0,3.314,,0.394384766,0.092583008,1,0,0,0,55,55,65,1,parel,images/br_parel.png,images/cb_parel.png,1,parel,,,,,,,,,,,,,,,,,,,,,
,,,,,00035,2023-09-28_12h24.11.361,vbt_B2_day4,2022.2.4,MacIntel,59.87665409,,,,,,down,0,0.9289,,0.394384766,0.092583008,1,0,0,0,56,56,179,1,woestijn,images/br_woestijn.png,images/cb_woestijn.png,0,,,,,,,,,,,,,,,,,,,,,,
,,,,,00035,2023-09-28_12h24.11.361,vbt_B2_day4,2022.2.4,MacIntel,59.87665409,,,,,,down,0,5.997,,0.192675781,-0.105864258,1,0,0,0,57,57,29,1,baas,images/br_baas.png,images/cb_baas.png,0,,,,,,,,,,,,,,,,,,,,,,
,,,,,00035,2023-09-28_12h24.11.361,vbt_B2_day4,2022.2.4,MacIntel,59.87665409,,,,,,down,0,7.4423,,0.192675781,-0.105864258,1,0,0,0,58,58,80,1,kanjer,images/br_kanjer.png,images/cb_kanjer.png,0,,,,,,,,,,,,,,,,,,,,,,
,,,,,00035,2023-09-28_12h24.11.361,vbt_B2_day4,2022.2.4,MacIntel,59.87665409,,,,,,down,0,1.4209,,0.192675781,-0.105864258,1,0,0,0,59,59,26,1,leuk,images/br_leuk.png,images/cb_leuk.png,1,leuk,,,,,,,,,,,,,,,,,,,,,
,,,,,00035,2023-09-28_12h24.11.361,vbt_B2_day4,2022.2.4,MacIntel,59.87665409,,,,,,down,0,11.1748,,0.27581543,-0.092094727,1,0,0,0,60,60,107,1,maling,images/br_maling.png,images/cb_maling.png,1,maling,,,,,,,,,,,,,,,,,,,,,
,,,,,00035,2023-09-28_12h24.11.361,vbt_B2_day4,2022.2.4,MacIntel,59.87665409,,,,,,down,0,6.7665,,0.319287109,-0.027875977,1,0,0,0,61,61,184,1,aandelen,images/br_aandelen.png,images/cb_aandelen.png,1,aandelen,,,,,,,,,,,,,,,,,,,,,
,,,,,00035,2023-09-28_12h24.11.361,vbt_B2_day4,2022.2.4,MacIntel,59.87665409,,,,,,down,0,0.6187,,0.319287109,-0.027875977,1,0,0,0,62,62,18,1,blik,images/br_blik.png,images/cb_blik.png,0,,,,,,,,,,,,,,,,,,,,,,
,,,,,00035,2023-09-28_12h24.11.361,vbt_B2_day4,2022.2.4,MacIntel,59.87665409,,,,,,down,0,1.4877,,0.328354492,0.009077148,1,0,0,0,63,63,165,1,feestdag,images/br_feestdag.png,images/cb_feestdag.png,0,,,,,,,,,,,,,,,,,,,,,,
,,,,,00035,2023-09-28_12h24.11.361,vbt_B2_day4,2022.2.4,MacIntel,59.87665409,,,,,,down,0,0.2016,,0.328354492,0.009077148,1,0,0,0,64,64,132,1,grappen,images/br_grappen.png,images/cb_grappen.png,0,,,,,,,,,,,,,,,,,,,,,,
,,,,,00035,2023-09-28_12h24.11.361,vbt_B2_day4,2022.2.4,MacIntel,59.87665409,,,,,,down,0,0.1313,,0.328354492,0.009077148,1,0,0,0,65,65,85,1,heilig,images/br_heilig.png,images/cb_heilig.png,0,,,,,,,,,,,,,,,,,,,,,,
,,,,,00035,2023-09-28_12h24.11.361,vbt_B2_day4,2022.2.4,MacIntel,59.87665409,,,,,,down,0,2.1291,,0.328354492,0.009077148,1,0,0,0,66,66,91,1,gezond,images/br_gezond.png,images/cb_gezond.png,0,,,,,,,,,,,,,,,,,,,,,,
,,,,,00035,2023-09-28_12h24.11.361,vbt_B2_day4,2022.2.4,MacIntel,59.87665409,,,,,,down,0,3.634,,0.328354492,0.009077148,1,0,0,0,67,67,34,1,vorm,images/br_vorm.png,images/cb_vorm.png,0,,,,,,,,,,,,,,,,,,,,,,
,,,,,00035,2023-09-28_12h24.11.361,vbt_B2_day4,2022.2.4,MacIntel,59.87665409,,,,,,down,0,4.7703,,0.328354492,0.009077148,1,0,0,0,68,68,158,1,innemen,images/br_innemen.png,images/cb_innemen.png,0,,,,,,,,,,,,,,,,,,,,,,
,,,,,00035,2023-09-28_12h24.11.361,vbt_B2_day4,2022.2.4,MacIntel,59.87665409,,,,,,down,0,0.602,,0.328354492,0.009077148,1,0,0,0,69,69,199,1,beseffen,images/br_beseffen.png,images/cb_beseffen.png,0,,,,,,,,,,,,,,,,,,,,,,
,,,,,00035,2023-09-28_12h24.11.361,vbt_B2_day4,2022.2.4,MacIntel,59.87665409,,,,,,down,0,1.6625,,0.328354492,0.009077148,1,0,0,0,70,70,152,1,afnemen,images/br_afnemen.png,images/cb_afnemen.png,0,,,,,,,,,,,,,,,,,,,,,,
,,,,,00035,2023-09-28_12h24.11.361,vbt_B2_day4,2022.2.4,MacIntel,59.87665409,,,,,,down,0,0.9694,,0.328354492,0.009077148,1,0,0,0,71,71,120,1,klimmen,images/br_klimmen.png,images/cb_klimmen.png,0,,,,,,,,,,,,,,,,,,,,,,
,,,,,00035,2023-09-28_12h24.11.361,vbt_B2_day4,2022.2.4,MacIntel,59.87665409,,,,,,down,0,0.2511,,0.328354492,0.009077148,1,0,0,0,72,72,21,1,mist,images/br_mist.png,images/cb_mist.png,0,,,,,,,,,,,,,,,,,,,,,,
,,,,,00035,2023-09-28_12h24.11.361,vbt_B2_day4,2022.2.4,MacIntel,59.87665409,,,,,,down,0,23.4349,,0.328354492,0.009077148,1,0,0,0,73,73,143,1,hechten,images/br_hechten.png,images/cb_hechten.png,0,,,,,,,,,,,,,,,,,,,,,,
,,,,,00035,2023-09-28_12h24.11.361,vbt_B2_day4,2022.2.4,MacIntel,59.87665409,,,,,,down,0,1.1364,,0.328354492,0.009077148,1,0,0,0,74,74,180,1,openbaar,images/br_openbaar.png,images/cb_openbaar.png,0,,,,,,,,,,,,,,,,,,,,,,
,,,,,00035,2023-09-28_12h24.11.361,vbt_B2_day4,2022.2.4,MacIntel,59.87665409,,,,,,down,0,3.8591,,0.328354492,0.009077148,1,0,0,0,75,75,86,1,woning,images/br_woning.png,images/cb_woning.png,0,,,,,,,,,,,,,,,,,,,,,,
,,,,,00035,2023-09-28_12h24.11.361,vbt_B2_day4,2022.2.4,MacIntel,59.87665409,,,,,,down,0,0.5345,,0.328354492,0.009077148,1,0,0,0,76,76,131,1,opzicht,images/br_opzicht.png,images/cb_opzicht.png,0,,,,,,,,,,,,,,,,,,,,,,
,,,,,00035,2023-09-28_12h24.11.361,vbt_B2_day4,2022.2.4,MacIntel,59.87665409,,,,,,down,0,0.5355,,0.328354492,0.009077148,1,0,0,0,77,77,87,1,toeval,images/br_toeval.png,images/cb_toeval.png,0,,,,,,,,,,,,,,,,,,,,,,
,,,,,00035,2023-09-28_12h24.11.361,vbt_B2_day4,2022.2.4,MacIntel,59.87665409,,,,,,down,0,0.276,,0.328354492,0.009077148,1,0,0,0,78,78,126,1,kasteel,images/br_kasteel.png,images/cb_kasteel.png,0,,,,,,,,,,,,,,,,,,,,,,
,,,,,00035,2023-09-28_12h24.11.361,vbt_B2_day4,2022.2.4,MacIntel,59.87665409,,,,,,down,0,2.0884,,0.328354492,0.009077148,1,0,0,0,79,79,68,1,schat,images/br_schat.png,images/cb_schat.png,0,,,,,,,,,,,,,,,,,,,,,,
,,,,,00035,2023-09-28_12h24.11.361,vbt_B2_day4,2022.2.4,MacIntel,59.87665409,,,,,,down,0,0.2263,,0.328354492,0.009077148,1,0,0,0,80,80,28,1,stal,images/br_stal.png,images/cb_stal.png,0,,,,,,,,,,,,,,,,,,,,,,
,,,,,00035,2023-09-28_12h24.11.361,vbt_B2_day4,2022.2.4,MacIntel,59.87665409,,,,,,down,0,2.6064,,0.328354492,0.009077148,1,0,0,0,81,81,35,1,lust,images/br_lust.png,images/cb_lust.png,0,,,,,,,,,,,,,,,,,,,,,,
,,,,,00035,2023-09-28_12h24.11.361,vbt_B2_day4,2022.2.4,MacIntel,59.87665409,,,,,,down,0,3.9422,,0.328354492,0.009077148,1,0,0,0,82,82,134,1,geliefd,images/br_geliefd.png,images/cb_geliefd.png,0,,,,,,,,,,,,,,,,,,,,,,
,,,,,00035,2023-09-28_12h24.11.361,vbt_B2_day4,2022.2.4,MacIntel,59.87665409,,,,,,down,0,1.897,,0.328354492,0.009077148,1,0,0,0,83,83,78,1,leren,images/br_leren.png,images/cb_leren.png,0,,,,,,,,,,,,,,,,,,,,,,
,,,,,00035,2023-09-28_12h24.11.361,vbt_B2_day4,2022.2.4,MacIntel,59.87665409,,,,,,down,0,1.1366,,0.328354492,0.009077148,1,0,0,0,84,84,156,1,rechten,images/br_rechten.png,images/cb_rechten.png,0,,,,,,,,,,,,,,,,,,,,,,
,,,,,00035,2023-09-28_12h24.11.361,vbt_B2_day4,2022.2.4,MacIntel,59.87665409,,,,,,down,0,0.5851,,0.328354492,0.009077148,1,0,0,0,85,85,30,1,uien,images/br_uien.png,images/cb_uien.png,0,,,,,,,,,,,,,,,,,,,,,,
,,,,,00035,2023-09-28_12h24.11.361,vbt_B2_day4,2022.2.4,MacIntel,59.87665409,,,,,,down,0,5.6127,,0.328759766,0.010307617,1,0,0,0,86,86,177,1,maaltijd,images/br_maaltijd.png,images/cb_maaltijd.png,0,,,,,,,,,,,,,,,,,,,,,,
,,,,,00035,2023-09-28_12h24.11.361,vbt_B2_day4,2022.2.4,MacIntel,59.87665409,,,,,,down,0,0.0342,,0.328759766,0.010307617,1,0,0,0,87,87,160,1,daarheen,images/br_daarheen.png,images/cb_daarheen.png,0,,,,,,,,,,,,,,,,,,,,,,
,,,,,00035,2023-09-28_12h24.11.361,vbt_B2_day4,2022.2.4,MacIntel,59.87665409,,,,,,down,0,2.5481,,0.328759766,0.010307617,1,0,0,0,88,88,70,1,ijdel,images/br_ijdel.png,images/cb_ijdel.png,0,,,,,,,,,,,,,,,,,,,,,,
,,,,,00035,2023-09-28_12h24.11.361,vbt_B2_day4,2022.2.4,MacIntel,59.87665409,,,,,,down,0,2.5227,,0.33159668,0.010800781,1,0,0,0,89,89,195,1,middelen,images/br_middelen.png,images/cb_middelen.png,0,,,,,,,,,,,,,,,,,,,,,,
,,,,,00035,2023-09-28_12h24.11.361,vbt_B2_day4,2022.2.4,MacIntel,59.87665409,,,,,,down,0,2.7483,,0.33159668,0.010800781,1,0,0,0,90,90,100,1,geduld,images/br_geduld.png,images/cb_geduld.png,0,,,,,,,,,,,,,,,,,,,,,,
,,,,,00035,2023-09-28_12h24.11.361,vbt_B2_day4,2022.2.4,MacIntel,59.87665409,,,,,,down,0,4.6611,,0.33159668,0.010800781,1,0,0,0,91,91,144,1,eetlust,images/br_eetlust.png,images/cb_eetlust.png,1,eetlust,,,,,,,,,,,,,,,,,,,,,
,,,,,00035,2023-09-28_12h24.11.361,vbt_B2_day4,2022.2.4,MacIntel,59.87665409,,,,,,down,0,1.3203,,0.33159668,0.010800781,1,0,0,0,92,92,54,1,gebit,images/br_gebit.png,images/cb_gebit.png,0,,,,,,,,,,,,,,,,,,,,,,
,,,,,00035,2023-09-28_12h24.11.361,vbt_B2_day4,2022.2.4,MacIntel,59.87665409,,,,,,down,0,2.8165,,0.33159668,0.010800781,1,0,0,0,93,93,140,1,blijven,images/br_blijven.png,images/cb_blijven.png,0,,,,,,,,,,,,,,,,,,,,,,
,,,,,00035,2023-09-28_12h24.11.361,vbt_B2_day4,2022.2.4,MacIntel,59.87665409,,,,,,down,0,0.2607,,0.33159668,0.010800781,1,0,0,0,94,94,135,1,gedicht,images/br_gedicht.png,images/cb_gedicht.png,0,,,,,,,,,,,,,,,,,,,,,,
,,,,,00035,2023-09-28_12h24.11.361,vbt_B2_day4,2022.2.4,MacIntel,59.87665409,,,,,,down,0,2.2814,,0.33159668,0.010800781,1,0,0,0,95,95,49,1,laken,images/br_laken.png,images/cb_laken.png,0,,,,,,,,,,,,,,,,,,,,,,
,,,,,00035,2023-09-28_12h24.11.361,vbt_B2_day4,2022.2.4,MacIntel,59.87665409,,,,,,down,0,3.8517,,0.33159668,0.010800781,1,0,0,0,96,96,153,1,vervoer,images/br_vervoer.png,images/cb_vervoer.png,0,,,,,,,,,,,,,,,,,,,,,,
,,,,,00035,2023-09-28_12h24.11.361,vbt_B2_day4,2022.2.4,MacIntel,59.87665409,,,,,,down,0,1.0693,,0.33159668,0.010800781,1,0,0,0,97,97,133,1,seizoen,images/br_seizoen.png,images/cb_seizoen.png,0,,,,,,,,,,,,,,,,,,,,,,
,,,,,00035,2023-09-28_12h24.11.361,vbt_B2_day4,2022.2.4,MacIntel,59.87665409,,,,,,down,0,0.5687,,0.33159668,0.010800781,1,0,0,0,98,98,63,1,flirt,images/br_flirt.png,images/cb_flirt.png,0,,,,,,,,,,,,,,,,,,,,,,
,,,,,00035,2023-09-28_12h24.11.361,vbt_B2_day4,2022.2.4,MacIntel,59.87665409,,,,,,down,0,3.6415,,0.33159668,0.010800781,1,0,0,0,99,99,117,1,kennis,images/br_kennis.png,images/cb_kennis.png,0,,,,,,,,,,,,,,,,,,,,,,
,,,,,00035,2023-09-28_12h24.11.361,vbt_B2_day4,2022.2.4,MacIntel,59.87665409,,,,,,down,0,5.262,,0.33159668,0.010800781,1,0,0,0,100,100,6,1,diep,images/br_diep.png,images/cb_diep.png,0,,,,,,,,,,,,,,,,,,,,,,
,,,,,00035,2023-09-28_12h24.11.361,vbt_B2_day4,2022.2.4,MacIntel,59.87665409,,,,,,down,0,3.5249,,0.33159668,0.010800781,1,0,0,0,101,101,182,1,bijkomen,images/br_bijkomen.png,images/cb_bijkomen.png,0,,,,,,,,,,,,,,,,,,,,,,
,,,,,00035,2023-09-28_12h24.11.361,vbt_B2_day4,2022.2.4,MacIntel,59.87665409,,,,,,down,0,1.6208,,0.33159668,0.006499023,1,0,0,0,102,102,92,1,geheim,images/br_geheim.png,images/cb_geheim.png,0,,,,,,,,,,,,,,,,,,,,,,
,,,,,00035,2023-09-28_12h24.11.361,vbt_B2_day4,2022.2.4,MacIntel,59.87665409,,,,,,down,0,0.4276,,0.33159668,0.006499023,1,0,0,0,103,103,9,1,hier,images/br_hier.png,images/cb_hier.png,0,,,,,,,,,,,,,,,,,,,,,,
,,,,,00035,2023-09-28_12h24.11.361,vbt_B2_day4,2022.2.4,MacIntel,59.87665409,,,,,,down,0,1.7211,,0.33159668,0.006499023,1,0,0,0,104,104,77,1,woede,images/br_woede.png,images/cb_woede.png,0,,,,,,,,,,,,,,,,,,,,,,
,,,,,00035,2023-09-28_12h24.11.361,vbt_B2_day4,2022.2.4,MacIntel,59.87665409,,,,,,down,0,3.0015,,0.33159668,0.006499023,1,0,0,0,105,105,102,1,legaal,images/br_legaal.png,images/cb_legaal.png,0,,,,,,,,,,,,,,,,,,,,,,
,,,,,00035,2023-09-28_12h24.11.361,vbt_B2_day4,2022.2.4,MacIntel,59.87665409,,,,,,down,0,3.5584,,0.33159668,0.006499023,1,0,0,0,106,106,108,1,excuus,images/br_excuus.png,images/cb_excuus.png,0,,,,,,,,,,,,,,,,,,,,,,
,,,,,00035,2023-09-28_12h24.11.361,vbt_B2_day4,2022.2.4,MacIntel,59.87665409,,,,,,down,0,6.278,,0.33159668,0.006499023,1,0,0,0,107,107,10,1,leek,images/br_leek.png,images/cb_leek.png,0,,,,,,,,,,,,,,,,,,,,,,
,,,,,00035,2023-09-28_12h24.11.361,vbt_B2_day4,2022.2.4,MacIntel,59.87665409,,,,,,down,0,0.1931,,0.33159668,0.006499023,1,0,0,0,108,108,119,1,liefje,images/br_liefje.png,images/cb_liefje.png,0,,,,,,,,,,,,,,,,,,,,,,
,,,,,00035,2023-09-28_12h24.11.361,vbt_B2_day4,2022.2.4,MacIntel,59.87665409,,,,,,down,0,3.1241,,0.33159668,0.006499023,1,0,0,0,109,109,20,1,site,images/br_site.png,images/cb_site.png,0,,,,,,,,,,,,,,,,,,,,,,
,,,,,00035,2023-09-28_12h24.11.361,vbt_B2_day4,2022.2.4,MacIntel,59.87665409,,,,,,down,0,7.0419,,0.33159668,0.006499023,1,0,0,0,110,110,90,1,geluid,images/br_geluid.png,images/cb_geluid.png,0,,,,,,,,,,,,,,,,,,,,,,
,,,,,00035,2023-09-28_12h24.11.361,vbt_B2_day4,2022.2.4,MacIntel,59.87665409,,,,,,down,0,3.0252,,0.33159668,0.006499023,1,0,0,0,111,111,197,1,spanning,images/br_spanning.png,images/cb_spanning.png,0,,,,,,,,,,,,,,,,,,,,,,
,,,,,00035,2023-09-28_12h24.11.361,vbt_B2_day4,2022.2.4,MacIntel,59.87665409,,,,,,down,0,5.429,,0.33159668,0.006499023,1,0,0,0,112,112,59,1,kring,images/br_kring.png,images/cb_kring.png,0,,,,,,,,,,,,,,,,,,,,,,
,,,,,00035,2023-09-28_12h24.11.361,vbt_B2_day4,2022.2.4,MacIntel,59.87665409,,,,,,down,0,0.5773,,0.33159668,0.006499023,1,0,0,0,113,113,45,1,piste,images/br_piste.png,images/cb_piste.png,0,,,,,,,,,,,,,,,,,,,,,,
,,,,,00035,2023-09-28_12h24.11.361,vbt_B2_day4,2022.2.4,MacIntel,59.87665409,,,,,,down,0,4.0092,,0.33159668,0.006499023,1,0,0,0,114,114,61,1,groen,images/br_groen.png,images/cb_groen.png,0,,,,,,,,,,,,,,,,,,,,,,
,,,,,00035,2023-09-28_12h24.11.361,vbt_B2_day4,2022.2.4,MacIntel,59.87665409,,,,,,down,0,0.1586,,0.33159668,0.006499023,1,0,0,0,115,115,112,1,lukken,images/br_lukken.png,images/cb_lukken.png,0,,,,,,,,,,,,,,,,,,,,,,
,,,,,00035,2023-09-28_12h24.11.361,vbt_B2_day4,2022.2.4,MacIntel,59.87665409,,,,,,down,0,4.7532,,0.33159668,0.006499023,1,0,0,0,116,116,190,1,goedkoop,images/br_goedkoop.png,images/cb_goedkoop.png,0,,,,,,,,,,,,,,,,,,,,,,
,,,,,00035,2023-09-28_12h24.11.361,vbt_B2_day4,2022.2.4,MacIntel,59.87665409,,,,,,down,0,1.6206,,0.33159668,0.00690918,1,0,0,0,117,117,23,1,zout,images/br_zout.png,images/cb_zout.png,0,,,,,,,,,,,,,,,,,,,,,,
,,,,,00035,2023-09-28_12h24.11.361,vbt_B2_day4,2022.2.4,MacIntel,59.87665409,,,,,,down,0,2.9237,,0.33159668,0.00690918,1,0,0,0,118,118,183,1,getuigen,images/br_getuigen.png,images/cb_getuigen.png,0,,,,,,,,,,,,,,,,,,,,,,
,,,,,00035,2023-09-28_12h24.11.361,vbt_B2_day4,2022.2.4,MacIntel,59.87665409,,,,,,down,0,2.4394,,0.33159668,0.00690918,1,0,0,0,119,119,67,1,zwart,images/br_zwart.png,images/cb_zwart.png,1,zwart,,,,,,,,,,,,,,,,,,,,,
,,,,,00035,2023-09-28_12h24.11.361,vbt_B2_day4,2022.2.4,MacIntel,59.87665409,,,,,,down,0,3.8666,,0.330297852,0.011132813,1,0,0,0,120,120,166,1,strikken,images/br_strikken.png,images/cb_strikken.png,0,,,,,,,,,,,,,,,,,,,,,,
,,,,,00035,2023-09-28_12h24.11.361,vbt_B2_day4,2022.2.4,MacIntel,59.87665409,,,,,,down,0,2.0972,,0.333066406,-0.012797852,1,0,0,0,121,121,167,1,eenhoorn,images/br_eenhoorn.png,images/cb_eenhoorn.png,0,,,,,,,,,,,,,,,,,,,,,,
,,,,,00035,2023-09-28_12h24.11.361,vbt_B2_day4,2022.2.4,MacIntel,59.87665409,,,,,,down,0,0.368,,0.333066406,-0.012797852,1,0,0,0,122,122,127,1,doodmoe,images/br_doodmoe.png,images/cb_doodmoe.png,0,,,,,,,,,,,,,,,,,,,,,,
,,,,,00035,2023-09-28_12h24.11.361,vbt_B2_day4,2022.2.4,MacIntel,59.87665409,,,,,,down,0,0.3181,,0.333066406,-0.012797852,1,0,0,0,123,123,25,1,plek,images/br_plek.png,images/cb_plek.png,1,plek,,,,,,,,,,,,,,,,,,,,,
,,,,,00035,2023-09-28_12h24.11.361,vbt_B2_day4,2022.2.4,MacIntel,59.87665409,,,,,,down,0,0.0311,,0.333066406,-0.012797852,1,0,0,0,124,124,111,1,ticket,images/br_ticket.png,images/cb_ticket.png,0,,,,,,,,,,,,,,,,,,,,,,
,,,,,00035,2023-09-28_12h24.11.361,vbt_B2_day4,2022.2.4,MacIntel,59.87665409,,,,,,down,0,0.3514,,0.322197266,0.002402344,1,0,0,0,125,125,19,1,geit,images/br_geit.png,images/cb_geit.png,0,,,,,,,,,,,,,,,,,,,,,,
,,,,,00035,2023-09-28_12h24.11.361,vbt_B2_day4,2022.2.4,MacIntel,59.87665409,,,,,,down,0,0.4006,,0.322197266,0.002402344,1,0,0,0,126,126,161,1,attentie,images/br_attentie.png,images/cb_attentie.png,0,,,,,,,,,,,,,,,,,,,,,,
,,,,,00035,2023-09-28_12h24.11.361,vbt_B2_day4,2022.2.4,MacIntel,59.87665409,,,,,,down,0,7.1297,,0.322197266,0.002402344,1,0,0,0,127,127,159,1,sufferd,images/br_sufferd.png,images/cb_sufferd.png,0,,,,,,,,,,,,,,,,,,,,,,
,,,,,00035,2023-09-28_12h24.11.361,vbt_B2_day4,2022.2.4,MacIntel,59.87665409,,,,,,down,0,0.2013,,0.322197266,0.002402344,1,0,0,0,128,128,149,1,redding,images/br_redding.png,images/cb_redding.png,0,,,,,,,,,,,,,,,,,,,,,,
,,,,,00035,2023-09-28_12h24.11.361,vbt_B2_day4,2022.2.4,MacIntel,59.87665409,,,,,,down,0,5.6131,,0.187089844,-0.013232422,1,0,0,0,129,129,3,1,mand,images/br_mand.png,images/cb_mand.png,0,,,,,,,,,,,,,,,,,,,,,,
,,,,,00035,2023-09-28_12h24.11.361,vbt_B2_day4,2022.2.4,MacIntel,59.87665409,,,,,,down,0,0.151,,0.187089844,-0.013232422,1,0,0,0,130,130,99,1,koffie,images/br_koffie.png,images/cb_koffie.png,0,,,,,,,,,,,,,,,,,,,,,,
,,,,,00035,2023-09-28_12h24.11.361,vbt_B2_day4,2022.2.4,MacIntel,59.87665409,,,,,,down,0,0.4853,,0.187089844,-0.012822266,1,0,0,0,131,131,128,1,prikken,images/br_prikken.png,images/cb_prikken.png,0,,,,,,,,,,,,,,,,,,,,,,
,,,,,00035,2023-09-28_12h24.11.361,vbt_B2_day4,2022.2.4,MacIntel,59.87665409,,,,,,down,0,0.0008,,0.187089844,-0.012822266,1,0,0,0,132,132,14,1,rijp,images/br_rijp.png,images/cb_rijp.png,0,,,,,,,,,,,,,,,,,,,,,,
,,,,,00035,2023-09-28_12h24.11.361,vbt_B2_day4,2022.2.4,MacIntel,59.87665409,,,,,,down,0,3.5417,,0.187089844,-0.012822266,1,0,0,0,133,133,104,1,zweven,images/br_zweven.png,images/cb_zweven.png,1,zweven,,,,,,,,,,,,,,,,,,,,,
,,,,,00035,2023-09-28_12h24.11.361,vbt_B2_day4,2022.2.4,MacIntel,59.87665409,,,,,,down,0,1.6879,,0.187089844,-0.012822266,1,0,0,0,134,134,186,1,voorraad,images/br_voorraad.png,images/cb_voorraad.png,1,voorraad,,,,,,,,,,,,,,,,,,,,,
,,,,,00035,2023-09-28_12h24.11.361,vbt_B2_day4,2022.2.4,MacIntel,59.87665409,,,,,,down,0,5.7463,,0.187089844,-0.012822266,1,0,0,0,135,135,58,1,tekst,images/br_tekst.png,images/cb_tekst.png,0,,,,,,,,,,,,,,,,,,,,,,
,,,,,00035,2023-09-28_12h24.11.361,vbt_B2_day4,2022.2.4,MacIntel,59.87665409,,,,,,down,0,1.4372,,0.187089844,-0.012822266,1,0,0,0,136,136,43,1,klauw,images/br_klauw.png,images/cb_klauw.png,0,,,,,,,,,,,,,,,,,,,,,,
,,,,,00035,2023-09-28_12h24.11.361,vbt_B2_day4,2022.2.4,MacIntel,59.87665409,,,,,,down,0,5.1208,,0.187089844,-0.012822266,1,0,0,0,137,137,116,1,besmet,images/br_besmet.png,images/cb_besmet.png,0,,,,,,,,,,,,,,,,,,,,,,
,,,,,00035,2023-09-28_12h24.11.361,vbt_B2_day4,2022.2.4,MacIntel,59.87665409,,,,,,down,0,1.4872,,0.187089844,-0.012822266,1,0,0,0,138,138,22,1,stof,images/br_stof.png,images/cb_stof.png,0,,,,,,,,,,,,,,,,,,,,,,
,,,,,00035,2023-09-28_12h24.11.361,vbt_B2_day4,2022.2.4,MacIntel,59.87665409,,,,,,down,0,0.1253,,0.187089844,-0.012822266,1,0,0,0,139,139,123,1,hiervan,images/br_hiervan.png,images/cb_hiervan.png,0,,,,,,,,,,,,,,,,,,,,,,
,,,,,00035,2023-09-28_12h24.11.361,vbt_B2_day4,2022.2.4,MacIntel,59.87665409,,,,,,down,0,2.0971,,0.187089844,-0.012822266,1,0,0,0,140,140,125,1,aanzien,images/br_aanzien.png,images/cb_aanzien.png,0,,,,,,,,,,,,,,,,,,,,,,
,,,,,00035,2023-09-28_12h24.11.361,vbt_B2_day4,2022.2.4,MacIntel,59.87665409,,,,,,down,0,10.991,,0.187089844,-0.012822266,1,0,0,0,141,141,145,1,invloed,images/br_invloed.png,images/cb_invloed.png,1,invloed,,,,,,,,,,,,,,,,,,,,,
,,,,,00035,2023-09-28_12h24.11.361,vbt_B2_day4,2022.2.4,MacIntel,59.87665409,,,,,,down,0,1.4037,,0.187089844,-0.012822266,1,0,0,0,142,142,188,1,strekken,images/br_strekken.png,images/cb_strekken.png,0,,,,,,,,,,,,,,,,,,,,,,
,,,,,00035,2023-09-28_12h24.11.361,vbt_B2_day4,2022.2.4,MacIntel,59.87665409,,,,,,down,0,10.5903,,0.187089844,-0.008515625,1,0,0,0,143,143,105,1,wijlen,images/br_wijlen.png,images/cb_wijlen.png,1,wijlen ,,,,,,,,,,,,,,,,,,,,,
,,,,,00035,2023-09-28_12h24.11.361,vbt_B2_day4,2022.2.4,MacIntel,59.87665409,,,,,,down,0,9.705,,0.187089844,-0.008515625,1,0,0,0,144,144,187,1,opkijken,images/br_opkijken.png,images/cb_opkijken.png,1,opkijken,,,,,,,,,,,,,,,,,,,,,
,,,,,00035,2023-09-28_12h24.11.361,vbt_B2_day4,2022.2.4,MacIntel,59.87665409,,,,,,down,0,6.1309,,0.189589844,-0.007285156,1,0,0,0,145,145,192,1,schaamte,images/br_schaamte.png,images/cb_schaamte.png,0,,,,,,,,,,,,,,,,,,,,,,
,,,,,00035,2023-09-28_12h24.11.361,vbt_B2_day4,2022.2.4,MacIntel,59.87665409,,,,,,down,0,3.7175,,0.189589844,-0.007285156,1,0,0,0,146,146,56,1,traag,images/br_traag.png,images/cb_traag.png,0,,,,,,,,,,,,,,,,,,,,,,
,,,,,00035,2023-09-28_12h24.11.361,vbt_B2_day4,2022.2.4,MacIntel,59.87665409,,,,,,down,0,10.2398,,0.270341797,0.020336914,1,0,0,0,147,147,24,1,jurk,images/br_jurk.png,images/cb_jurk.png,1,jurk,,,,,,,,,,,,,,,,,,,,,
,,,,,00035,2023-09-28_12h24.11.361,vbt_B2_day4,2022.2.4,MacIntel,59.87665409,,,,,,down,0,2.883,,0.270341797,0.020336914,1,0,0,0,148,148,46,1,jagen,images/br_jagen.png,images/cb_jagen.png,0,,,,,,,,,,,,,,,,,,,,,,
,,,,,00035,2023-09-28_12h24.11.361,vbt_B2_day4,2022.2.4,MacIntel,59.87665409,,,,,,down,0,11.3084,,0.270341797,0.020336914,1,0,0,0,149,149,69,1,waken,images/br_waken.png,images/cb_waken.png,0,,,,,,,,,,,,,,,,,,,,,,
,,,,,00035,2023-09-28_12h24.11.361,vbt_B2_day4,2022.2.4,MacIntel,59.87665409,,,,,,down,0,4.9514,,0.270341797,0.020336914,1,0,0,0,150,150,95,1,vreten,images/br_vreten.png,images/cb_vreten.png,0,,,,,,,,,,,,,,,,,,,,,,
,,,,,00035,2023-09-28_12h24.11.361,vbt_B2_day4,2022.2.4,MacIntel,59.87665409,,,,,,down,0,3.9087,,0.270341797,0.020336914,1,0,0,0,151,151,72,1,strak,images/br_strak.png,images/cb_strak.png,0,,,,,,,,,,,,,,,,,,,,,,
,,,,,00035,2023-09-28_12h24.11.361,vbt_B2_day4,2022.2.4,MacIntel,59.87665409,,,,,,down,0,1.6547,,0.270341797,0.020336914,1,0,0,0,152,152,66,1,lever,images/br_lever.png,images/cb_lever.png,1,lever,,,,,,,,,,,,,,,,,,,,,
,,,,,00035,2023-09-28_12h24.11.361,vbt_B2_day4,2022.2.4,MacIntel,59.87665409,,,,,,down,0,5.9555,,0.270341797,0.020336914,1,0,0,0,153,153,106,1,zingen,images/br_zingen.png,images/cb_zingen.png,1,zingen,,,,,,,,,,,,,,,,,,,,,
,,,,,00035,2023-09-28_12h24.11.361,vbt_B2_day4,2022.2.4,MacIntel,59.87665409,,,,,,down,0,0.373,,0.264472656,0.017905273,1,0,0,0,154,154,32,1,palm,images/br_palm.png,images/cb_palm.png,0,,,,,,,,,,,,,,,,,,,,,,
,,,,,00035,2023-09-28_12h24.11.361,vbt_B2_day4,2022.2.4,MacIntel,59.87665409,,,,,,down,0,4.6775,,0.264472656,0.017905273,1,0,0,0,155,155,48,1,steel,images/br_steel.png,images/cb_steel.png,0,,,,,,,,,,,,,,,,,,,,,,
,,,,,00035,2023-09-28_12h24.11.361,vbt_B2_day4,2022.2.4,MacIntel,59.87665409,,,,,,down,0,1.6205,,0.264472656,0.017905273,1,0,0,0,156,156,44,1,flits,images/br_flits.png,images/cb_flits.png,0,,,,,,,,,,,,,,,,,,,,,,
,,,,,00035,2023-09-28_12h24.11.361,vbt_B2_day4,2022.2.4,MacIntel,59.87665409,,,,,,down,0,0.0648,,0.264472656,0.017905273,1,0,0,0,157,157,36,1,vuur,images/br_vuur.png,images/cb_vuur.png,0,,,,,,,,,,,,,,,,,,,,,,
,,,,,00035,2023-09-28_12h24.11.361,vbt_B2_day4,2022.2.4,MacIntel,59.87665409,,,,,,down,0,16.7035,,0.302163086,0.096645508,1,0,0,0,158,158,185,1,mijnheer,images/br_mijnheer.png,images/cb_mijnheer.png,1,mijnheer,,,,,,,,,,,,,,,,,,,,,
,,,,,00035,2023-09-28_12h24.11.361,vbt_B2_day4,2022.2.4,MacIntel,59.87665409,,,,,,down,0,71.948,,0.302163086,0.096645508,1,0,0,0,159,159,169,1,oprotten,images/br_oprotten.png,images/cb_oprotten.png,0,,,,,,,,,,,,,,,,,,,,,,
,,,,,00035,2023-09-28_12h24.11.361,vbt_B2_day4,2022.2.4,MacIntel,59.87665409,,,,,,down,0,0.7277,,0.302163086,0.096645508,1,0,0,0,160,160,60,1,jasje,images/br_jasje.png,images/cb_jasje.png,0,,,,,,,,,,,,,,,,,,,,,,
,,,,,00035,2023-09-28_12h24.11.361,vbt_B2_day4,2022.2.4,MacIntel,59.87665409,,,,,,down,0,1.3537,,0.302163086,0.096645508,1,0,0,0,161,161,71,1,bever,images/br_bever.png,images/cb_bever.png,0,,,,,,,,,,,,,,,,,,,,,,
,,,,,00035,2023-09-28_12h24.11.361,vbt_B2_day4,2022.2.4,MacIntel,59.87665409,,,,,,down,0,3.751,,0.302163086,0.096645508,1,0,0,0,162,162,16,1,ziek,images/br_ziek.png,images/cb_ziek.png,0,,,,,,,,,,,,,,,,,,,,,,
,,,,,00035,2023-09-28_12h24.11.361,vbt_B2_day4,2022.2.4,MacIntel,59.87665409,,,,,,down,0,0.3682,,0.302163086,0.096645508,1,0,0,0,163,163,193,1,weeshuis,images/br_weeshuis.png,images/cb_weeshuis.png,0,,,,,,,,,,,,,,,,,,,,,,
,,,,,00035,2023-09-28_12h24.11.361,vbt_B2_day4,2022.2.4,MacIntel,59.87665409,,,,,,down,0,0.0768,,0.302163086,0.096645508,1,0,0,0,164,164,148,1,smullen,images/br_smullen.png,images/cb_smullen.png,0,,,,,,,,,,,,,,,,,,,,,,
,,,,,00035,2023-09-28_12h24.11.361,vbt_B2_day4,2022.2.4,MacIntel,59.87665409,,,,,,down,0,9.0204,,0.302163086,0.096645508,1,0,0,0,165,165,27,1,dans,images/br_dans.png,images/cb_dans.png,1,dans,,,,,,,,,,,,,,,,,,,,,
,,,,,00035,2023-09-28_12h24.11.361,vbt_B2_day4,2022.2.4,MacIntel,59.87665409,,,,,,down,0,0.2315,,0.302163086,0.096645508,1,0,0,0,166,166,51,1,samen,images/br_samen.png,images/cb_samen.png,0,,,,,,,,,,,,,,,,,,,,,,
,,,,,00035,2023-09-28_12h24.11.361,vbt_B2_day4,2022.2.4,MacIntel,59.87665409,,,,,,down,0,3.7923,,0.302163086,0.096645508,1,0,0,0,167,167,139,1,stiekem,images/br_stiekem.png,images/cb_stiekem.png,0,,,,,,,,,,,,,,,,,,,,,,
,,,,,00035,2023-09-28_12h24.11.361,vbt_B2_day4,2022.2.4,MacIntel,59.87665409,,,,,,down,0,1.8072,,0.302163086,0.096645508,1,0,0,0,168,168,175,1,heengaan,images/br_heengaan.png,images/cb_heengaan.png,0,,,,,,,,,,,,,,,,,,,,,,
,,,,,00035,2023-09-28_12h24.11.361,vbt_B2_day4,2022.2.4,MacIntel,59.87665409,,,,,,down,0,2.4726,,0.302163086,0.096645508,1,0,0,0,169,169,115,1,kleren,images/br_kleren.png,images/cb_kleren.png,0,,,,,,,,,,,,,,,,,,,,,,
,,,,,00035,2023-09-28_12h24.11.361,vbt_B2_day4,2022.2.4,MacIntel,59.87665409,,,,,,down,0,4.1262,,0.302163086,0.096645508,1,0,0,0,170,170,83,1,mening,images/br_mening.png,images/cb_mening.png,0,,,,,,,,,,,,,,,,,,,,,,
,,,,,00035,2023-09-28_12h24.11.361,vbt_B2_day4,2022.2.4,MacIntel,59.87665409,,,,,,down,0,3.892,,0.302163086,0.096645508,1,0,0,0,171,171,163,1,schuilen,images/br_schuilen.png,images/cb_schuilen.png,0,,,,,,,,,,,,,,,,,,,,,,
,,,,,00035,2023-09-28_12h24.11.361,vbt_B2_day4,2022.2.4,MacIntel,59.87665409,,,,,,down,0,0.268,,0.302163086,0.096645508,1,0,0,0,172,172,57,1,steek,images/br_steek.png,images/cb_steek.png,0,,,,,,,,,,,,,,,,,,,,,,
,,,,,00035,2023-09-28_12h24.11.361,vbt_B2_day4,2022.2.4,MacIntel,59.87665409,,,,,,down,0,0.7518,,0.302163086,0.095429687,1,0,0,0,173,173,141,1,knielen,images/br_knielen.png,images/cb_knielen.png,0,,,,,,,,,,,,,,,,,,,,,,
,,,,,00035,2023-09-28_12h24.11.361,vbt_B2_day4,2022.2.4,MacIntel,59.87665409,,,,,,down,0,1.7042,,0.304980469,0.085371094,1,0,0,0,174,174,174,1,stemming,images/br_stemming.png,images/cb_stemming.png,0,,,,,,,,,,,,,,,,,,,,,,
,,,,,00035,2023-09-28_12h24.11.361,vbt_B2_day4,2022.2.4,MacIntel,59.87665409,,,,,,down,0,0.2679,,0.308056641,0.092822266,1,0,0,0,175,175,84,1,lokken,images/br_lokken.png,images/cb_lokken.png,0,,,,,,,,,,,,,,,,,,,,,,
,,,,,00035,2023-09-28_12h24.11.361,vbt_B2_day4,2022.2.4,MacIntel,59.87665409,,,,,,down,0,0.4352,,0.308056641,0.092822266,1,0,0,0,176,176,39,1,laag,images/br_laag.png,images/cb_laag.png,0,,,,,,,,,,,,,,,,,,,,,,
,,,,,00035,2023-09-28_12h24.11.361,vbt_B2_day4,2022.2.4,MacIntel,59.87665409,,,,,,down,0,7.3251,,0.308056641,0.092822266,1,0,0,0,177,177,42,1,bleek,images/br_bleek.png,images/cb_bleek.png,0,,,,,,,,,,,,,,,,,,,,,,
,,,,,00035,2023-09-28_12h24.11.361,vbt_B2_day4,2022.2.4,MacIntel,59.87665409,,,,,,down,0,0.8358,,0.308056641,0.092822266,1,0,0,0,178,178,110,1,zuster,images/br_zuster.png,images/cb_zuster.png,0,,,,,,,,,,,,,,,,,,,,,,
,,,,,00035,2023-09-28_12h24.11.361,vbt_B2_day4,2022.2.4,MacIntel,59.87665409,,,,,,down,0,3.1578,,0.308056641,0.092822266,1,0,0,0,179,179,4,1,moes,images/br_moes.png,images/cb_moes.png,0,,,,,,,,,,,,,,,,,,,,,,
,,,,,00035,2023-09-28_12h24.11.361,vbt_B2_day4,2022.2.4,MacIntel,59.87665409,,,,,,down,0,11.7593,,0.308056641,0.092822266,1,0,0,0,180,180,73,1,volop,images/br_volop.png,images/cb_volop.png,0,,,,,,,,,,,,,,,,,,,,,,
,,,,,00035,2023-09-28_12h24.11.361,vbt_B2_day4,2022.2.4,MacIntel,59.87665409,,,,,,down,0,2.673,,0.337670898,0.090297852,1,0,0,0,181,181,101,1,staren,images/br_staren.png,images/cb_staren.png,0,,,,,,,,,,,,,,,,,,,,,,
,,,,,00035,2023-09-28_12h24.11.361,vbt_B2_day4,2022.2.4,MacIntel,59.87665409,,,,,,down,0,1.2199,,0.337670898,0.090297852,1,0,0,0,182,182,114,1,vullen,images/br_vullen.png,images/cb_vullen.png,0,,,,,,,,,,,,,,,,,,,,,,
,,,,,00035,2023-09-28_12h24.11.361,vbt_B2_day4,2022.2.4,MacIntel,59.87665409,,,,,,down,0,2.7568,,0.337670898,0.090297852,1,0,0,0,183,183,52,1,wagon,images/br_wagon.png,images/cb_wagon.png,0,,,,,,,,,,,,,,,,,,,,,,
,,,,,00035,2023-09-28_12h24.11.361,vbt_B2_day4,2022.2.4,MacIntel,59.87665409,,,,,,down,0,3.9924,,0.337670898,0.090297852,1,0,0,0,184,184,151,1,aanzoek,images/br_aanzoek.png,images/cb_aanzoek.png,0,,,,,,,,,,,,,,,,,,,,,,
,,,,,00035,2023-09-28_12h24.11.361,vbt_B2_day4,2022.2.4,MacIntel,59.87665409,,,,,,down,0,1.3536,,0.337670898,0.090297852,1,0,0,0,185,185,130,1,keihard,images/br_keihard.png,images/cb_keihard.png,0,,,,,,,,,,,,,,,,,,,,,,
,,,,,00035,2023-09-28_12h24.11.361,vbt_B2_day4,2022.2.4,MacIntel,59.87665409,,,,,,down,0,2.5894,,0.338989258,0.09425293,1,0,0,0,186,186,124,1,bloeien,images/br_bloeien.png,images/cb_bloeien.png,0,,,,,,,,,,,,,,,,,,,,,,
,,,,,00035,2023-09-28_12h24.11.361,vbt_B2_day4,2022.2.4,MacIntel,59.87665409,,,,,,down,0,4.5858,,0.338989258,0.09425293,1,0,0,0,187,187,164,1,anarchie,images/br_anarchie.png,images/cb_anarchie.png,0,,,,,,,,,,,,,,,,,,,,,,
,,,,,00035,2023-09-28_12h24.11.361,vbt_B2_day4,2022.2.4,MacIntel,59.87665409,,,,,,down,0,7.066,,0.338989258,0.09425293,1,0,0,0,188,188,147,1,komisch,images/br_komisch.png,images/cb_komisch.png,1,komisch,,,,,,,,,,,,,,,,,,,,,
,,,,,00035,2023-09-28_12h24.11.361,vbt_B2_day4,2022.2.4,MacIntel,59.87665409,,,,,,down,0,2.499,,0.338989258,0.09425293,1,0,0,0,189,189,150,1,gegeven,images/br_gegeven.png,images/cb_gegeven.png,0,,,,,,,,,,,,,,,,,,,,,,
,,,,,00035,2023-09-28_12h24.11.361,vbt_B2_day4,2022.2.4,MacIntel,59.87665409,,,,,,down,0,0.1503,,0.338989258,0.09425293,1,0,0,0,190,190,12,1,kust,images/br_kust.png,images/cb_kust.png,0,,,,,,,,,,,,,,,,,,,,,,
,,,,,00035,2023-09-28_12h24.11.361,vbt_B2_day4,2022.2.4,MacIntel,59.87665409,,,,,,down,0,3.5006,,0.338989258,0.09425293,1,0,0,0,191,191,33,1,vlek,images/br_vlek.png,images/cb_vlek.png,0,,,,,,,,,,,,,,,,,,,,,,
,,,,,00035,2023-09-28_12h24.11.361,vbt_B2_day4,2022.2.4,MacIntel,59.87665409,,,,,,down,0,4.7441,,0.338989258,0.09425293,1,0,0,0,192,192,194,1,driemaal,images/br_driemaal.png,images/cb_driemaal.png,0,,,,,,,,,,,,,,,,,,,,,,
,,,,,00035,2023-09-28_12h24.11.361,vbt_B2_day4,2022.2.4,MacIntel,59.87665409,,,,,,down,0,4.5192,,0.338989258,0.09425293,1,0,0,0,193,193,129,1,verhaal,images/br_verhaal.png,images/cb_verhaal.png,0,,,,,,,,,,,,,,,,,,,,,,
,,,,,00035,2023-09-28_12h24.11.361,vbt_B2_day4,2022.2.4,MacIntel,59.87665409,,,,,,down,0,3.2409,,0.338989258,0.09425293,1,0,0,0,194,194,82,1,muziek,images/br_muziek.png,images/cb_muziek.png,0,,,,,,,,,,,,,,,,,,,,,,
,,,,,00035,2023-09-28_12h24.11.361,vbt_B2_day4,2022.2.4,MacIntel,59.87665409,,,,,,down,0,1.0541,,0.338989258,0.09425293,1,0,0,0,195,195,79,1,nodig,images/br_nodig.png,images/cb_nodig.png,0,,,,,,,,,,,,,,,,,,,,,,
,,,,,00035,2023-09-28_12h24.11.361,vbt_B2_day4,2022.2.4,MacIntel,59.87665409,,,,,,down,0,1.7042,,0.338989258,0.09425293,1,0,0,0,196,196,171,1,aarzelen,images/br_aarzelen.png,images/cb_aarzelen.png,0,,,,,,,,,,,,,,,,,,,,,,
,,,,,00035,2023-09-28_12h24.11.361,vbt_B2_day4,2022.2.4,MacIntel,59.87665409,,,,,,down,0,1.7864,,0.338989258,0.09425293,1,0,0,0,197,197,198,1,bedoelen,images/br_bedoelen.png,images/cb_bedoelen.png,0,,,,,,,,,,,,,,,,,,,,,,
,,,,,00035,2023-09-28_12h24.11.361,vbt_B2_day4,2022.2.4,MacIntel,59.87665409,,,,,,down,0,2.7734,,0.338989258,0.09425293,1,0,0,0,198,198,7,1,geld,images/br_geld.png,images/cb_geld.png,0,,,,,,,,,,,,,,,,,,,,,,
,,,,,00035,2023-09-28_12h24.11.361,vbt_B2_day4,2022.2.4,MacIntel,59.87665409,,,,,,down,0,0.084,,0.338989258,0.09425293,1,0,0,0,199,199,98,1,kreeft,images/br_kreeft.png,images/cb_kreeft.png,0,,,,,,,,,,,,,,,,,,,,,,
,,,,,00035,2023-09-28_12h24.11.361,vbt_B2_day4,2022.2.4,MacIntel,59.87665409,,,,,,,,,,,,,,,,,,,,,,,,,-0.037231445,-0.270063477,1,0,0,,,,,,,,,,,,,,,,
,,,,,00035,2023-09-28_12h24.11.361,vbt_B2_day4,2022.2.4,MacIntel,59.87665409,,,,,,,,,,,,,,,,,,,,,,,,,,,,,,-0.041767578,-0.347055664,1,0,0,,,,,,,,,,,
,,,,,00035,2023-09-28_12h24.11.361,vbt_B2_day4,2022.2.4,MacIntel,59.87665409,,,,,,,,,,,,,,,,,,,,stemming,images/br_stemming.png,images/cb_stemming.png,,stemming,,,,,,,,,,,-0.027241211,0.088671875,1,0,0,stemming,0,0,0,18,1
,,,,,00035,2023-09-28_12h24.11.361,vbt_B2_day4,2022.2.4,MacIntel,59.87665409,,,,,,,,,,,,,,,,,,,,gebit,images/br_gebit.png,images/cb_gebit.png,,gilet ,,,,,,,,,,,0.213378906,0.065595703,1,0,0,gilet ,0,1,1,6,1
,,,,,00035,2023-09-28_12h24.11.361,vbt_B2_day4,2022.2.4,MacIntel,59.87665409,,,,,,,,,,,,,,,,,,,,bisschap,images/br_bisschap.png,images/cb_bisschap.png,,lesschap ,,,,,,,,,,,0.251157227,0.150424805,1,0,0,lesschap ,0,2,2,36,1
,,,,,00035,2023-09-28_12h24.11.361,vbt_B2_day4,2022.2.4,MacIntel,59.87665409,,,,,,,,,,,,,,,,,,,,pijnlijk,images/br_pijnlijk.png,images/cb_pijnlijk.png,,?,,,,,,,,,,,0.304985352,-0.073188477,1,0,0,?,0,3,3,58,1
,,,,,00035,2023-09-28_12h24.11.361,vbt_B2_day4,2022.2.4,MacIntel,59.87665409,,,,,,,,,,,,,,,,,,,,flippen,images/br_flippen.png,images/cb_flippen.png,,flippen ,,,,,,,,,,,0.540239258,-0.134335938,1,0,0,flippen ,0,4,4,54,1
,,,,,00035,2023-09-28_12h24.11.361,vbt_B2_day4,2022.2.4,MacIntel,59.87665409,,,,,,,,,,,,,,,,,,,,eerst,images/br_eerst.png,images/cb_eerst.png,,eerst ,,,,,,,,,,,0.097661133,0.027529297,1,0,0,eerst ,0,5,5,47,1
,,,,,00035,2023-09-28_12h24.11.361,vbt_B2_day4,2022.2.4,MacIntel,59.87665409,,,,,,,,,,,,,,,,,,,,lappen,images/br_lappen.png,images/cb_lappen.png,,lappen,,,,,,,,,,,0.394975586,0.06762207,1,0,0,lappen,0,6,6,49,1
,,,,,00035,2023-09-28_12h24.11.361,vbt_B2_day4,2022.2.4,MacIntel,59.87665409,,,,,,,,,,,,,,,,,,,,zaalrijk,images/br_zaalrijk.png,images/cb_zaalrijk.png,,zaalr...,,,,,,,,,,,0.078779297,-0.015170898,1,0,0,zaalr...,0,7,7,37,1
,,,,,00035,2023-09-28_12h24.11.361,vbt_B2_day4,2022.2.4,MacIntel,59.87665409,,,,,,,,,,,,,,,,,,,,mekst,images/br_mekst.png,images/cb_mekst.png,,me...,,,,,,,,,,,0.147890625,0.081181641,1,0,0,me...,0,8,8,27,1
,,,,,00035,2023-09-28_12h24.11.361,vbt_B2_day4,2022.2.4,MacIntel,59.87665409,,,,,,,,,,,,,,,,,,,,oceaan,images/br_oceaan.png,images/cb_oceaan.png,,oceaan,,,,,,,,,,,0.147890625,0.081181641,1,0,0,oceaan,0,9,9,10,1
,,,,,00035,2023-09-28_12h24.11.361,vbt_B2_day4,2022.2.4,MacIntel,59.87665409,,,,,,,,,,,,,,,,,,,,aanzwaag,images/br_aanzwaag.png,images/cb_aanzwaag.png,,aanvraag,,,,,,,,,,,0.63918457,0.062548828,1,0,0,aanvraag,0,10,10,38,1
,,,,,00035,2023-09-28_12h24.11.361,vbt_B2_day4,2022.2.4,MacIntel,59.87665409,,,,,,,,,,,,,,,,,,,,steen,images/br_steen.png,images/cb_steen.png,,staan,,,,,,,,,,,0.63918457,0.062548828,1,0,0,staan,0,11,11,44,1
,,,,,00035,2023-09-28_12h24.11.361,vbt_B2_day4,2022.2.4,MacIntel,59.87665409,,,,,,,,,,,,,,,,,,,,geliefd,images/br_geliefd.png,images/cb_geliefd.png,,geliefd,,,,,,,,,,,0.553046875,-0.133378906,1,0,0,geliefd,0,12,12,14,1
,,,,,00035,2023-09-28_12h24.11.361,vbt_B2_day4,2022.2.4,MacIntel,59.87665409,,,,,,,,,,,,,,,,,,,,schotel,images/br_schotel.png,images/cb_schotel.png,,schotel,,,,,,,,,,,0.44621582,-0.088383789,1,0,0,schotel,0,13,13,52,1
,,,,,00035,2023-09-28_12h24.11.361,vbt_B2_day4,2022.2.4,MacIntel,59.87665409,,,,,,,,,,,,,,,,,,,,paalbaak,images/br_paalbaak.png,images/cb_paalbaak.png,,paal....,,,,,,,,,,,0.56184082,0.009277344,1,0,0,paal....,0,14,14,39,1
,,,,,00035,2023-09-28_12h24.11.361,vbt_B2_day4,2022.2.4,MacIntel,59.87665409,,,,,,,,,,,,,,,,,,,,dozijn,images/br_dozijn.png,images/cb_dozijn.png,,dozijn,,,,,,,,,,,0.445830078,0.102646484,1,0,0,dozijn,0,15,15,48,1
,,,,,00035,2023-09-28_12h24.11.361,vbt_B2_day4,2022.2.4,MacIntel,59.87665409,,,,,,,,,,,,,,,,,,,,gaaf,images/br_gaaf.png,images/cb_gaaf.png,,gaaf,,,,,,,,,,,0.403515625,0.141679688,1,0,0,gaaf,0,16,16,43,1
,,,,,00035,2023-09-28_12h24.11.361,vbt_B2_day4,2022.2.4,MacIntel,59.87665409,,,,,,,,,,,,,,,,,,,,zwek,images/br_zwek.png,images/cb_zwek.png,,zwik ,,,,,,,,,,,0.058896484,-0.157265625,1,0,0,zwik ,0,17,17,20,1
,,,,,00035,2023-09-28_12h24.11.361,vbt_B2_day4,2022.2.4,MacIntel,59.87665409,,,,,,,,,,,,,,,,,,,,wagon,images/br_wagon.png,images/cb_wagon.png,,wagon,,,,,,,,,,,-0.04027832,0.16203125,1,0,0,wagon,0,18,18,4,1
,,,,,00035,2023-09-28_12h24.11.361,vbt_B2_day4,2022.2.4,MacIntel,59.87665409,,,,,,,,,,,,,,,,,,,,fran,images/br_fran.png,images/cb_fran.png,,fran ,,,,,,,,,,,0.303984375,0.016850586,1,0,0,fran ,0,19,19,22,1
,,,,,00035,2023-09-28_12h24.11.361,vbt_B2_day4,2022.2.4,MacIntel,59.87665409,,,,,,,,,,,,,,,,,,,,strok,images/br_strok.png,images/cb_strok.png,,strok ,,,,,,,,,,,0.564814453,-0.24690918,1,0,0,strok ,0,20,20,25,1
,,,,,00035,2023-09-28_12h24.11.361,vbt_B2_day4,2022.2.4,MacIntel,59.87665409,,,,,,,,,,,,,,,,,,,,dalen,images/br_dalen.png,images/cb_dalen.png,,dalen,,,,,,,,,,,0.446547852,-0.11090332,1,0,0,dalen,0,21,21,46,1
,,,,,00035,2023-09-28_12h24.11.361,vbt_B2_day4,2022.2.4,MacIntel,59.87665409,,,,,,,,,,,,,,,,,,,,schenden,images/br_schenden.png,images/cb_schenden.png,,schenden,,,,,,,,,,,0.446547852,-0.11090332,1,0,0,schenden,0,22,22,57,1
,,,,,00035,2023-09-28_12h24.11.361,vbt_B2_day4,2022.2.4,MacIntel,59.87665409,,,,,,,,,,,,,,,,,,,,gebog,images/br_gebog.png,images/cb_gebog.png,,gecog ,,,,,,,,,,,0.446547852,-0.11090332,1,0,0,gecog ,0,23,23,24,1
,,,,,00035,2023-09-28_12h24.11.361,vbt_B2_day4,2022.2.4,MacIntel,59.87665409,,,,,,,,,,,,,,,,,,,,praat,images/br_praat.png,images/cb_praat.png,,praat,,,,,,,,,,,0.061870117,-0.049291992,1,0,0,praat,0,24,24,7,1
,,,,,00035,2023-09-28_12h24.11.361,vbt_B2_day4,2022.2.4,MacIntel,59.87665409,,,,,,,,,,,,,,,,,,,,drooien,images/br_drooien.png,images/cb_drooien.png,,draaien,,,,,,,,,,,0.631147461,-0.406557617,1,0,0,draaien,0,25,25,32,1
,,,,,00035,2023-09-28_12h24.11.361,vbt_B2_day4,2022.2.4,MacIntel,59.87665409,,,,,,,,,,,,,,,,,,,,drummer,images/br_drummer.png,images/cb_drummer.png,,drummer,,,,,,,,,,,0.237050781,0.010219727,1,0,0,drummer,0,26,26,53,1
,,,,,00035,2023-09-28_12h24.11.361,vbt_B2_day4,2022.2.4,MacIntel,59.87665409,,,,,,,,,,,,,,,,,,,,bruin,images/br_bruin.png,images/cb_bruin.png,,bruin ,,,,,,,,,,,-0.058071289,0.053212891,1,0,0,bruin ,0,27,27,45,1
,,,,,00035,2023-09-28_12h24.11.361,vbt_B2_day4,2022.2.4,MacIntel,59.87665409,,,,,,,,,,,,,,,,,,,,gijf,images/br_gijf.png,images/cb_gijf.png,,gijf ,,,,,,,,,,,0.274682617,-0.108725586,1,0,0,gijf ,0,28,28,23,1
,,,,,00035,2023-09-28_12h24.11.361,vbt_B2_day4,2022.2.4,MacIntel,59.87665409,,,,,,,,,,,,,,,,,,,,opkicht,images/br_opkicht.png,images/cb_opkicht.png,,opkicht ,,,,,,,,,,,-0.005019531,-0.203540039,1,0,0,opkicht ,0,29,29,34,1
,,,,,00035,2023-09-28_12h24.11.361,vbt_B2_day4,2022.2.4,MacIntel,59.87665409,,,,,,,,,,,,,,,,,,,,noodzaak,images/br_noodzaak.png,images/cb_noodzaak.png,,noodzaak,,,,,,,,,,,0.219384766,-0.025332031,1,0,0,noodzaak,0,30,30,56,1
,,,,,00035,2023-09-28_12h24.11.361,vbt_B2_day4,2022.2.4,MacIntel,59.87665409,,,,,,,,,,,,,,,,,,,,rijp,images/br_rijp.png,images/cb_rijp.png,,tijp ,,,,,,,,,,,0.125019531,-0.030117187,1,0,0,tijp ,0,31,31,2,1
,,,,,00035,2023-09-28_12h24.11.361,vbt_B2_day4,2022.2.4,MacIntel,59.87665409,,,,,,,,,,,,,,,,,,,,heengaan,images/br_heengaan.png,images/cb_heengaan.png,,?,,,,,,,,,,,0.197773438,0.007504883,1,0,0,?,0,32,32,19,1
,,,,,00035,2023-09-28_12h24.11.361,vbt_B2_day4,2022.2.4,MacIntel,59.87665409,,,,,,,,,,,,,,,,,,,,getucht,images/br_getucht.png,images/cb_getucht.png,,getucht ,,,,,,,,,,,0.523022461,-0.068608398,1,0,0,getucht ,0,33,33,35,1
,,,,,00035,2023-09-28_12h24.11.361,vbt_B2_day4,2022.2.4,MacIntel,59.87665409,,,,,,,,,,,,,,,,,,,,apparaat,images/br_apparaat.png,images/cb_apparaat.png,,apparaat,,,,,,,,,,,0.370292969,0.004013672,1,0,0,apparaat,0,34,34,17,1
,,,,,00035,2023-09-28_12h24.11.361,vbt_B2_day4,2022.2.4,MacIntel,59.87665409,,,,,,,,,,,,,,,,,,,,midden,images/br_midden.png,images/cb_midden.png,,midden ,,,,,,,,,,,0.370292969,0.004013672,1,0,0,midden ,0,35,35,50,1
,,,,,00035,2023-09-28_12h24.11.361,vbt_B2_day4,2022.2.4,MacIntel,59.87665409,,,,,,,,,,,,,,,,,,,,haza,images/br_haza.png,images/cb_haza.png,,haza ,,,,,,,,,,,0.172114258,-0.084541016,1,0,0,haza ,0,36,36,21,1
,,,,,00035,2023-09-28_12h24.11.361,vbt_B2_day4,2022.2.4,MacIntel,59.87665409,,,,,,,,,,,,,,,,,,,,soda,images/br_soda.png,images/cb_soda.png,,soda,,,,,,,,,,,0.185859375,0.069042969,1,0,0,soda,0,37,37,3,1
,,,,,00035,2023-09-28_12h24.11.361,vbt_B2_day4,2022.2.4,MacIntel,59.87665409,,,,,,,,,,,,,,,,,,,,grappen,images/br_grappen.png,images/cb_grappen.png,,grappen,,,,,,,,,,,0.645878906,-0.399394531,1,0,0,grappen,0,38,38,12,1
,,,,,00035,2023-09-28_12h24.11.361,vbt_B2_day4,2022.2.4,MacIntel,59.87665409,,,,,,,,,,,,,,,,,,,,seizoon,images/br_seizoon.png,images/cb_seizoon.png,,seizoen ,,,,,,,,,,,0.54097168,-0.030600586,1,0,0,seizoen ,0,39,39,33,1
,,,,,00035,2023-09-28_12h24.11.361,vbt_B2_day4,2022.2.4,MacIntel,59.87665409,,,,,,,,,,,,,,,,,,,,wozing,images/br_wozing.png,images/cb_wozing.png,,?,,,,,,,,,,,0.080209961,-0.048046875,1,0,0,?,0,40,40,28,1
,,,,,00035,2023-09-28_12h24.11.361,vbt_B2_day4,2022.2.4,MacIntel,59.87665409,,,,,,,,,,,,,,,,,,,,toevol,images/br_toevol.png,images/cb_toevol.png,,toeval,,,,,,,,,,,0.015649414,0.107236328,1,0,0,toeval,0,41,41,29,1
,,,,,00035,2023-09-28_12h24.11.361,vbt_B2_day4,2022.2.4,MacIntel,59.87665409,,,,,,,,,,,,,,,,,,,,tucket,images/br_tucket.png,images/cb_tucket.png,,?,,,,,,,,,,,0.015649414,0.107236328,1,0,0,?,0,42,42,30,1
,,,,,00035,2023-09-28_12h24.11.361,vbt_B2_day4,2022.2.4,MacIntel,59.87665409,,,,,,,,,,,,,,,,,,,,kaal,images/br_kaal.png,images/cb_kaal.png,,kaal,,,,,,,,,,,0.103925781,-0.359384766,1,0,0,kaal,0,43,43,1,1
,,,,,00035,2023-09-28_12h24.11.361,vbt_B2_day4,2022.2.4,MacIntel,59.87665409,,,,,,,,,,,,,,,,,,,,seizoen,images/br_seizoen.png,images/cb_seizoen.png,,seizoen,,,,,,,,,,,0.319990234,-0.000239258,1,0,0,seizoen,0,44,44,13,1
,,,,,00035,2023-09-28_12h24.11.361,vbt_B2_day4,2022.2.4,MacIntel,59.87665409,,,,,,,,,,,,,,,,,,,,vreten,images/br_vreten.png,images/cb_vreten.png,,vreten,,,,,,,,,,,0.215888672,0.067006836,1,0,0,vreten,0,45,45,11,1
,,,,,00035,2023-09-28_12h24.11.361,vbt_B2_day4,2022.2.4,MacIntel,59.87665409,,,,,,,,,,,,,,,,,,,,pittig,images/br_pittig.png,images/cb_pittig.png,,?,,,,,,,,,,,0.13515625,-0.010229492,1,0,0,?,0,46,46,51,1
,,,,,00035,2023-09-28_12h24.11.361,vbt_B2_day4,2022.2.4,MacIntel,59.87665409,,,,,,,,,,,,,,,,,,,,kust,images/br_kust.png,images/cb_kust.png,,kust,,,,,,,,,,,0.142094727,0.080395508,1,0,0,kust,0,47,47,0,1
,,,,,00035,2023-09-28_12h24.11.361,vbt_B2_day4,2022.2.4,MacIntel,59.87665409,,,,,,,,,,,,,,,,,,,,weigeren,images/br_weigeren.png,images/cb_weigeren.png,,weigeren,,,,,,,,,,,0.004511719,0.166333008,1,0,0,weigeren,0,48,48,16,1
,,,,,00035,2023-09-28_12h24.11.361,vbt_B2_day4,2022.2.4,MacIntel,59.87665409,,,,,,,,,,,,,,,,,,,,warel,images/br_warel.png,images/cb_warel.png,,wra..,,,,,,,,,,,0.105942383,0.002143555,1,0,0,wra..,0,49,49,26,1
,,,,,00035,2023-09-28_12h24.11.361,vbt_B2_day4,2022.2.4,MacIntel,59.87665409,,,,,,,,,,,,,,,,,,,,waarop,images/br_waarop.png,images/cb_waarop.png,,waarop,,,,,,,,,,,-0.158457031,-0.006445312,1,0,0,waarop,0,50,50,9,1
,,,,,00035,2023-09-28_12h24.11.361,vbt_B2_day4,2022.2.4,MacIntel,59.87665409,,,,,,,,,,,,,,,,,,,,gaan,images/br_gaan.png,images/cb_gaan.png,,gaan,,,,,,,,,,,-0.158457031,-0.006445312,1,0,0,gaan,0,51,51,41,1
,,,,,00035,2023-09-28_12h24.11.361,vbt_B2_day4,2022.2.4,MacIntel,59.87665409,,,,,,,,,,,,,,,,,,,,baron,images/br_baron.png,images/cb_baron.png,,?,,,,,,,,,,,0.027802734,-0.213579102,1,0,0,?,0,52,52,5,1
,,,,,00035,2023-09-28_12h24.11.361,vbt_B2_day4,2022.2.4,MacIntel,59.87665409,,,,,,,,,,,,,,,,,,,,geheim,images/br_geheim.png,images/cb_geheim.png,,geheim,,,,,,,,,,,0.027802734,-0.213579102,1,0,0,geheim,0,53,53,8,1
,,,,,00035,2023-09-28_12h24.11.361,vbt_B2_day4,2022.2.4,MacIntel,59.87665409,,,,,,,,,,,,,,,,,,,,sulbon,images/br_sulbon.png,images/cb_sulbon.png,,sul...,,,,,,,,,,,0.436547852,-0.016342773,1,0,0,sul...,0,54,54,31,1
,,,,,00035,2023-09-28_12h24.11.361,vbt_B2_day4,2022.2.4,MacIntel,59.87665409,,,,,,,,,,,,,,,,,,,,snee,images/br_snee.png,images/cb_snee.png,,snee,,,,,,,,,,,0.436547852,-0.016342773,1,0,0,snee,0,55,55,40,1
,,,,,00035,2023-09-28_12h24.11.361,vbt_B2_day4,2022.2.4,MacIntel,59.87665409,,,,,,,,,,,,,,,,,,,,ezel,images/br_ezel.png,images/cb_ezel.png,,ezel,,,,,,,,,,,0.03625,0.004482422,1,0,0,ezel,0,56,56,42,1
,,,,,00035,2023-09-28_12h24.11.361,vbt_B2_day4,2022.2.4,MacIntel,59.87665409,,,,,,,,,,,,,,,,,,,,gedicht,images/br_gedicht.png,images/cb_gedicht.png,,gedicht,,,,,,,,,,,0.027529297,-0.115751953,1,0,0,gedicht,0,57,57,15,1
,,,,,00035,2023-09-28_12h24.11.361,vbt_B2_day4,2022.2.4,MacIntel,59.87665409,,,,,,,,,,,,,,,,,,,,broodje,images/br_broodje.png,images/cb_broodje.png,,broo...,,,,,,,,,,,-0.141108398,0.086523437,1,0,0,broo...,0,58,58,55,1
,,,,,00035,2023-09-28_12h24.11.361,vbt_B2_day4,2022.2.4,MacIntel,59.87665409,,,,,,,,,,,,,,,,,,,,opruimen,images/br_opruimen.png,images/cb_opruimen.png,,opruimen,,,,,,,,,,,-0.187875977,0.23105957,1,0,0,opruimen,0,59,59,59,1
,,,,,00035,2023-09-28_12h24.11.361,vbt_B2_day4,2022.2.4,MacIntel,59.87665409,,,,,,,,,,,,,,,,,,,,,,,,,,,,,,,,,,,,,,,,,,,,,
