welcome_mouse.x,welcome_mouse.y,welcome_mouse.leftButton,welcome_mouse.midButton,welcome_mouse.rightButton,"ID",date,expName,psychopyVersion,OS,frameRate,trainInstr_mouse.x,trainInstr_mouse.y,trainInstr_mouse.leftButton,trainInstr_mouse.midButton,trainInstr_mouse.rightButton,translation_key.keys,translation_key.corr,translation_key.rt,word_rsp.text,trWrd_mouse.x,trWrd_mouse.y,trWrd_mouse.leftButton,trWrd_mouse.midButton,trWrd_mouse.rightButton,train_loop.thisRepN,train_loop.thisTrialN,train_loop.thisN,train_loop.thisIndex,train_loop.ran,nlWrd,brWrd,cbWrd,test,testResp,mouse.x,mouse.y,mouse.leftButton,mouse.midButton,mouse.rightButton,testInstr_mouse.x,testInstr_mouse.y,testInstr_mouse.leftButton,testInstr_mouse.midButton,testInstr_mouse.rightButton,test_mouse.x,test_mouse.y,test_mouse.leftButton,test_mouse.midButton,test_mouse.rightButton,test_response.text,test_loop.thisRepN,test_loop.thisTrialN,test_loop.thisN,test_loop.thisIndex,test_loop.ran
0.21654146,-0.104108055,1,0,0,00053,2023-10-21_21h18.32.389,vbt_B2_day4,2022.2.4,Linux x86_64,60.00960154,,,,,,,,,,,,,,,,,,,,,,,,,,,,,,,,,,,,,,,,,,,,,
,,,,,00053,2023-10-21_21h18.32.389,vbt_B2_day4,2022.2.4,Linux x86_64,60.00960154,0.10245338,-0.172472911,1,0,0,,,,,,,,,,,,,,,,,,,,,,,,,,,,,,,,,,,,,,,,
,,,,,00053,2023-10-21_21h18.32.389,vbt_B2_day4,2022.2.4,Linux x86_64,60.00960154,,,,,,down,0,9.1652,,0.10245338,-0.172472911,1,0,0,0,0,0,114,1,vullen,images/br_vullen.png,images/cb_vullen.png,0,,,,,,,,,,,,,,,,,,,,,,
,,,,,00053,2023-10-21_21h18.32.389,vbt_B2_day4,2022.2.4,Linux x86_64,60.00960154,,,,,,down,0,5.9195,,0.10245338,-0.172472911,1,0,0,0,1,1,190,1,goedkoop,images/br_goedkoop.png,images/cb_goedkoop.png,0,,,,,,,,,,,,,,,,,,,,,,
,,,,,00053,2023-10-21_21h18.32.389,vbt_B2_day4,2022.2.4,Linux x86_64,60.00960154,,,,,,down,0,4.6977,,0.10245338,-0.172472911,1,0,0,0,2,2,122,1,waarvan,images/br_waarvan.png,images/cb_waarvan.png,0,,,,,,,,,,,,,,,,,,,,,,
,,,,,00053,2023-10-21_21h18.32.389,vbt_B2_day4,2022.2.4,Linux x86_64,60.00960154,,,,,,down,0,0.0866,,0.10245338,-0.172472911,1,0,0,0,3,3,48,1,steel,images/br_steel.png,images/cb_steel.png,0,,,,,,,,,,,,,,,,,,,,,,
,,,,,00053,2023-10-21_21h18.32.389,vbt_B2_day4,2022.2.4,Linux x86_64,60.00960154,,,,,,down,0,3.1852,,0.059357972,-0.167329164,1,0,0,0,4,4,36,1,vuur,images/br_vuur.png,images/cb_vuur.png,0,,,,,,,,,,,,,,,,,,,,,,
,,,,,00053,2023-10-21_21h18.32.389,vbt_B2_day4,2022.2.4,Linux x86_64,60.00960154,,,,,,down,0,2.9534,,0.059357972,-0.167329164,1,0,0,0,5,5,87,1,toeval,images/br_toeval.png,images/cb_toeval.png,0,,,,,,,,,,,,,,,,,,,,,,
,,,,,00053,2023-10-21_21h18.32.389,vbt_B2_day4,2022.2.4,Linux x86_64,60.00960154,,,,,,down,0,0.3343,,0.059357972,-0.167329164,1,0,0,0,6,6,15,1,soda,images/br_soda.png,images/cb_soda.png,0,,,,,,,,,,,,,,,,,,,,,,
,,,,,00053,2023-10-21_21h18.32.389,vbt_B2_day4,2022.2.4,Linux x86_64,60.00960154,,,,,,down,0,5.3304,,0.059357972,-0.167329164,1,0,0,0,7,7,187,1,opkijken,images/br_opkijken.png,images/cb_opkijken.png,1,opkijken ,,,,,,,,,,,,,,,,,,,,,
,,,,,00053,2023-10-21_21h18.32.389,vbt_B2_day4,2022.2.4,Linux x86_64,60.00960154,,,,,,down,0,0.6803,,0.059357972,-0.167329164,1,0,0,0,8,8,176,1,techniek,images/br_techniek.png,images/cb_techniek.png,0,,,,,,,,,,,,,,,,,,,,,,
,,,,,00053,2023-10-21_21h18.32.389,vbt_B2_day4,2022.2.4,Linux x86_64,60.00960154,,,,,,down,0,0.8713,,0.496520607,-0.499392214,1,0,0,0,9,9,143,1,hechten,images/br_hechten.png,images/cb_hechten.png,0,,,,,,,,,,,,,,,,,,,,,,
,,,,,00053,2023-10-21_21h18.32.389,vbt_B2_day4,2022.2.4,Linux x86_64,60.00960154,,,,,,down,0,2.1503,,0.023869878,-0.123060948,1,0,0,0,10,10,12,1,kust,images/br_kust.png,images/cb_kust.png,0,,,,,,,,,,,,,,,,,,,,,,
,,,,,00053,2023-10-21_21h18.32.389,vbt_B2_day4,2022.2.4,Linux x86_64,60.00960154,,,,,,down,0,2.8719,,0.020932026,-0.123244559,1,0,0,0,11,11,62,1,knaap,images/br_knaap.png,images/cb_knaap.png,0,,,,,,,,,,,,,,,,,,,,,,
,,,,,00053,2023-10-21_21h18.32.389,vbt_B2_day4,2022.2.4,Linux x86_64,60.00960154,,,,,,down,0,0.4523,,0.019463062,-0.124529874,1,0,0,0,12,12,152,1,afnemen,images/br_afnemen.png,images/cb_afnemen.png,0,,,,,,,,,,,,,,,,,,,,,,
,,,,,00053,2023-10-21_21h18.32.389,vbt_B2_day4,2022.2.4,Linux x86_64,60.00960154,,,,,,down,0,0.3037,,0.019463062,-0.124529874,1,0,0,0,13,13,173,1,apparaat,images/br_apparaat.png,images/cb_apparaat.png,0,,,,,,,,,,,,,,,,,,,,,,
,,,,,00053,2023-10-21_21h18.32.389,vbt_B2_day4,2022.2.4,Linux x86_64,60.00960154,,,,,,down,0,0.4028,,0.01927949,-0.124713485,1,0,0,0,14,14,155,1,gerucht,images/br_gerucht.png,images/cb_gerucht.png,0,,,,,,,,,,,,,,,,,,,,,,
,,,,,00053,2023-10-21_21h18.32.389,vbt_B2_day4,2022.2.4,Linux x86_64,60.00960154,,,,,,down,0,1.8687,,0.018728696,-0.122510077,1,0,0,0,15,15,111,1,ticket,images/br_ticket.png,images/cb_ticket.png,0,,,,,,,,,,,,,,,,,,,,,,
,,,,,00053,2023-10-21_21h18.32.389,vbt_B2_day4,2022.2.4,Linux x86_64,60.00960154,,,,,,down,0,5.6954,,0.018728696,-0.122510077,1,0,0,0,16,16,145,1,invloed,images/br_invloed.png,images/cb_invloed.png,1,invloed ,,,,,,,,,,,,,,,,,,,,,
,,,,,00053,2023-10-21_21h18.32.389,vbt_B2_day4,2022.2.4,Linux x86_64,60.00960154,,,,,,down,0,0.4038,,0.017259654,-0.122142855,1,0,0,0,17,17,130,1,keihard,images/br_keihard.png,images/cb_keihard.png,0,,,,,,,,,,,,,,,,,,,,,,
,,,,,00053,2023-10-21_21h18.32.389,vbt_B2_day4,2022.2.4,Linux x86_64,60.00960154,,,,,,down,0,0.3128,,0.017076082,-0.122142855,1,0,0,0,18,18,196,1,nakijken,images/br_nakijken.png,images/cb_nakijken.png,0,,,,,,,,,,,,,,,,,,,,,,
,,,,,00053,2023-10-21_21h18.32.389,vbt_B2_day4,2022.2.4,Linux x86_64,60.00960154,,,,,,down,0,9.3382,,0.017076082,-0.122142855,1,0,0,0,19,19,67,1,zwart,images/br_zwart.png,images/cb_zwart.png,1,zwart ,,,,,,,,,,,,,,,,,,,,,
,,,,,00053,2023-10-21_21h18.32.389,vbt_B2_day4,2022.2.4,Linux x86_64,60.00960154,,,,,,down,0,0.3211,,0.015423545,-0.119939525,1,0,0,0,20,20,120,1,klimmen,images/br_klimmen.png,images/cb_klimmen.png,0,,,,,,,,,,,,,,,,,,,,,,
,,,,,00053,2023-10-21_21h18.32.389,vbt_B2_day4,2022.2.4,Linux x86_64,60.00960154,,,,,,down,0,0.315,,0.013771009,-0.12085754,1,0,0,0,21,21,169,1,oprotten,images/br_oprotten.png,images/cb_oprotten.png,0,,,,,,,,,,,,,,,,,,,,,,
,,,,,00053,2023-10-21_21h18.32.389,vbt_B2_day4,2022.2.4,Linux x86_64,60.00960154,,,,,,down,0,1.0373,,0.01450553,-0.120765793,1,0,0,0,22,22,44,1,flits,images/br_flits.png,images/cb_flits.png,0,,,,,,,,,,,,,,,,,,,,,,
,,,,,00053,2023-10-21_21h18.32.389,vbt_B2_day4,2022.2.4,Linux x86_64,60.00960154,,,,,,down,0,0.2851,,0.013587437,-0.121683808,1,0,0,0,23,23,88,1,boeien,images/br_boeien.png,images/cb_boeien.png,0,,,,,,,,,,,,,,,,,,,,,,
,,,,,00053,2023-10-21_21h18.32.389,vbt_B2_day4,2022.2.4,Linux x86_64,60.00960154,,,,,,down,0,0.9857,,0.013587437,-0.121683808,1,0,0,0,24,24,118,1,vinger,images/br_vinger.png,images/cb_vinger.png,0,,,,,,,,,,,,,,,,,,,,,,
,,,,,00053,2023-10-21_21h18.32.389,vbt_B2_day4,2022.2.4,Linux x86_64,60.00960154,,,,,,down,0,0.417,,0.013587437,-0.121683808,1,0,0,0,25,25,80,1,kanjer,images/br_kanjer.png,images/cb_kanjer.png,0,,,,,,,,,,,,,,,,,,,,,,
,,,,,00053,2023-10-21_21h18.32.389,vbt_B2_day4,2022.2.4,Linux x86_64,60.00960154,,,,,,down,0,0.3833,,0.013587437,-0.121683808,1,0,0,0,26,26,17,1,taal,images/br_taal.png,images/cb_taal.png,0,,,,,,,,,,,,,,,,,,,,,,
,,,,,00053,2023-10-21_21h18.32.389,vbt_B2_day4,2022.2.4,Linux x86_64,60.00960154,,,,,,down,0,0.9,,0.00936427,-0.121132976,1,0,0,0,27,27,174,1,stemming,images/br_stemming.png,images/cb_stemming.png,0,,,,,,,,,,,,,,,,,,,,,,
,,,,,00053,2023-10-21_21h18.32.389,vbt_B2_day4,2022.2.4,Linux x86_64,60.00960154,,,,,,down,0,0.7669,,0.00936427,-0.121132976,1,0,0,0,28,28,75,1,snoep,images/br_snoep.png,images/cb_snoep.png,0,,,,,,,,,,,,,,,,,,,,,,
,,,,,00053,2023-10-21_21h18.32.389,vbt_B2_day4,2022.2.4,Linux x86_64,60.00960154,,,,,,down,0,1.3176,,0.00936427,-0.121132976,0,0,1,0,29,29,124,1,bloeien,images/br_bloeien.png,images/cb_bloeien.png,0,,,,,,,,,,,,,,,,,,,,,,
,,,,,00053,2023-10-21_21h18.32.389,vbt_B2_day4,2022.2.4,Linux x86_64,60.00960154,,,,,,down,0,2.6157,,0.003103852,0.201679964,1,0,1,0,30,30,53,1,baron,images/br_baron.png,images/cb_baron.png,0,,,,,,,,,,,,,,,,,,,,,,
,,,,,00053,2023-10-21_21h18.32.389,vbt_B2_day4,2022.2.4,Linux x86_64,60.00960154,,,,,,down,0,0.4183,,0.003103852,0.201679964,1,0,1,0,31,31,43,1,klauw,images/br_klauw.png,images/cb_klauw.png,0,,,,,,,,,,,,,,,,,,,,,,
,,,,,00053,2023-10-21_21h18.32.389,vbt_B2_day4,2022.2.4,Linux x86_64,60.00960154,,,,,,down,0,1.4496,,-0.04444619,-0.199064724,1,0,1,0,32,32,58,1,tekst,images/br_tekst.png,images/cb_tekst.png,0,,,,,,,,,,,,,,,,,,,,,,
,,,,,00053,2023-10-21_21h18.32.389,vbt_B2_day4,2022.2.4,Linux x86_64,60.00960154,,,,,,down,0,5.6656,,-0.044262618,-0.197962903,1,0,1,0,33,33,164,1,anarchie,images/br_anarchie.png,images/cb_anarchie.png,0,,,,,,,,,,,,,,,,,,,,,,
,,,,,00053,2023-10-21_21h18.32.389,vbt_B2_day4,2022.2.4,Linux x86_64,60.00960154,,,,,,down,0,35.6612,,-0.044262618,-0.197962903,1,0,1,0,34,34,167,1,eenhoorn,images/br_eenhoorn.png,images/cb_eenhoorn.png,0,,,,,,,,,,,,,,,,,,,,,,
,,,,,00053,2023-10-21_21h18.32.389,vbt_B2_day4,2022.2.4,Linux x86_64,60.00960154,,,,,,down,0,0.3349,,-0.044262618,-0.197962903,1,0,1,0,35,35,159,1,sufferd,images/br_sufferd.png,images/cb_sufferd.png,0,,,,,,,,,,,,,,,,,,,,,,
,,,,,00053,2023-10-21_21h18.32.389,vbt_B2_day4,2022.2.4,Linux x86_64,60.00960154,,,,,,down,0,0.3716,,-0.044262618,-0.197962903,1,0,1,0,36,36,103,1,joggen,images/br_joggen.png,images/cb_joggen.png,0,,,,,,,,,,,,,,,,,,,,,,
,,,,,00053,2023-10-21_21h18.32.389,vbt_B2_day4,2022.2.4,Linux x86_64,60.00960154,,,,,,down,0,1.3368,,-0.044262618,-0.197962903,1,0,1,0,37,37,146,1,opkomen,images/br_opkomen.png,images/cb_opkomen.png,1,opkomen,,,,,,,,,,,,,,,,,,,,,
,,,,,00053,2023-10-21_21h18.32.389,vbt_B2_day4,2022.2.4,Linux x86_64,60.00960154,,,,,,down,0,1.1837,,-0.046466026,-0.198880996,1,0,1,0,38,38,49,1,laken,images/br_laken.png,images/cb_laken.png,0,,,,,,,,,,,,,,,,,,,,,,
,,,,,00053,2023-10-21_21h18.32.389,vbt_B2_day4,2022.2.4,Linux x86_64,60.00960154,,,,,,down,0,3.2055,,-0.048852928,-0.198880996,1,0,1,0,39,39,40,1,schep,images/br_schep.png,images/cb_schep.png,0,,,,,,,,,,,,,,,,,,,,,,
,,,,,00053,2023-10-21_21h18.32.389,vbt_B2_day4,2022.2.4,Linux x86_64,60.00960154,,,,,,down,0,26.6169,,-0.048852928,-0.198880996,1,0,1,0,40,40,151,1,aanzoek,images/br_aanzoek.png,images/cb_aanzoek.png,0,,,,,,,,,,,,,,,,,,,,,,
,,,,,00053,2023-10-21_21h18.32.389,vbt_B2_day4,2022.2.4,Linux x86_64,60.00960154,,,,,,down,0,0.3684,,-0.048852928,-0.198880996,1,0,1,0,41,41,30,1,uien,images/br_uien.png,images/cb_uien.png,0,,,,,,,,,,,,,,,,,,,,,,
,,,,,00053,2023-10-21_21h18.32.389,vbt_B2_day4,2022.2.4,Linux x86_64,60.00960154,,,,,,down,0,3.6873,,-0.049954671,-0.198880996,1,0,1,0,42,42,141,1,knielen,images/br_knielen.png,images/cb_knielen.png,0,,,,,,,,,,,,,,,,,,,,,,
,,,,,00053,2023-10-21_21h18.32.389,vbt_B2_day4,2022.2.4,Linux x86_64,60.00960154,,,,,,down,0,0.3689,,-0.049954671,-0.198880996,1,0,1,0,43,43,92,1,geheim,images/br_geheim.png,images/cb_geheim.png,0,,,,,,,,,,,,,,,,,,,,,,
,,,,,00053,2023-10-21_21h18.32.389,vbt_B2_day4,2022.2.4,Linux x86_64,60.00960154,,,,,,down,0,0.5484,,-0.049954671,-0.198880996,1,0,1,0,44,44,51,1,samen,images/br_samen.png,images/cb_samen.png,0,,,,,,,,,,,,,,,,,,,,,,
,,,,,00053,2023-10-21_21h18.32.389,vbt_B2_day4,2022.2.4,Linux x86_64,60.00960154,,,,,,down,0,0.5517,,-0.049954671,-0.198880996,1,0,1,0,45,45,31,1,poes,images/br_poes.png,images/cb_poes.png,0,,,,,,,,,,,,,,,,,,,,,,
,,,,,00053,2023-10-21_21h18.32.389,vbt_B2_day4,2022.2.4,Linux x86_64,60.00960154,,,,,,down,0,3.339,,-0.050689192,-0.200166311,1,0,1,0,46,46,104,1,zweven,images/br_zweven.png,images/cb_zweven.png,1,zweven,,,,,,,,,,,,,,,,,,,,,
,,,,,00053,2023-10-21_21h18.32.389,vbt_B2_day4,2022.2.4,Linux x86_64,60.00960154,,,,,,down,0,2.2848,,-0.053443316,-0.199248218,1,0,1,0,47,47,153,1,vervoer,images/br_vervoer.png,images/cb_vervoer.png,0,,,,,,,,,,,,,,,,,,,,,,
,,,,,00053,2023-10-21_21h18.32.389,vbt_B2_day4,2022.2.4,Linux x86_64,60.00960154,,,,,,down,0,4.0363,,-0.053443316,-0.199248218,1,0,1,0,48,48,10,1,leek,images/br_leek.png,images/cb_leek.png,0,,,,,,,,,,,,,,,,,,,,,,
,,,,,00053,2023-10-21_21h18.32.389,vbt_B2_day4,2022.2.4,Linux x86_64,60.00960154,,,,,,down,0,3.5974,,-0.053443316,-0.199248218,1,0,1,0,49,49,161,1,attentie,images/br_attentie.png,images/cb_attentie.png,0,,,,,,,,,,,,,,,,,,,,,,
,,,,,00053,2023-10-21_21h18.32.389,vbt_B2_day4,2022.2.4,Linux x86_64,60.00960154,,,,,,down,0,0.8341,,-0.053443316,-0.199248218,1,0,1,0,50,50,140,1,blijven,images/br_blijven.png,images/cb_blijven.png,0,,,,,,,,,,,,,,,,,,,,,,
,,,,,00053,2023-10-21_21h18.32.389,vbt_B2_day4,2022.2.4,Linux x86_64,60.00960154,,,,,,down,0,1.1687,,-0.056381245,-0.199248218,1,0,1,0,51,51,189,1,aanraden,images/br_aanraden.png,images/cb_aanraden.png,0,,,,,,,,,,,,,,,,,,,,,,
,,,,,00053,2023-10-21_21h18.32.389,vbt_B2_day4,2022.2.4,Linux x86_64,60.00960154,,,,,,down,0,0.5335,,-0.056381245,-0.199248218,1,0,1,0,52,52,20,1,site,images/br_site.png,images/cb_site.png,0,,,,,,,,,,,,,,,,,,,,,,
,,,,,00053,2023-10-21_21h18.32.389,vbt_B2_day4,2022.2.4,Linux x86_64,60.00960154,,,,,,down,0,0.3709,,-0.056381245,-0.199248218,1,0,1,0,53,53,126,1,kasteel,images/br_kasteel.png,images/cb_kasteel.png,0,,,,,,,,,,,,,,,,,,,,,,
,,,,,00053,2023-10-21_21h18.32.389,vbt_B2_day4,2022.2.4,Linux x86_64,60.00960154,,,,,,down,0,0.4188,,-0.056381245,-0.199248218,1,0,1,0,54,54,117,1,kennis,images/br_kennis.png,images/cb_kennis.png,0,,,,,,,,,,,,,,,,,,,,,,
,,,,,00053,2023-10-21_21h18.32.389,vbt_B2_day4,2022.2.4,Linux x86_64,60.00960154,,,,,,down,0,1.9873,,-0.056381245,-0.199248218,1,0,1,0,55,55,57,1,steek,images/br_steek.png,images/cb_steek.png,0,,,,,,,,,,,,,,,,,,,,,,
,,,,,00053,2023-10-21_21h18.32.389,vbt_B2_day4,2022.2.4,Linux x86_64,60.00960154,,,,,,down,0,0.353,,-0.056381245,-0.199248218,1,0,1,0,56,56,39,1,laag,images/br_laag.png,images/cb_laag.png,0,,,,,,,,,,,,,,,,,,,,,,
,,,,,00053,2023-10-21_21h18.32.389,vbt_B2_day4,2022.2.4,Linux x86_64,60.00960154,,,,,,down,0,0.535,,-0.056197673,-0.196310366,1,0,1,0,57,57,79,1,nodig,images/br_nodig.png,images/cb_nodig.png,0,,,,,,,,,,,,,,,,,,,,,,
,,,,,00053,2023-10-21_21h18.32.389,vbt_B2_day4,2022.2.4,Linux x86_64,60.00960154,,,,,,down,0,0.6027,,-0.056197673,-0.196310366,1,0,1,0,58,58,13,1,kaal,images/br_kaal.png,images/cb_kaal.png,0,,,,,,,,,,,,,,,,,,,,,,
,,,,,00053,2023-10-21_21h18.32.389,vbt_B2_day4,2022.2.4,Linux x86_64,60.00960154,,,,,,down,0,0.286,,-0.056197673,-0.196310366,1,0,1,0,59,59,125,1,aanzien,images/br_aanzien.png,images/cb_aanzien.png,0,,,,,,,,,,,,,,,,,,,,,,
,,,,,00053,2023-10-21_21h18.32.389,vbt_B2_day4,2022.2.4,Linux x86_64,60.00960154,,,,,,down,0,2.2858,,-0.056197673,-0.196310366,1,0,1,0,60,60,129,1,verhaal,images/br_verhaal.png,images/cb_verhaal.png,0,,,,,,,,,,,,,,,,,,,,,,
,,,,,00053,2023-10-21_21h18.32.389,vbt_B2_day4,2022.2.4,Linux x86_64,60.00960154,,,,,,down,0,0.2158,,-0.056197673,-0.196310366,1,0,1,0,61,61,109,1,totaal,images/br_totaal.png,images/cb_totaal.png,0,,,,,,,,,,,,,,,,,,,,,,
,,,,,00053,2023-10-21_21h18.32.389,vbt_B2_day4,2022.2.4,Linux x86_64,60.00960154,,,,,,down,0,0.3542,,-0.056197673,-0.196310366,1,0,1,0,62,62,98,1,kreeft,images/br_kreeft.png,images/cb_kreeft.png,0,,,,,,,,,,,,,,,,,,,,,,
,,,,,00053,2023-10-21_21h18.32.389,vbt_B2_day4,2022.2.4,Linux x86_64,60.00960154,,,,,,down,0,0.9515,,-0.056197673,-0.196310366,1,0,1,0,63,63,100,1,geduld,images/br_geduld.png,images/cb_geduld.png,0,,,,,,,,,,,,,,,,,,,,,,
,,,,,00053,2023-10-21_21h18.32.389,vbt_B2_day4,2022.2.4,Linux x86_64,60.00960154,,,,,,down,0,0.5533,,-0.056197673,-0.196310366,1,0,1,0,64,64,3,1,mand,images/br_mand.png,images/cb_mand.png,0,,,,,,,,,,,,,,,,,,,,,,
,,,,,00053,2023-10-21_21h18.32.389,vbt_B2_day4,2022.2.4,Linux x86_64,60.00960154,,,,,,down,0,0.334,,-0.056197673,-0.196310366,1,0,1,0,65,65,134,1,geliefd,images/br_geliefd.png,images/cb_geliefd.png,0,,,,,,,,,,,,,,,,,,,,,,
,,,,,00053,2023-10-21_21h18.32.389,vbt_B2_day4,2022.2.4,Linux x86_64,60.00960154,,,,,,down,0,0.2508,,-0.056197673,-0.196310366,1,0,1,0,66,66,54,1,gebit,images/br_gebit.png,images/cb_gebit.png,0,,,,,,,,,,,,,,,,,,,,,,
,,,,,00053,2023-10-21_21h18.32.389,vbt_B2_day4,2022.2.4,Linux x86_64,60.00960154,,,,,,down,0,0.6996,,-0.056197673,-0.196310366,1,0,1,0,67,67,2,1,jaar,images/br_jaar.png,images/cb_jaar.png,0,,,,,,,,,,,,,,,,,,,,,,
,,,,,00053,2023-10-21_21h18.32.389,vbt_B2_day4,2022.2.4,Linux x86_64,60.00960154,,,,,,down,0,7.4983,,-0.056197673,-0.196310366,1,0,1,0,68,68,184,1,aandelen,images/br_aandelen.png,images/cb_aandelen.png,1,aandelen,,,,,,,,,,,,,,,,,,,,,
,,,,,00053,2023-10-21_21h18.32.389,vbt_B2_day4,2022.2.4,Linux x86_64,60.00960154,,,,,,down,0,0.7054,,-0.056197673,-0.196310366,1,0,1,0,69,69,112,1,lukken,images/br_lukken.png,images/cb_lukken.png,0,,,,,,,,,,,,,,,,,,,,,,
,,,,,00053,2023-10-21_21h18.32.389,vbt_B2_day4,2022.2.4,Linux x86_64,60.00960154,,,,,,down,0,0.3019,,-0.056564895,-0.19465783,1,0,1,0,70,70,115,1,kleren,images/br_kleren.png,images/cb_kleren.png,0,,,,,,,,,,,,,,,,,,,,,,
,,,,,00053,2023-10-21_21h18.32.389,vbt_B2_day4,2022.2.4,Linux x86_64,60.00960154,,,,,,down,0,0.6332,,-0.056564895,-0.19465783,1,0,1,0,71,71,179,1,woestijn,images/br_woestijn.png,images/cb_woestijn.png,0,,,,,,,,,,,,,,,,,,,,,,
,,,,,00053,2023-10-21_21h18.32.389,vbt_B2_day4,2022.2.4,Linux x86_64,60.00960154,,,,,,down,0,0.7879,,-0.056564895,-0.19465783,1,0,1,0,72,72,175,1,heengaan,images/br_heengaan.png,images/cb_heengaan.png,0,,,,,,,,,,,,,,,,,,,,,,
,,,,,00053,2023-10-21_21h18.32.389,vbt_B2_day4,2022.2.4,Linux x86_64,60.00960154,,,,,,down,0,5.1373,,-0.056564895,-0.19465783,1,0,1,0,73,73,29,1,baas,images/br_baas.png,images/cb_baas.png,0,,,,,,,,,,,,,,,,,,,,,,
,,,,,00053,2023-10-21_21h18.32.389,vbt_B2_day4,2022.2.4,Linux x86_64,60.00960154,,,,,,down,0,0.7668,,-0.056564895,-0.19465783,1,0,1,0,74,74,41,1,maken,images/br_maken.png,images/cb_maken.png,0,,,,,,,,,,,,,,,,,,,,,,
,,,,,00053,2023-10-21_21h18.32.389,vbt_B2_day4,2022.2.4,Linux x86_64,60.00960154,,,,,,down,0,1.9193,,-0.056564895,-0.19465783,1,0,1,0,75,75,148,1,smullen,images/br_smullen.png,images/cb_smullen.png,0,,,,,,,,,,,,,,,,,,,,,,
,,,,,00053,2023-10-21_21h18.32.389,vbt_B2_day4,2022.2.4,Linux x86_64,60.00960154,,,,,,down,0,4.3342,,-0.05766656,-0.195025052,1,0,1,0,76,76,7,1,geld,images/br_geld.png,images/cb_geld.png,0,,,,,,,,,,,,,,,,,,,,,,
,,,,,00053,2023-10-21_21h18.32.389,vbt_B2_day4,2022.2.4,Linux x86_64,60.00960154,,,,,,down,0,0.533,,-0.05766656,-0.195025052,1,0,1,0,77,77,135,1,gedicht,images/br_gedicht.png,images/cb_gedicht.png,0,,,,,,,,,,,,,,,,,,,,,,
,,,,,00053,2023-10-21_21h18.32.389,vbt_B2_day4,2022.2.4,Linux x86_64,60.00960154,,,,,,down,0,0.353,,-0.05766656,-0.195025052,1,0,1,0,78,78,9,1,hier,images/br_hier.png,images/cb_hier.png,0,,,,,,,,,,,,,,,,,,,,,,
,,,,,00053,2023-10-21_21h18.32.389,vbt_B2_day4,2022.2.4,Linux x86_64,60.00960154,,,,,,down,0,2.1282,,-0.05766656,-0.195025052,1,0,1,0,79,79,105,1,wijlen,images/br_wijlen.png,images/cb_wijlen.png,1,wijlen ,,,,,,,,,,,,,,,,,,,,,
,,,,,00053,2023-10-21_21h18.32.389,vbt_B2_day4,2022.2.4,Linux x86_64,60.00960154,,,,,,down,0,1.4326,,-0.05766656,-0.195025052,1,0,1,0,80,80,99,1,koffie,images/br_koffie.png,images/cb_koffie.png,0,,,,,,,,,,,,,,,,,,,,,,
,,,,,00053,2023-10-21_21h18.32.389,vbt_B2_day4,2022.2.4,Linux x86_64,60.00960154,,,,,,down,0,4.7601,,-0.060788061,-0.195025052,1,0,1,0,81,81,90,1,geluid,images/br_geluid.png,images/cb_geluid.png,0,,,,,,,,,,,,,,,,,,,,,,
,,,,,00053,2023-10-21_21h18.32.389,vbt_B2_day4,2022.2.4,Linux x86_64,60.00960154,,,,,,down,0,1.6361,,-0.060788061,-0.195025052,1,0,1,0,82,82,84,1,lokken,images/br_lokken.png,images/cb_lokken.png,0,,,,,,,,,,,,,,,,,,,,,,
,,,,,00053,2023-10-21_21h18.32.389,vbt_B2_day4,2022.2.4,Linux x86_64,60.00960154,,,,,,down,0,4.2612,,-0.060788061,-0.195025052,1,0,1,0,83,83,183,1,getuigen,images/br_getuigen.png,images/cb_getuigen.png,0,,,,,,,,,,,,,,,,,,,,,,
,,,,,00053,2023-10-21_21h18.32.389,vbt_B2_day4,2022.2.4,Linux x86_64,60.00960154,,,,,,down,0,2.4387,,-0.060788061,-0.195025052,1,0,1,0,84,84,116,1,besmet,images/br_besmet.png,images/cb_besmet.png,0,,,,,,,,,,,,,,,,,,,,,,
,,,,,00053,2023-10-21_21h18.32.389,vbt_B2_day4,2022.2.4,Linux x86_64,60.00960154,,,,,,down,0,3.4311,,-0.060788061,-0.195025052,1,0,1,0,85,85,21,1,mist,images/br_mist.png,images/cb_mist.png,0,,,,,,,,,,,,,,,,,,,,,,
,,,,,00053,2023-10-21_21h18.32.389,vbt_B2_day4,2022.2.4,Linux x86_64,60.00960154,,,,,,down,0,4.8539,,-0.060788061,-0.195025052,1,0,1,0,86,86,46,1,jagen,images/br_jagen.png,images/cb_jagen.png,0,,,,,,,,,,,,,,,,,,,,,,
,,,,,00053,2023-10-21_21h18.32.389,vbt_B2_day4,2022.2.4,Linux x86_64,60.00960154,,,,,,down,0,6.2859,,-0.060788061,-0.195025052,1,0,1,0,87,87,195,1,middelen,images/br_middelen.png,images/cb_middelen.png,0,,,,,,,,,,,,,,,,,,,,,,
,,,,,00053,2023-10-21_21h18.32.389,vbt_B2_day4,2022.2.4,Linux x86_64,60.00960154,,,,,,down,0,0.9709,,-0.060788061,-0.195025052,1,0,1,0,88,88,86,1,woning,images/br_woning.png,images/cb_woning.png,0,,,,,,,,,,,,,,,,,,,,,,
,,,,,00053,2023-10-21_21h18.32.389,vbt_B2_day4,2022.2.4,Linux x86_64,60.00960154,,,,,,down,0,0.7184,,-0.060788061,-0.195025052,1,0,1,0,89,89,142,1,snuiven,images/br_snuiven.png,images/cb_snuiven.png,0,,,,,,,,,,,,,,,,,,,,,,
,,,,,00053,2023-10-21_21h18.32.389,vbt_B2_day4,2022.2.4,Linux x86_64,60.00960154,,,,,,down,0,0.7028,,-0.060788061,-0.195025052,1,0,1,0,90,90,156,1,rechten,images/br_rechten.png,images/cb_rechten.png,0,,,,,,,,,,,,,,,,,,,,,,
,,,,,00053,2023-10-21_21h18.32.389,vbt_B2_day4,2022.2.4,Linux x86_64,60.00960154,,,,,,down,0,0.3487,,-0.060788061,-0.195025052,1,0,1,0,91,91,52,1,wagon,images/br_wagon.png,images/cb_wagon.png,0,,,,,,,,,,,,,,,,,,,,,,
,,,,,00053,2023-10-21_21h18.32.389,vbt_B2_day4,2022.2.4,Linux x86_64,60.00960154,,,,,,down,0,1.6008,,-0.060788061,-0.195025052,1,0,1,0,92,92,0,1,slak,images/br_slak.png,images/cb_slak.png,0,,,,,,,,,,,,,,,,,,,,,,
,,,,,00053,2023-10-21_21h18.32.389,vbt_B2_day4,2022.2.4,Linux x86_64,60.00960154,,,,,,down,0,0.9661,,-0.060788061,-0.195025052,1,0,1,0,93,93,97,1,loyaal,images/br_loyaal.png,images/cb_loyaal.png,0,,,,,,,,,,,,,,,,,,,,,,
,,,,,00053,2023-10-21_21h18.32.389,vbt_B2_day4,2022.2.4,Linux x86_64,60.00960154,,,,,,down,0,0.1488,,-0.060788061,-0.195025052,1,0,1,0,94,94,163,1,schuilen,images/br_schuilen.png,images/cb_schuilen.png,0,,,,,,,,,,,,,,,,,,,,,,
,,,,,00053,2023-10-21_21h18.32.389,vbt_B2_day4,2022.2.4,Linux x86_64,60.00960154,,,,,,down,0,4.2642,,-0.060788061,-0.195025052,1,0,1,0,95,95,16,1,ziek,images/br_ziek.png,images/cb_ziek.png,0,,,,,,,,,,,,,,,,,,,,,,
,,,,,00053,2023-10-21_21h18.32.389,vbt_B2_day4,2022.2.4,Linux x86_64,60.00960154,,,,,,down,0,0.3843,,-0.060788061,-0.195025052,1,0,1,0,96,96,95,1,vreten,images/br_vreten.png,images/cb_vreten.png,0,,,,,,,,,,,,,,,,,,,,,,
,,,,,00053,2023-10-21_21h18.32.389,vbt_B2_day4,2022.2.4,Linux x86_64,60.00960154,,,,,,down,0,0.409,,-0.060788061,-0.195025052,1,0,1,0,97,97,154,1,aflopen,images/br_aflopen.png,images/cb_aflopen.png,0,,,,,,,,,,,,,,,,,,,,,,
,,,,,00053,2023-10-21_21h18.32.389,vbt_B2_day4,2022.2.4,Linux x86_64,60.00960154,,,,,,down,0,0.0523,,-0.060788061,-0.195025052,1,0,1,0,98,98,73,1,volop,images/br_volop.png,images/cb_volop.png,0,,,,,,,,,,,,,,,,,,,,,,
,,,,,00053,2023-10-21_21h18.32.389,vbt_B2_day4,2022.2.4,Linux x86_64,60.00960154,,,,,,down,0,3.6204,,-0.060788061,-0.195025052,1,0,1,0,99,99,107,1,maling,images/br_maling.png,images/cb_maling.png,1,maling,,,,,,,,,,,,,,,,,,,,,
,,,,,00053,2023-10-21_21h18.32.389,vbt_B2_day4,2022.2.4,Linux x86_64,60.00960154,,,,,,down,0,5.4601,,-0.060788061,-0.195025052,1,0,1,0,100,100,147,1,komisch,images/br_komisch.png,images/cb_komisch.png,1,komisch ,,,,,,,,,,,,,,,,,,,,,
,,,,,00053,2023-10-21_21h18.32.389,vbt_B2_day4,2022.2.4,Linux x86_64,60.00960154,,,,,,down,0,0.184,,-0.060788061,-0.195025052,1,0,1,0,101,101,83,1,mening,images/br_mening.png,images/cb_mening.png,0,,,,,,,,,,,,,,,,,,,,,,
,,,,,00053,2023-10-21_21h18.32.389,vbt_B2_day4,2022.2.4,Linux x86_64,60.00960154,,,,,,down,0,4.1167,,-0.060788061,-0.195025052,1,0,1,0,102,102,4,1,moes,images/br_moes.png,images/cb_moes.png,0,,,,,,,,,,,,,,,,,,,,,,
,,,,,00053,2023-10-21_21h18.32.389,vbt_B2_day4,2022.2.4,Linux x86_64,60.00960154,,,,,,down,0,1.7372,,-0.060788061,-0.195025052,1,0,1,0,103,103,182,1,bijkomen,images/br_bijkomen.png,images/cb_bijkomen.png,0,,,,,,,,,,,,,,,,,,,,,,
,,,,,00053,2023-10-21_21h18.32.389,vbt_B2_day4,2022.2.4,Linux x86_64,60.00960154,,,,,,down,0,0.5937,,-0.060788061,-0.195025052,1,0,1,0,104,104,101,1,staren,images/br_staren.png,images/cb_staren.png,0,,,,,,,,,,,,,,,,,,,,,,
,,,,,00053,2023-10-21_21h18.32.389,vbt_B2_day4,2022.2.4,Linux x86_64,60.00960154,,,,,,down,0,2.2197,,-0.060788061,-0.195025052,1,0,1,0,105,105,85,1,heilig,images/br_heilig.png,images/cb_heilig.png,0,,,,,,,,,,,,,,,,,,,,,,
,,,,,00053,2023-10-21_21h18.32.389,vbt_B2_day4,2022.2.4,Linux x86_64,60.00960154,,,,,,down,0,0.5175,,-0.060788061,-0.195025052,1,0,1,0,106,106,19,1,geit,images/br_geit.png,images/cb_geit.png,0,,,,,,,,,,,,,,,,,,,,,,
,,,,,00053,2023-10-21_21h18.32.389,vbt_B2_day4,2022.2.4,Linux x86_64,60.00960154,,,,,,down,0,2.1206,,-0.060788061,-0.195025052,1,0,1,0,107,107,192,1,schaamte,images/br_schaamte.png,images/cb_schaamte.png,0,,,,,,,,,,,,,,,,,,,,,,
,,,,,00053,2023-10-21_21h18.32.389,vbt_B2_day4,2022.2.4,Linux x86_64,60.00960154,,,,,,down,0,0.5339,,-0.060788061,-0.195025052,1,0,1,0,108,108,38,1,baai,images/br_baai.png,images/cb_baai.png,0,,,,,,,,,,,,,,,,,,,,,,
,,,,,00053,2023-10-21_21h18.32.389,vbt_B2_day4,2022.2.4,Linux x86_64,60.00960154,,,,,,down,0,0.256,,0.046338824,-0.013161707,1,0,1,0,109,109,42,1,bleek,images/br_bleek.png,images/cb_bleek.png,0,,,,,,,,,,,,,,,,,,,,,,
,,,,,00053,2023-10-21_21h18.32.389,vbt_B2_day4,2022.2.4,Linux x86_64,60.00960154,,,,,,down,0,0.6672,,0.046338824,-0.013161707,1,0,1,0,110,110,27,1,dans,images/br_dans.png,images/cb_dans.png,1,dans,,,,,,,,,,,,,,,,,,,,,
,,,,,00053,2023-10-21_21h18.32.389,vbt_B2_day4,2022.2.4,Linux x86_64,60.00960154,,,,,,down,0,0.3699,,0.046338824,-0.013161707,1,0,1,0,111,111,127,1,doodmoe,images/br_doodmoe.png,images/cb_doodmoe.png,0,,,,,,,,,,,,,,,,,,,,,,
,,,,,00053,2023-10-21_21h18.32.389,vbt_B2_day4,2022.2.4,Linux x86_64,60.00960154,,,,,,down,0,0.3161,,0.046338824,-0.013161707,1,0,1,0,112,112,121,1,twijfel,images/br_twijfel.png,images/cb_twijfel.png,0,,,,,,,,,,,,,,,,,,,,,,
,,,,,00053,2023-10-21_21h18.32.389,vbt_B2_day4,2022.2.4,Linux x86_64,60.00960154,,,,,,down,0,2.2013,,0.046338824,-0.013161707,1,0,1,0,113,113,45,1,piste,images/br_piste.png,images/cb_piste.png,0,,,,,,,,,,,,,,,,,,,,,,
,,,,,00053,2023-10-21_21h18.32.389,vbt_B2_day4,2022.2.4,Linux x86_64,60.00960154,,,,,,down,0,0.5808,,0.046338824,-0.013161707,1,0,1,0,114,114,11,1,mode,images/br_mode.png,images/cb_mode.png,0,,,,,,,,,,,,,,,,,,,,,,
,,,,,00053,2023-10-21_21h18.32.389,vbt_B2_day4,2022.2.4,Linux x86_64,60.00960154,,,,,,down,0,0.5358,,0.046338824,-0.013161707,1,0,1,0,115,115,158,1,innemen,images/br_innemen.png,images/cb_innemen.png,0,,,,,,,,,,,,,,,,,,,,,,
,,,,,00053,2023-10-21_21h18.32.389,vbt_B2_day4,2022.2.4,Linux x86_64,60.00960154,,,,,,down,0,1.3825,,0.046338824,-0.013161707,1,0,1,0,116,116,181,1,toegeven,images/br_toegeven.png,images/cb_toegeven.png,0,,,,,,,,,,,,,,,,,,,,,,
,,,,,00053,2023-10-21_21h18.32.389,vbt_B2_day4,2022.2.4,Linux x86_64,60.00960154,,,,,,down,0,0.531,,0.046338824,-0.013161707,1,0,1,0,117,117,166,1,strikken,images/br_strikken.png,images/cb_strikken.png,0,,,,,,,,,,,,,,,,,,,,,,
,,,,,00053,2023-10-21_21h18.32.389,vbt_B2_day4,2022.2.4,Linux x86_64,60.00960154,,,,,,down,0,0.4741,,0.046338824,-0.013161707,1,0,1,0,118,118,70,1,ijdel,images/br_ijdel.png,images/cb_ijdel.png,0,,,,,,,,,,,,,,,,,,,,,,
,,,,,00053,2023-10-21_21h18.32.389,vbt_B2_day4,2022.2.4,Linux x86_64,60.00960154,,,,,,down,0,0.2186,,0.046338824,-0.013161707,1,0,1,0,119,119,47,1,kabel,images/br_kabel.png,images/cb_kabel.png,0,,,,,,,,,,,,,,,,,,,,,,
,,,,,00053,2023-10-21_21h18.32.389,vbt_B2_day4,2022.2.4,Linux x86_64,60.00960154,,,,,,down,0,0.3857,,0.046338824,-0.013161707,1,0,1,0,120,120,170,1,schatten,images/br_schatten.png,images/cb_schatten.png,0,,,,,,,,,,,,,,,,,,,,,,
,,,,,00053,2023-10-21_21h18.32.389,vbt_B2_day4,2022.2.4,Linux x86_64,60.00960154,,,,,,down,0,1.1313,,0.046338824,-0.013161707,1,0,1,0,121,121,37,1,mijn,images/br_mijn.png,images/cb_mijn.png,0,,,,,,,,,,,,,,,,,,,,,,
,,,,,00053,2023-10-21_21h18.32.389,vbt_B2_day4,2022.2.4,Linux x86_64,60.00960154,,,,,,down,0,0.6017,,0.046338824,-0.013161707,1,0,1,0,122,122,180,1,openbaar,images/br_openbaar.png,images/cb_openbaar.png,0,,,,,,,,,,,,,,,,,,,,,,
,,,,,00053,2023-10-21_21h18.32.389,vbt_B2_day4,2022.2.4,Linux x86_64,60.00960154,,,,,,down,0,0.6491,,0.046338824,-0.013161707,1,0,1,0,123,123,68,1,schat,images/br_schat.png,images/cb_schat.png,0,,,,,,,,,,,,,,,,,,,,,,
,,,,,00053,2023-10-21_21h18.32.389,vbt_B2_day4,2022.2.4,Linux x86_64,60.00960154,,,,,,down,0,0.4349,,0.045237003,-0.014263333,1,0,1,0,124,124,133,1,seizoen,images/br_seizoen.png,images/cb_seizoen.png,0,,,,,,,,,,,,,,,,,,,,,,
,,,,,00053,2023-10-21_21h18.32.389,vbt_B2_day4,2022.2.4,Linux x86_64,60.00960154,,,,,,down,0,0.8809,,0.004733218,0.053863214,1,0,1,0,125,125,139,1,stiekem,images/br_stiekem.png,images/cb_stiekem.png,0,,,,,,,,,,,,,,,,,,,,,,
,,,,,00053,2023-10-21_21h18.32.389,vbt_B2_day4,2022.2.4,Linux x86_64,60.00960154,,,,,,down,0,0.3754,,0.004733218,0.053863214,1,0,1,0,126,126,150,1,gegeven,images/br_gegeven.png,images/cb_gegeven.png,0,,,,,,,,,,,,,,,,,,,,,,
,,,,,00053,2023-10-21_21h18.32.389,vbt_B2_day4,2022.2.4,Linux x86_64,60.00960154,,,,,,down,0,0.5028,,0.004733218,0.053863214,1,0,1,0,127,127,76,1,afval,images/br_afval.png,images/cb_afval.png,0,,,,,,,,,,,,,,,,,,,,,,
,,,,,00053,2023-10-21_21h18.32.389,vbt_B2_day4,2022.2.4,Linux x86_64,60.00960154,,,,,,down,0,3.1346,,0.003264176,0.053863214,1,0,1,0,128,128,60,1,jasje,images/br_jasje.png,images/cb_jasje.png,0,,,,,,,,,,,,,,,,,,,,,,
,,,,,00053,2023-10-21_21h18.32.389,vbt_B2_day4,2022.2.4,Linux x86_64,60.00960154,,,,,,down,0,0.6534,,0.003264176,0.053863214,1,0,1,0,129,129,110,1,zuster,images/br_zuster.png,images/cb_zuster.png,0,,,,,,,,,,,,,,,,,,,,,,
,,,,,00053,2023-10-21_21h18.32.389,vbt_B2_day4,2022.2.4,Linux x86_64,60.00960154,,,,,,down,0,0.5214,,0.003264176,0.053863214,1,0,1,0,130,130,82,1,muziek,images/br_muziek.png,images/cb_muziek.png,0,,,,,,,,,,,,,,,,,,,,,,
,,,,,00053,2023-10-21_21h18.32.389,vbt_B2_day4,2022.2.4,Linux x86_64,60.00960154,,,,,,down,0,0.3652,,0.003264176,0.053863214,1,0,1,0,131,131,177,1,maaltijd,images/br_maaltijd.png,images/cb_maaltijd.png,0,,,,,,,,,,,,,,,,,,,,,,
,,,,,00053,2023-10-21_21h18.32.389,vbt_B2_day4,2022.2.4,Linux x86_64,60.00960154,,,,,,down,0,0.4406,,0.003264176,0.053863214,1,0,1,0,132,132,162,1,uitdelen,images/br_uitdelen.png,images/cb_uitdelen.png,0,,,,,,,,,,,,,,,,,,,,,,
,,,,,00053,2023-10-21_21h18.32.389,vbt_B2_day4,2022.2.4,Linux x86_64,60.00960154,,,,,,down,0,0.0516,,0.003264176,0.053863214,1,0,1,0,133,133,77,1,woede,images/br_woede.png,images/cb_woede.png,0,,,,,,,,,,,,,,,,,,,,,,
,,,,,00053,2023-10-21_21h18.32.389,vbt_B2_day4,2022.2.4,Linux x86_64,60.00960154,,,,,,down,0,1.6184,,0.003264176,0.053863214,1,0,1,0,134,134,55,1,praat,images/br_praat.png,images/cb_praat.png,0,,,,,,,,,,,,,,,,,,,,,,
,,,,,00053,2023-10-21_21h18.32.389,vbt_B2_day4,2022.2.4,Linux x86_64,60.00960154,,,,,,down,0,0.601,,0.003264176,0.053863214,1,0,1,0,135,135,131,1,opzicht,images/br_opzicht.png,images/cb_opzicht.png,0,,,,,,,,,,,,,,,,,,,,,,
,,,,,00053,2023-10-21_21h18.32.389,vbt_B2_day4,2022.2.4,Linux x86_64,60.00960154,,,,,,down,0,1.1543,,0.003264176,0.053863214,1,0,1,0,136,136,23,1,zout,images/br_zout.png,images/cb_zout.png,0,,,,,,,,,,,,,,,,,,,,,,
,,,,,00053,2023-10-21_21h18.32.389,vbt_B2_day4,2022.2.4,Linux x86_64,60.00960154,,,,,,down,0,0.3526,,0.003264176,0.053863214,1,0,1,0,137,137,171,1,aarzelen,images/br_aarzelen.png,images/cb_aarzelen.png,0,,,,,,,,,,,,,,,,,,,,,,
,,,,,00053,2023-10-21_21h18.32.389,vbt_B2_day4,2022.2.4,Linux x86_64,60.00960154,,,,,,down,0,3.0152,,0.003264176,0.053863214,1,0,1,0,138,138,61,1,groen,images/br_groen.png,images/cb_groen.png,0,,,,,,,,,,,,,,,,,,,,,,
,,,,,00053,2023-10-21_21h18.32.389,vbt_B2_day4,2022.2.4,Linux x86_64,60.00960154,,,,,,down,0,1.1312,,0.003264176,0.053863214,1,0,1,0,139,139,35,1,lust,images/br_lust.png,images/cb_lust.png,0,,,,,,,,,,,,,,,,,,,,,,
,,,,,00053,2023-10-21_21h18.32.389,vbt_B2_day4,2022.2.4,Linux x86_64,60.00960154,,,,,,down,0,0.9035,,0.003264176,0.053863214,1,0,1,0,140,140,26,1,leuk,images/br_leuk.png,images/cb_leuk.png,1,leuk,,,,,,,,,,,,,,,,,,,,,
,,,,,00053,2023-10-21_21h18.32.389,vbt_B2_day4,2022.2.4,Linux x86_64,60.00960154,,,,,,down,0,1.505,,0.003264176,0.053863214,1,0,1,0,141,141,197,1,spanning,images/br_spanning.png,images/cb_spanning.png,0,,,,,,,,,,,,,,,,,,,,,,
,,,,,00053,2023-10-21_21h18.32.389,vbt_B2_day4,2022.2.4,Linux x86_64,60.00960154,,,,,,down,0,5.1851,,0.003264176,0.053863214,1,0,1,0,142,142,71,1,bever,images/br_bever.png,images/cb_bever.png,0,,,,,,,,,,,,,,,,,,,,,,
,,,,,00053,2023-10-21_21h18.32.389,vbt_B2_day4,2022.2.4,Linux x86_64,60.00960154,,,,,,down,0,0.5297,,0.003264176,0.053863214,1,0,1,0,143,143,119,1,liefje,images/br_liefje.png,images/cb_liefje.png,0,,,,,,,,,,,,,,,,,,,,,,
,,,,,00053,2023-10-21_21h18.32.389,vbt_B2_day4,2022.2.4,Linux x86_64,60.00960154,,,,,,down,0,1.4491,,0.003264176,0.053863214,1,0,1,0,144,144,74,1,graaf,images/br_graaf.png,images/cb_graaf.png,0,,,,,,,,,,,,,,,,,,,,,,
,,,,,00053,2023-10-21_21h18.32.389,vbt_B2_day4,2022.2.4,Linux x86_64,60.00960154,,,,,,down,0,0.8191,,0.003264176,0.053863214,1,0,1,0,145,145,56,1,traag,images/br_traag.png,images/cb_traag.png,0,,,,,,,,,,,,,,,,,,,,,,
,,,,,00053,2023-10-21_21h18.32.389,vbt_B2_day4,2022.2.4,Linux x86_64,60.00960154,,,,,,down,0,0.5148,,0.003264176,0.053863214,1,0,1,0,146,146,78,1,leren,images/br_leren.png,images/cb_leren.png,0,,,,,,,,,,,,,,,,,,,,,,
,,,,,00053,2023-10-21_21h18.32.389,vbt_B2_day4,2022.2.4,Linux x86_64,60.00960154,,,,,,down,0,0.8827,,0.003264176,0.053863214,1,0,1,0,147,147,191,1,opheffen,images/br_opheffen.png,images/cb_opheffen.png,0,,,,,,,,,,,,,,,,,,,,,,
,,,,,00053,2023-10-21_21h18.32.389,vbt_B2_day4,2022.2.4,Linux x86_64,60.00960154,,,,,,down,0,0.3349,,0.003264176,0.053863214,1,0,1,0,148,148,59,1,kring,images/br_kring.png,images/cb_kring.png,0,,,,,,,,,,,,,,,,,,,,,,
,,,,,00053,2023-10-21_21h18.32.389,vbt_B2_day4,2022.2.4,Linux x86_64,60.00960154,,,,,,down,0,0.5698,,0.003264176,0.053863214,1,0,1,0,149,149,5,1,blad,images/br_blad.png,images/cb_blad.png,0,,,,,,,,,,,,,,,,,,,,,,
,,,,,00053,2023-10-21_21h18.32.389,vbt_B2_day4,2022.2.4,Linux x86_64,60.00960154,,,,,,down,0,0.6369,,0.003264176,0.053863214,1,0,1,0,150,150,172,1,weigeren,images/br_weigeren.png,images/cb_weigeren.png,0,,,,,,,,,,,,,,,,,,,,,,
,,,,,00053,2023-10-21_21h18.32.389,vbt_B2_day4,2022.2.4,Linux x86_64,60.00960154,,,,,,down,0,0.4366,,0.003264176,0.053863214,1,0,1,0,151,151,81,1,dubbel,images/br_dubbel.png,images/cb_dubbel.png,0,,,,,,,,,,,,,,,,,,,,,,
,,,,,00053,2023-10-21_21h18.32.389,vbt_B2_day4,2022.2.4,Linux x86_64,60.00960154,,,,,,down,0,0.2974,,0.003264176,0.053863214,1,0,1,0,152,152,63,1,flirt,images/br_flirt.png,images/cb_flirt.png,0,,,,,,,,,,,,,,,,,,,,,,
,,,,,00053,2023-10-21_21h18.32.389,vbt_B2_day4,2022.2.4,Linux x86_64,60.00960154,,,,,,down,0,0.1357,,0.003264176,0.053863214,1,0,1,0,153,153,136,1,waarbij,images/br_waarbij.png,images/cb_waarbij.png,0,,,,,,,,,,,,,,,,,,,,,,
,,,,,00053,2023-10-21_21h18.32.389,vbt_B2_day4,2022.2.4,Linux x86_64,60.00960154,,,,,,down,0,0.3027,,0.003264176,0.053863214,1,0,1,0,154,154,188,1,strekken,images/br_strekken.png,images/cb_strekken.png,0,,,,,,,,,,,,,,,,,,,,,,
,,,,,00053,2023-10-21_21h18.32.389,vbt_B2_day4,2022.2.4,Linux x86_64,60.00960154,,,,,,down,0,1.502,,0.003264176,0.053863214,1,0,1,0,155,155,94,1,oceaan,images/br_oceaan.png,images/cb_oceaan.png,0,,,,,,,,,,,,,,,,,,,,,,
,,,,,00053,2023-10-21_21h18.32.389,vbt_B2_day4,2022.2.4,Linux x86_64,60.00960154,,,,,,down,0,3.221,,0.003264176,0.053863214,1,0,1,0,156,156,185,1,mijnheer,images/br_mijnheer.png,images/cb_mijnheer.png,1,mijnheer,,,,,,,,,,,,,,,,,,,,,
,,,,,00053,2023-10-21_21h18.32.389,vbt_B2_day4,2022.2.4,Linux x86_64,60.00960154,,,,,,down,0,0.9464,,0.003264176,0.053863214,1,0,1,0,157,157,128,1,prikken,images/br_prikken.png,images/cb_prikken.png,0,,,,,,,,,,,,,,,,,,,,,,
,,,,,00053,2023-10-21_21h18.32.389,vbt_B2_day4,2022.2.4,Linux x86_64,60.00960154,,,,,,down,0,0.8207,,0.003264176,0.053863214,1,0,1,0,158,158,25,1,plek,images/br_plek.png,images/cb_plek.png,1,plek,,,,,,,,,,,,,,,,,,,,,
,,,,,00053,2023-10-21_21h18.32.389,vbt_B2_day4,2022.2.4,Linux x86_64,60.00960154,,,,,,down,0,4.0824,,0.003264176,0.053863214,1,0,1,0,159,159,157,1,uitlaat,images/br_uitlaat.png,images/cb_uitlaat.png,0,,,,,,,,,,,,,,,,,,,,,,
,,,,,00053,2023-10-21_21h18.32.389,vbt_B2_day4,2022.2.4,Linux x86_64,60.00960154,,,,,,down,0,6.2835,,0.003264176,0.053863214,1,0,1,0,160,160,106,1,zingen,images/br_zingen.png,images/cb_zingen.png,1,zingen,,,,,,,,,,,,,,,,,,,,,
,,,,,00053,2023-10-21_21h18.32.389,vbt_B2_day4,2022.2.4,Linux x86_64,60.00960154,,,,,,down,0,0.051,,-0.007936825,0.056066584,1,0,1,0,161,161,72,1,strak,images/br_strak.png,images/cb_strak.png,0,,,,,,,,,,,,,,,,,,,,,,
,,,,,00053,2023-10-21_21h18.32.389,vbt_B2_day4,2022.2.4,Linux x86_64,60.00960154,,,,,,down,0,0.9908,,-0.007936825,0.056066584,1,0,1,0,162,162,160,1,daarheen,images/br_daarheen.png,images/cb_daarheen.png,0,,,,,,,,,,,,,,,,,,,,,,
,,,,,00053,2023-10-21_21h18.32.389,vbt_B2_day4,2022.2.4,Linux x86_64,60.00960154,,,,,,down,0,1.7658,,-0.009956739,0.060198042,1,0,1,0,163,163,18,1,blik,images/br_blik.png,images/cb_blik.png,0,,,,,,,,,,,,,,,,,,,,,,
,,,,,00053,2023-10-21_21h18.32.389,vbt_B2_day4,2022.2.4,Linux x86_64,60.00960154,,,,,,down,0,0.5697,,-0.009956739,0.064237714,1,0,1,0,164,164,149,1,redding,images/br_redding.png,images/cb_redding.png,0,,,,,,,,,,,,,,,,,,,,,,
,,,,,00053,2023-10-21_21h18.32.389,vbt_B2_day4,2022.2.4,Linux x86_64,60.00960154,,,,,,down,0,0.0866,,-0.010140233,0.065890289,1,0,1,0,165,165,168,1,bisschop,images/br_bisschop.png,images/cb_bisschop.png,0,,,,,,,,,,,,,,,,,,,,,,
,,,,,00053,2023-10-21_21h18.32.389,vbt_B2_day4,2022.2.4,Linux x86_64,60.00960154,,,,,,down,0,3.785,,-0.009956739,0.066165686,1,0,1,0,166,166,32,1,palm,images/br_palm.png,images/cb_palm.png,0,,,,,,,,,,,,,,,,,,,,,,
,,,,,00053,2023-10-21_21h18.32.389,vbt_B2_day4,2022.2.4,Linux x86_64,60.00960154,,,,,,down,0,1.3175,,-0.014730932,0.072592416,1,0,1,0,167,167,199,1,beseffen,images/br_beseffen.png,images/cb_beseffen.png,0,,,,,,,,,,,,,,,,,,,,,,
,,,,,00053,2023-10-21_21h18.32.389,vbt_B2_day4,2022.2.4,Linux x86_64,60.00960154,,,,,,down,0,1.0846,,-0.011242054,0.072592416,1,0,1,0,168,168,69,1,waken,images/br_waken.png,images/cb_waken.png,0,,,,,,,,,,,,,,,,,,,,,,
,,,,,00053,2023-10-21_21h18.32.389,vbt_B2_day4,2022.2.4,Linux x86_64,60.00960154,,,,,,down,0,0.3979,,-0.011242054,0.072592416,1,0,1,0,169,169,66,1,lever,images/br_lever.png,images/cb_lever.png,1,lever,,,,,,,,,,,,,,,,,,,,,
,,,,,00053,2023-10-21_21h18.32.389,vbt_B2_day4,2022.2.4,Linux x86_64,60.00960154,,,,,,down,0,0.4679,,-0.011242054,0.072592416,1,0,1,0,170,170,123,1,hiervan,images/br_hiervan.png,images/cb_hiervan.png,0,,,,,,,,,,,,,,,,,,,,,,
,,,,,00053,2023-10-21_21h18.32.389,vbt_B2_day4,2022.2.4,Linux x86_64,60.00960154,,,,,,down,0,0.5888,,-0.011242054,0.072592416,1,0,1,0,171,171,34,1,vorm,images/br_vorm.png,images/cb_vorm.png,0,,,,,,,,,,,,,,,,,,,,,,
,,,,,00053,2023-10-21_21h18.32.389,vbt_B2_day4,2022.2.4,Linux x86_64,60.00960154,,,,,,down,0,1.1306,,-0.011242054,0.072592416,1,0,1,0,172,172,165,1,feestdag,images/br_feestdag.png,images/cb_feestdag.png,0,,,,,,,,,,,,,,,,,,,,,,
,,,,,00053,2023-10-21_21h18.32.389,vbt_B2_day4,2022.2.4,Linux x86_64,60.00960154,,,,,,down,0,0.5915,,-0.011242054,0.072592416,1,0,1,0,173,173,22,1,stof,images/br_stof.png,images/cb_stof.png,0,,,,,,,,,,,,,,,,,,,,,,
,,,,,00053,2023-10-21_21h18.32.389,vbt_B2_day4,2022.2.4,Linux x86_64,60.00960154,,,,,,down,0,0.2787,,-0.011242054,0.072592416,1,0,1,0,174,174,102,1,legaal,images/br_legaal.png,images/cb_legaal.png,0,,,,,,,,,,,,,,,,,,,,,,
,,,,,00053,2023-10-21_21h18.32.389,vbt_B2_day4,2022.2.4,Linux x86_64,60.00960154,,,,,,down,0,0.3401,,-0.011242054,0.072592416,1,0,1,0,175,175,50,1,stoom,images/br_stoom.png,images/cb_stoom.png,0,,,,,,,,,,,,,,,,,,,,,,
,,,,,00053,2023-10-21_21h18.32.389,vbt_B2_day4,2022.2.4,Linux x86_64,60.00960154,,,,,,down,0,0.3799,,-0.011242054,0.072592416,1,0,1,0,176,176,137,1,trekker,images/br_trekker.png,images/cb_trekker.png,0,,,,,,,,,,,,,,,,,,,,,,
,,,,,00053,2023-10-21_21h18.32.389,vbt_B2_day4,2022.2.4,Linux x86_64,60.00960154,,,,,,down,0,0.7641,,-0.011242054,0.072592416,1,0,1,0,177,177,178,1,huisdier,images/br_huisdier.png,images/cb_huisdier.png,0,,,,,,,,,,,,,,,,,,,,,,
,,,,,00053,2023-10-21_21h18.32.389,vbt_B2_day4,2022.2.4,Linux x86_64,60.00960154,,,,,,down,0,0.5814,,-0.011242054,0.072592416,1,0,1,0,178,178,33,1,vlek,images/br_vlek.png,images/cb_vlek.png,0,,,,,,,,,,,,,,,,,,,,,,
,,,,,00053,2023-10-21_21h18.32.389,vbt_B2_day4,2022.2.4,Linux x86_64,60.00960154,,,,,,down,0,3.8119,,-0.011242054,0.072592416,1,0,1,0,179,179,144,1,eetlust,images/br_eetlust.png,images/cb_eetlust.png,1,eetlust,,,,,,,,,,,,,,,,,,,,,
,,,,,00053,2023-10-21_21h18.32.389,vbt_B2_day4,2022.2.4,Linux x86_64,60.00960154,,,,,,down,0,2.6329,,-0.011242054,0.072592416,1,0,1,0,180,180,65,1,parel,images/br_parel.png,images/cb_parel.png,1,parel,,,,,,,,,,,,,,,,,,,,,
,,,,,00053,2023-10-21_21h18.32.389,vbt_B2_day4,2022.2.4,Linux x86_64,60.00960154,,,,,,down,0,0.3992,,-0.011242054,0.072592416,1,0,1,0,181,181,96,1,slagen,images/br_slagen.png,images/cb_slagen.png,0,,,,,,,,,,,,,,,,,,,,,,
,,,,,00053,2023-10-21_21h18.32.389,vbt_B2_day4,2022.2.4,Linux x86_64,60.00960154,,,,,,down,0,0.4907,,-0.011242054,0.072592416,1,0,1,0,182,182,8,1,knie,images/br_knie.png,images/cb_knie.png,0,,,,,,,,,,,,,,,,,,,,,,
,,,,,00053,2023-10-21_21h18.32.389,vbt_B2_day4,2022.2.4,Linux x86_64,60.00960154,,,,,,down,0,0.5342,,-0.011242054,0.072592416,1,0,1,0,183,183,198,1,bedoelen,images/br_bedoelen.png,images/cb_bedoelen.png,0,,,,,,,,,,,,,,,,,,,,,,
,,,,,00053,2023-10-21_21h18.32.389,vbt_B2_day4,2022.2.4,Linux x86_64,60.00960154,,,,,,down,0,2.6052,,-0.011242054,0.072592416,1,0,1,0,184,184,64,1,wegen,images/br_wegen.png,images/cb_wegen.png,1,wegen,,,,,,,,,,,,,,,,,,,,,
,,,,,00053,2023-10-21_21h18.32.389,vbt_B2_day4,2022.2.4,Linux x86_64,60.00960154,,,,,,down,0,0.5384,,-0.011242054,0.072592416,1,0,1,0,185,185,194,1,driemaal,images/br_driemaal.png,images/cb_driemaal.png,0,,,,,,,,,,,,,,,,,,,,,,
,,,,,00053,2023-10-21_21h18.32.389,vbt_B2_day4,2022.2.4,Linux x86_64,60.00960154,,,,,,down,0,0.0365,,-0.011242054,0.072592416,1,0,1,0,186,186,108,1,excuus,images/br_excuus.png,images/cb_excuus.png,0,,,,,,,,,,,,,,,,,,,,,,
,,,,,00053,2023-10-21_21h18.32.389,vbt_B2_day4,2022.2.4,Linux x86_64,60.00960154,,,,,,down,0,0.1539,,-0.011242054,0.072592416,1,0,1,0,187,187,193,1,weeshuis,images/br_weeshuis.png,images/cb_weeshuis.png,0,,,,,,,,,,,,,,,,,,,,,,
,,,,,00053,2023-10-21_21h18.32.389,vbt_B2_day4,2022.2.4,Linux x86_64,60.00960154,,,,,,down,0,0.3685,,-0.011242054,0.072592416,1,0,1,0,188,188,28,1,stal,images/br_stal.png,images/cb_stal.png,0,,,,,,,,,,,,,,,,,,,,,,
,,,,,00053,2023-10-21_21h18.32.389,vbt_B2_day4,2022.2.4,Linux x86_64,60.00960154,,,,,,down,0,0.3577,,-0.011242054,0.072592416,1,0,1,0,189,189,6,1,diep,images/br_diep.png,images/cb_diep.png,0,,,,,,,,,,,,,,,,,,,,,,
,,,,,00053,2023-10-21_21h18.32.389,vbt_B2_day4,2022.2.4,Linux x86_64,60.00960154,,,,,,down,0,0.399,,-0.011242054,0.072592416,1,0,1,0,190,190,89,1,slapen,images/br_slapen.png,images/cb_slapen.png,0,,,,,,,,,,,,,,,,,,,,,,
,,,,,00053,2023-10-21_21h18.32.389,vbt_B2_day4,2022.2.4,Linux x86_64,60.00960154,,,,,,down,0,0.2998,,-0.011242054,0.072592416,1,0,1,0,191,191,1,1,zaal,images/br_zaal.png,images/cb_zaal.png,0,,,,,,,,,,,,,,,,,,,,,,
,,,,,00053,2023-10-21_21h18.32.389,vbt_B2_day4,2022.2.4,Linux x86_64,60.00960154,,,,,,down,0,1.6842,,-0.011242054,0.072592416,1,0,1,0,192,192,113,1,koppen,images/br_koppen.png,images/cb_koppen.png,0,,,,,,,,,,,,,,,,,,,,,,
,,,,,00053,2023-10-21_21h18.32.389,vbt_B2_day4,2022.2.4,Linux x86_64,60.00960154,,,,,,down,0,1.4687,,-0.011242054,0.072592416,1,0,1,0,193,193,14,1,rijp,images/br_rijp.png,images/cb_rijp.png,0,,,,,,,,,,,,,,,,,,,,,,
,,,,,00053,2023-10-21_21h18.32.389,vbt_B2_day4,2022.2.4,Linux x86_64,60.00960154,,,,,,down,0,0.5491,,-0.011242054,0.072592416,1,0,1,0,194,194,132,1,grappen,images/br_grappen.png,images/cb_grappen.png,0,,,,,,,,,,,,,,,,,,,,,,
,,,,,00053,2023-10-21_21h18.32.389,vbt_B2_day4,2022.2.4,Linux x86_64,60.00960154,,,,,,down,0,0.318,,-0.011242054,0.072592416,1,0,1,0,195,195,93,1,waarop,images/br_waarop.png,images/cb_waarop.png,0,,,,,,,,,,,,,,,,,,,,,,
,,,,,00053,2023-10-21_21h18.32.389,vbt_B2_day4,2022.2.4,Linux x86_64,60.00960154,,,,,,down,0,0.2519,,-0.011242054,0.072592416,1,0,1,0,196,196,91,1,gezond,images/br_gezond.png,images/cb_gezond.png,0,,,,,,,,,,,,,,,,,,,,,,
,,,,,00053,2023-10-21_21h18.32.389,vbt_B2_day4,2022.2.4,Linux x86_64,60.00960154,,,,,,down,0,0.5701,,-0.011242054,0.072592416,1,0,1,0,197,197,138,1,akkoord,images/br_akkoord.png,images/cb_akkoord.png,0,,,,,,,,,,,,,,,,,,,,,,
,,,,,00053,2023-10-21_21h18.32.389,vbt_B2_day4,2022.2.4,Linux x86_64,60.00960154,,,,,,down,0,4.6925,,-0.011242054,0.072592416,1,0,1,0,198,198,186,1,voorraad,images/br_voorraad.png,images/cb_voorraad.png,1,voorraad,,,,,,,,,,,,,,,,,,,,,
,,,,,00053,2023-10-21_21h18.32.389,vbt_B2_day4,2022.2.4,Linux x86_64,60.00960154,,,,,,down,0,6.1942,,-0.011058326,0.073143326,1,0,1,0,199,199,24,1,jurk,images/br_jurk.png,images/cb_jurk.png,1,jurk,,,,,,,,,,,,,,,,,,,,,
,,,,,00053,2023-10-21_21h18.32.389,vbt_B2_day4,2022.2.4,Linux x86_64,60.00960154,,,,,,,,,,,,,,,,,,,,,,,,,-0.011058326,0.073143326,0,0,1,,,,,,,,,,,,,,,,
,,,,,00053,2023-10-21_21h18.32.389,vbt_B2_day4,2022.2.4,Linux x86_64,60.00960154,,,,,,,,,,,,,,,,,,,,,,,,,,,,,,0.154844325,0.128300214,1,0,1,,,,,,,,,,,
,,,,,00053,2023-10-21_21h18.32.389,vbt_B2_day4,2022.2.4,Linux x86_64,60.00960154,,,,,,,,,,,,,,,,,,,,lappen,images/br_lappen.png,images/cb_lappen.png,,lappen,,,,,,,,,,,0.154844325,0.128300214,1,0,1,lappen,0,0,0,49,1
,,,,,00053,2023-10-21_21h18.32.389,vbt_B2_day4,2022.2.4,Linux x86_64,60.00960154,,,,,,,,,,,,,,,,,,,,flippen,images/br_flippen.png,images/cb_flippen.png,,flippen,,,,,,,,,,,0.154844325,0.128300214,1,0,1,flippen,0,1,1,54,1
,,,,,00053,2023-10-21_21h18.32.389,vbt_B2_day4,2022.2.4,Linux x86_64,60.00960154,,,,,,,,,,,,,,,,,,,,pijnlijk,images/br_pijnlijk.png,images/cb_pijnlijk.png,,pijnlijk,,,,,,,,,,,0.154844325,0.128300214,1,0,1,pijnlijk,0,2,2,58,1
,,,,,00053,2023-10-21_21h18.32.389,vbt_B2_day4,2022.2.4,Linux x86_64,60.00960154,,,,,,,,,,,,,,,,,,,,rijp,images/br_rijp.png,images/cb_rijp.png,,rijp,,,,,,,,,,,0.154844325,0.128300214,1,0,1,rijp,0,3,3,2,1
,,,,,00053,2023-10-21_21h18.32.389,vbt_B2_day4,2022.2.4,Linux x86_64,60.00960154,,,,,,,,,,,,,,,,,,,,opruimen,images/br_opruimen.png,images/cb_opruimen.png,,opruimen,,,,,,,,,,,0.154844325,0.128300214,1,0,1,opruimen,0,4,4,59,1
,,,,,00053,2023-10-21_21h18.32.389,vbt_B2_day4,2022.2.4,Linux x86_64,60.00960154,,,,,,,,,,,,,,,,,,,,ezel,images/br_ezel.png,images/cb_ezel.png,,ezel,,,,,,,,,,,0.154844325,0.128300214,1,0,1,ezel,0,5,5,42,1
,,,,,00053,2023-10-21_21h18.32.389,vbt_B2_day4,2022.2.4,Linux x86_64,60.00960154,,,,,,,,,,,,,,,,,,,,seizoen,images/br_seizoen.png,images/cb_seizoen.png,,seinoes,,,,,,,,,,,0.154844325,0.129401995,1,0,1,seinoes,0,6,6,13,1
,,,,,00053,2023-10-21_21h18.32.389,vbt_B2_day4,2022.2.4,Linux x86_64,60.00960154,,,,,,,,,,,,,,,,,,,,getucht,images/br_getucht.png,images/cb_getucht.png,,getucht,,,,,,,,,,,0.154844325,0.129401995,1,0,1,getucht,0,7,7,35,1
,,,,,00053,2023-10-21_21h18.32.389,vbt_B2_day4,2022.2.4,Linux x86_64,60.00960154,,,,,,,,,,,,,,,,,,,,zaalrijk,images/br_zaalrijk.png,images/cb_zaalrijk.png,,zaalrijk,,,,,,,,,,,0.154844325,0.129401995,1,0,1,zaalrijk,0,8,8,37,1
,,,,,00053,2023-10-21_21h18.32.389,vbt_B2_day4,2022.2.4,Linux x86_64,60.00960154,,,,,,,,,,,,,,,,,,,,gedicht,images/br_gedicht.png,images/cb_gedicht.png,,gedicht,,,,,,,,,,,0.154844325,0.129401995,1,0,1,gedicht,0,9,9,15,1
,,,,,00053,2023-10-21_21h18.32.389,vbt_B2_day4,2022.2.4,Linux x86_64,60.00960154,,,,,,,,,,,,,,,,,,,,heengaan,images/br_heengaan.png,images/cb_heengaan.png,,heengaan,,,,,,,,,,,0.154844325,0.129401995,1,0,1,heengaan,0,10,10,19,1
,,,,,00053,2023-10-21_21h18.32.389,vbt_B2_day4,2022.2.4,Linux x86_64,60.00960154,,,,,,,,,,,,,,,,,,,,strok,images/br_strok.png,images/cb_strok.png,,strok,,,,,,,,,,,0.154844325,0.129401995,1,0,1,strok,0,11,11,25,1
,,,,,00053,2023-10-21_21h18.32.389,vbt_B2_day4,2022.2.4,Linux x86_64,60.00960154,,,,,,,,,,,,,,,,,,,,seizoon,images/br_seizoon.png,images/cb_seizoon.png,,seinoon,,,,,,,,,,,0.136977819,0.148461486,1,0,1,seinoon,0,12,12,33,1
,,,,,00053,2023-10-21_21h18.32.389,vbt_B2_day4,2022.2.4,Linux x86_64,60.00960154,,,,,,,,,,,,,,,,,,,,gijf,images/br_gijf.png,images/cb_gijf.png,,geit,,,,,,,,,,,0.136977819,0.147359821,1,0,1,geit,0,13,13,23,1
,,,,,00053,2023-10-21_21h18.32.389,vbt_B2_day4,2022.2.4,Linux x86_64,60.00960154,,,,,,,,,,,,,,,,,,,,warel,images/br_warel.png,images/cb_warel.png,,waren,,,,,,,,,,,0.191002018,0.189573718,1,0,1,waren,0,14,14,26,1
,,,,,00053,2023-10-21_21h18.32.389,vbt_B2_day4,2022.2.4,Linux x86_64,60.00960154,,,,,,,,,,,,,,,,,,,,sulbon,images/br_sulbon.png,images/cb_sulbon.png,,sulion,,,,,,,,,,,0.191002018,0.189573718,1,0,1,sulion,0,15,15,31,1
,,,,,00053,2023-10-21_21h18.32.389,vbt_B2_day4,2022.2.4,Linux x86_64,60.00960154,,,,,,,,,,,,,,,,,,,,gebit,images/br_gebit.png,images/cb_gebit.png,,gebit,,,,,,,,,,,0.191002018,0.189573718,1,0,1,gebit,0,16,16,6,1
,,,,,00053,2023-10-21_21h18.32.389,vbt_B2_day4,2022.2.4,Linux x86_64,60.00960154,,,,,,,,,,,,,,,,,,,,kaal,images/br_kaal.png,images/cb_kaal.png,,kaal,,,,,,,,,,,0.190083925,0.190308181,1,0,1,kaal,0,17,17,1,1
,,,,,00053,2023-10-21_21h18.32.389,vbt_B2_day4,2022.2.4,Linux x86_64,60.00960154,,,,,,,,,,,,,,,,,,,,pittig,images/br_pittig.png,images/cb_pittig.png,,pittin,,,,,,,,,,,0.190083925,0.190308181,1,0,1,pittin,0,18,18,51,1
,,,,,00053,2023-10-21_21h18.32.389,vbt_B2_day4,2022.2.4,Linux x86_64,60.00960154,,,,,,,,,,,,,,,,,,,,dalen,images/br_dalen.png,images/cb_dalen.png,,dalen,,,,,,,,,,,0.189716704,0.18994092,1,0,1,dalen,0,19,19,46,1
,,,,,00053,2023-10-21_21h18.32.389,vbt_B2_day4,2022.2.4,Linux x86_64,60.00960154,,,,,,,,,,,,,,,,,,,,drooien,images/br_drooien.png,images/cb_drooien.png,,droeien,,,,,,,,,,,0.189716704,0.18994092,1,0,1,droeien,0,20,20,32,1
,,,,,00053,2023-10-21_21h18.32.389,vbt_B2_day4,2022.2.4,Linux x86_64,60.00960154,,,,,,,,,,,,,,,,,,,,noodzaak,images/br_noodzaak.png,images/cb_noodzaak.png,,noodzaak,,,,,,,,,,,0.189716704,0.18994092,1,0,1,noodzaak,0,21,21,56,1
,,,,,00053,2023-10-21_21h18.32.389,vbt_B2_day4,2022.2.4,Linux x86_64,60.00960154,,,,,,,,,,,,,,,,,,,,haza,images/br_haza.png,images/cb_haza.png,,hana,,,,,,,,,,,0.189716704,0.18994092,1,0,1,hana,0,22,22,21,1
,,,,,00053,2023-10-21_21h18.32.389,vbt_B2_day4,2022.2.4,Linux x86_64,60.00960154,,,,,,,,,,,,,,,,,,,,fran,images/br_fran.png,images/cb_fran.png,,fran,,,,,,,,,,,0.189716704,0.18994092,1,0,1,fran,0,23,23,22,1
,,,,,00053,2023-10-21_21h18.32.389,vbt_B2_day4,2022.2.4,Linux x86_64,60.00960154,,,,,,,,,,,,,,,,,,,,gaan,images/br_gaan.png,images/cb_gaan.png,,gaan,,,,,,,,,,,0.189716704,0.18994092,1,0,1,gaan,0,24,24,41,1
,,,,,00053,2023-10-21_21h18.32.389,vbt_B2_day4,2022.2.4,Linux x86_64,60.00960154,,,,,,,,,,,,,,,,,,,,gaaf,images/br_gaaf.png,images/cb_gaaf.png,,gaaf,,,,,,,,,,,0.189716704,0.18994092,1,0,1,gaaf,0,25,25,43,1
,,,,,00053,2023-10-21_21h18.32.389,vbt_B2_day4,2022.2.4,Linux x86_64,60.00960154,,,,,,,,,,,,,,,,,,,,baron,images/br_baron.png,images/cb_baron.png,,baron,,,,,,,,,,,0.189716704,0.18994092,1,0,1,baron,0,26,26,5,1
,,,,,00053,2023-10-21_21h18.32.389,vbt_B2_day4,2022.2.4,Linux x86_64,60.00960154,,,,,,,,,,,,,,,,,,,,tucket,images/br_tucket.png,images/cb_tucket.png,,tuckes,,,,,,,,,,,0.189716704,0.18994092,1,0,1,tuckes,0,27,27,30,1
,,,,,00053,2023-10-21_21h18.32.389,vbt_B2_day4,2022.2.4,Linux x86_64,60.00960154,,,,,,,,,,,,,,,,,,,,wozing,images/br_wozing.png,images/cb_wozing.png,,woning,,,,,,,,,,,0.189716704,0.18994092,1,0,1,woning,0,28,28,28,1
,,,,,00053,2023-10-21_21h18.32.389,vbt_B2_day4,2022.2.4,Linux x86_64,60.00960154,,,,,,,,,,,,,,,,,,,,snee,images/br_snee.png,images/cb_snee.png,,snee,,,,,,,,,,,0.189716704,0.18994092,1,0,1,snee,0,29,29,40,1
,,,,,00053,2023-10-21_21h18.32.389,vbt_B2_day4,2022.2.4,Linux x86_64,60.00960154,,,,,,,,,,,,,,,,,,,,apparaat,images/br_apparaat.png,images/cb_apparaat.png,,apparaat,,,,,,,,,,,0.189716704,0.18994092,1,0,1,apparaat,0,30,30,17,1
,,,,,00053,2023-10-21_21h18.32.389,vbt_B2_day4,2022.2.4,Linux x86_64,60.00960154,,,,,,,,,,,,,,,,,,,,soda,images/br_soda.png,images/cb_soda.png,,soda,,,,,,,,,,,0.189716704,0.18994092,1,0,1,soda,0,31,31,3,1
,,,,,00053,2023-10-21_21h18.32.389,vbt_B2_day4,2022.2.4,Linux x86_64,60.00960154,,,,,,,,,,,,,,,,,,,,schenden,images/br_schenden.png,images/cb_schenden.png,,schenden,,,,,,,,,,,0.189716704,0.18994092,1,0,1,schenden,0,32,32,57,1
,,,,,00053,2023-10-21_21h18.32.389,vbt_B2_day4,2022.2.4,Linux x86_64,60.00960154,,,,,,,,,,,,,,,,,,,,paalbaak,images/br_paalbaak.png,images/cb_paalbaak.png,,paalbaak,,,,,,,,,,,0.189716704,0.18994092,1,0,1,paalbaak,0,33,33,39,1
,,,,,00053,2023-10-21_21h18.32.389,vbt_B2_day4,2022.2.4,Linux x86_64,60.00960154,,,,,,,,,,,,,,,,,,,,geheim,images/br_geheim.png,images/cb_geheim.png,,geheim,,,,,,,,,,,0.189716704,0.18994092,1,0,1,geheim,0,34,34,8,1
,,,,,00053,2023-10-21_21h18.32.389,vbt_B2_day4,2022.2.4,Linux x86_64,60.00960154,,,,,,,,,,,,,,,,,,,,broodje,images/br_broodje.png,images/cb_broodje.png,,broodje,,,,,,,,,,,0.189716704,0.18994092,1,0,1,broodje,0,35,35,55,1
,,,,,00053,2023-10-21_21h18.32.389,vbt_B2_day4,2022.2.4,Linux x86_64,60.00960154,,,,,,,,,,,,,,,,,,,,geliefd,images/br_geliefd.png,images/cb_geliefd.png,,geliefd,,,,,,,,,,,0.189716704,0.18994092,1,0,1,geliefd,0,36,36,14,1
,,,,,00053,2023-10-21_21h18.32.389,vbt_B2_day4,2022.2.4,Linux x86_64,60.00960154,,,,,,,,,,,,,,,,,,,,steen,images/br_steen.png,images/cb_steen.png,,steen,,,,,,,,,,,0.189716704,0.18994092,1,0,1,steen,0,37,37,44,1
,,,,,00053,2023-10-21_21h18.32.389,vbt_B2_day4,2022.2.4,Linux x86_64,60.00960154,,,,,,,,,,,,,,,,,,,,midden,images/br_midden.png,images/cb_midden.png,,midden,,,,,,,,,,,0.189716704,0.18994092,1,0,1,midden,0,38,38,50,1
,,,,,00053,2023-10-21_21h18.32.389,vbt_B2_day4,2022.2.4,Linux x86_64,60.00960154,,,,,,,,,,,,,,,,,,,,drummer,images/br_drummer.png,images/cb_drummer.png,,drummer,,,,,,,,,,,0.189716704,0.18994092,1,0,1,drummer,0,39,39,53,1
,,,,,00053,2023-10-21_21h18.32.389,vbt_B2_day4,2022.2.4,Linux x86_64,60.00960154,,,,,,,,,,,,,,,,,,,,weigeren,images/br_weigeren.png,images/cb_weigeren.png,,weigeren,,,,,,,,,,,0.189716704,0.18994092,1,0,1,weigeren,0,40,40,16,1
,,,,,00053,2023-10-21_21h18.32.389,vbt_B2_day4,2022.2.4,Linux x86_64,60.00960154,,,,,,,,,,,,,,,,,,,,zwek,images/br_zwek.png,images/cb_zwek.png,,zwek,,,,,,,,,,,0.189716704,0.18994092,1,0,1,zwek,0,41,41,20,1
,,,,,00053,2023-10-21_21h18.32.389,vbt_B2_day4,2022.2.4,Linux x86_64,60.00960154,,,,,,,,,,,,,,,,,,,,stemming,images/br_stemming.png,images/cb_stemming.png,,stemming,,,,,,,,,,,0.186249362,0.185092902,1,0,1,stemming,0,42,42,18,1
,,,,,00053,2023-10-21_21h18.32.389,vbt_B2_day4,2022.2.4,Linux x86_64,60.00960154,,,,,,,,,,,,,,,,,,,,eerst,images/br_eerst.png,images/cb_eerst.png,,eerst,,,,,,,,,,,0.169221331,0.167159626,1,0,1,eerst,0,43,43,47,1
,,,,,00053,2023-10-21_21h18.32.389,vbt_B2_day4,2022.2.4,Linux x86_64,60.00960154,,,,,,,,,,,,,,,,,,,,schotel,images/br_schotel.png,images/cb_schotel.png,,schotel,,,,,,,,,,,0.169221331,0.167159626,1,0,1,schotel,0,44,44,52,1
,,,,,00053,2023-10-21_21h18.32.389,vbt_B2_day4,2022.2.4,Linux x86_64,60.00960154,,,,,,,,,,,,,,,,,,,,wagon,images/br_wagon.png,images/cb_wagon.png,,wagon,,,,,,,,,,,0.172159183,0.166792365,1,0,1,wagon,0,45,45,4,1
,,,,,00053,2023-10-21_21h18.32.389,vbt_B2_day4,2022.2.4,Linux x86_64,60.00960154,,,,,,,,,,,,,,,,,,,,praat,images/br_praat.png,images/cb_praat.png,,praat,,,,,,,,,,,0.172159183,0.166792365,1,0,1,praat,0,46,46,7,1
,,,,,00053,2023-10-21_21h18.32.389,vbt_B2_day4,2022.2.4,Linux x86_64,60.00960154,,,,,,,,,,,,,,,,,,,,vreten,images/br_vreten.png,images/cb_vreten.png,,vreten,,,,,,,,,,,0.172159183,0.166792365,1,0,1,vreten,0,47,47,11,1
,,,,,00053,2023-10-21_21h18.32.389,vbt_B2_day4,2022.2.4,Linux x86_64,60.00960154,,,,,,,,,,,,,,,,,,,,oceaan,images/br_oceaan.png,images/cb_oceaan.png,,oceaan,,,,,,,,,,,0.172159183,0.166792365,1,0,1,oceaan,0,48,48,10,1
,,,,,00053,2023-10-21_21h18.32.389,vbt_B2_day4,2022.2.4,Linux x86_64,60.00960154,,,,,,,,,,,,,,,,,,,,bruin,images/br_bruin.png,images/cb_bruin.png,,bruin,,,,,,,,,,,0.172159183,0.166792365,1,0,1,bruin,0,49,49,45,1
,,,,,00053,2023-10-21_21h18.32.389,vbt_B2_day4,2022.2.4,Linux x86_64,60.00960154,,,,,,,,,,,,,,,,,,,,waarop,images/br_waarop.png,images/cb_waarop.png,,waarop,,,,,,,,,,,0.172159183,0.166792365,1,0,1,waarop,0,50,50,9,1
,,,,,00053,2023-10-21_21h18.32.389,vbt_B2_day4,2022.2.4,Linux x86_64,60.00960154,,,,,,,,,,,,,,,,,,,,dozijn,images/br_dozijn.png,images/cb_dozijn.png,,donijn,,,,,,,,,,,0.172159183,0.166792365,1,0,1,donijn,0,51,51,48,1
,,,,,00053,2023-10-21_21h18.32.389,vbt_B2_day4,2022.2.4,Linux x86_64,60.00960154,,,,,,,,,,,,,,,,,,,,toevol,images/br_toevol.png,images/cb_toevol.png,,toevol,,,,,,,,,,,0.172159183,0.166792365,1,0,1,toevol,0,52,52,29,1
,,,,,00053,2023-10-21_21h18.32.389,vbt_B2_day4,2022.2.4,Linux x86_64,60.00960154,,,,,,,,,,,,,,,,,,,,kust,images/br_kust.png,images/cb_kust.png,,kust,,,,,,,,,,,0.188415994,0.10145804,1,0,1,kust,0,53,53,0,1
,,,,,00053,2023-10-21_21h18.32.389,vbt_B2_day4,2022.2.4,Linux x86_64,60.00960154,,,,,,,,,,,,,,,,,,,,aanzwaag,images/br_aanzwaag.png,images/cb_aanzwaag.png,,aanzwaan,,,,,,,,,,,0.188415994,0.10145804,1,0,1,aanzwaan,0,54,54,38,1
,,,,,00053,2023-10-21_21h18.32.389,vbt_B2_day4,2022.2.4,Linux x86_64,60.00960154,,,,,,,,,,,,,,,,,,,,grappen,images/br_grappen.png,images/cb_grappen.png,,grappen,,,,,,,,,,,0.188415994,0.10145804,1,0,1,grappen,0,55,55,12,1
,,,,,00053,2023-10-21_21h18.32.389,vbt_B2_day4,2022.2.4,Linux x86_64,60.00960154,,,,,,,,,,,,,,,,,,,,bisschap,images/br_bisschap.png,images/cb_bisschap.png,,bisschop,,,,,,,,,,,0.188415994,0.10145804,1,0,1,bisschop,0,56,56,36,1
,,,,,00053,2023-10-21_21h18.32.389,vbt_B2_day4,2022.2.4,Linux x86_64,60.00960154,,,,,,,,,,,,,,,,,,,,gebog,images/br_gebog.png,images/cb_gebog.png,,gebog,,,,,,,,,,,0.188415994,0.10145804,1,0,1,gebog,0,57,57,24,1
,,,,,00053,2023-10-21_21h18.32.389,vbt_B2_day4,2022.2.4,Linux x86_64,60.00960154,,,,,,,,,,,,,,,,,,,,opkicht,images/br_opkicht.png,images/cb_opkicht.png,,opkicht,,,,,,,,,,,0.188415994,0.10145804,1,0,1,opkicht,0,58,58,34,1
,,,,,00053,2023-10-21_21h18.32.389,vbt_B2_day4,2022.2.4,Linux x86_64,60.00960154,,,,,,,,,,,,,,,,,,,,mekst,images/br_mekst.png,images/cb_mekst.png,,mekst,,,,,,,,,,,0.188415994,0.10145804,1,0,1,mekst,0,59,59,27,1
,,,,,00053,2023-10-21_21h18.32.389,vbt_B2_day4,2022.2.4,Linux x86_64,60.00960154,,,,,,,,,,,,,,,,,,,,,,,,,,,,,,,,,,,,,,,,,,,,,
