welcome_mouse.x,welcome_mouse.y,welcome_mouse.leftButton,welcome_mouse.midButton,welcome_mouse.rightButton,"ID",date,expName,psychopyVersion,OS,frameRate,trainInstr_mouse.x,trainInstr_mouse.y,trainInstr_mouse.leftButton,trainInstr_mouse.midButton,trainInstr_mouse.rightButton,translation_key.keys,translation_key.corr,translation_key.rt,word_rsp.text,trWrd_mouse.x,trWrd_mouse.y,trWrd_mouse.leftButton,trWrd_mouse.midButton,trWrd_mouse.rightButton,train_loop.thisRepN,train_loop.thisTrialN,train_loop.thisN,train_loop.thisIndex,train_loop.ran,nlWrd,brWrd,cbWrd,test,testResp,mouse.x,mouse.y,mouse.leftButton,mouse.midButton,mouse.rightButton,testInstr_mouse.x,testInstr_mouse.y,testInstr_mouse.leftButton,testInstr_mouse.midButton,testInstr_mouse.rightButton,test_mouse.x,test_mouse.y,test_mouse.leftButton,test_mouse.midButton,test_mouse.rightButton,test_response.text,test_loop.thisRepN,test_loop.thisTrialN,test_loop.thisN,test_loop.thisIndex,test_loop.ran
0.491463415,-0.230487805,1,0,0,00056,2023-10-15_09h10.07.658,vbt_B2_day4,2022.2.4,MacIntel,43.47826087,,,,,,,,,,,,,,,,,,,,,,,,,,,,,,,,,,,,,,,,,,,,,
,,,,,00056,2023-10-15_09h10.07.658,vbt_B2_day4,2022.2.4,MacIntel,43.47826087,0.491463415,-0.230487805,1,0,0,,,,,,,,,,,,,,,,,,,,,,,,,,,,,,,,,,,,,,,,
,,,,,00056,2023-10-15_09h10.07.658,vbt_B2_day4,2022.2.4,MacIntel,43.47826087,,,,,,down,0,0.384,,0.570731707,-0.2,1,0,0,0,0,0,112,1,lukken,images/br_lukken.png,images/cb_lukken.png,0,,,,,,,,,,,,,,,,,,,,,,
,,,,,00056,2023-10-15_09h10.07.658,vbt_B2_day4,2022.2.4,MacIntel,43.47826087,,,,,,down,0,1.849,,0.57804878,-0.290243902,1,0,0,0,1,1,72,1,strak,images/br_strak.png,images/cb_strak.png,0,,,,,,,,,,,,,,,,,,,,,,
,,,,,00056,2023-10-15_09h10.07.658,vbt_B2_day4,2022.2.4,MacIntel,43.47826087,,,,,,down,0,2.549,,0.47804878,-0.184146341,1,0,0,0,2,2,77,1,woede,images/br_woede.png,images/cb_woede.png,0,,,,,,,,,,,,,,,,,,,,,,
,,,,,00056,2023-10-15_09h10.07.658,vbt_B2_day4,2022.2.4,MacIntel,43.47826087,,,,,,down,0,2.582,,0.52195122,-0.151219512,1,0,0,0,3,3,39,1,laag,images/br_laag.png,images/cb_laag.png,0,,,,,,,,,,,,,,,,,,,,,,
,,,,,00056,2023-10-15_09h10.07.658,vbt_B2_day4,2022.2.4,MacIntel,43.47826087,,,,,,down,0,1.165,,0.542682927,-0.180487805,1,0,0,0,4,4,117,1,kennis,images/br_kennis.png,images/cb_kennis.png,0,,,,,,,,,,,,,,,,,,,,,,
,,,,,00056,2023-10-15_09h10.07.658,vbt_B2_day4,2022.2.4,MacIntel,43.47826087,,,,,,down,0,1.731,,0.573170732,-0.245121951,1,0,0,0,5,5,189,1,aanraden,images/br_aanraden.png,images/cb_aanraden.png,0,,,,,,,,,,,,,,,,,,,,,,
,,,,,00056,2023-10-15_09h10.07.658,vbt_B2_day4,2022.2.4,MacIntel,43.47826087,,,,,,down,0,0.282,,0.574390244,-0.23902439,1,0,0,0,6,6,23,1,zout,images/br_zout.png,images/cb_zout.png,0,,,,,,,,,,,,,,,,,,,,,,
,,,,,00056,2023-10-15_09h10.07.658,vbt_B2_day4,2022.2.4,MacIntel,43.47826087,,,,,,down,0,4.649,,0.469512195,-0.176829268,1,0,0,0,7,7,180,1,openbaar,images/br_openbaar.png,images/cb_openbaar.png,0,,,,,,,,,,,,,,,,,,,,,,
,,,,,00056,2023-10-15_09h10.07.658,vbt_B2_day4,2022.2.4,MacIntel,43.47826087,,,,,,down,0,5.648,,0.536585366,-0.146341463,1,0,0,0,8,8,108,1,excuus,images/br_excuus.png,images/cb_excuus.png,0,,,,,,,,,,,,,,,,,,,,,,
,,,,,00056,2023-10-15_09h10.07.658,vbt_B2_day4,2022.2.4,MacIntel,43.47826087,,,,,,down,0,4.231,,0.48902439,-0.196341463,1,0,0,0,9,9,121,1,twijfel,images/br_twijfel.png,images/cb_twijfel.png,0,,,,,,,,,,,,,,,,,,,,,,
,,,,,00056,2023-10-15_09h10.07.658,vbt_B2_day4,2022.2.4,MacIntel,43.47826087,,,,,,down,0,2.233,,0.662195122,-0.256097561,1,0,0,0,10,10,194,1,driemaal,images/br_driemaal.png,images/cb_driemaal.png,0,,,,,,,,,,,,,,,,,,,,,,
,,,,,00056,2023-10-15_09h10.07.658,vbt_B2_day4,2022.2.4,MacIntel,43.47826087,,,,,,down,0,0.614,,0.579268293,-0.318292683,1,0,0,0,11,11,159,1,sufferd,images/br_sufferd.png,images/cb_sufferd.png,0,,,,,,,,,,,,,,,,,,,,,,
,,,,,00056,2023-10-15_09h10.07.658,vbt_B2_day4,2022.2.4,MacIntel,43.47826087,,,,,,down,0,5.616,,0.639410188,-0.235924933,1,0,0,0,12,12,26,1,leuk,images/br_leuk.png,images/cb_leuk.png,1,Leuk,,,,,,,,,,,,,,,,,,,,,
,,,,,00056,2023-10-15_09h10.07.658,vbt_B2_day4,2022.2.4,MacIntel,43.47826087,,,,,,down,0,1.431,,0.605898123,-0.150134048,1,0,0,0,13,13,45,1,piste,images/br_piste.png,images/cb_piste.png,0,,,,,,,,,,,,,,,,,,,,,,
,,,,,00056,2023-10-15_09h10.07.658,vbt_B2_day4,2022.2.4,MacIntel,43.47826087,,,,,,down,0,7.332,,0.59383378,-0.22386059,1,0,0,0,14,14,196,1,nakijken,images/br_nakijken.png,images/cb_nakijken.png,0,,,,,,,,,,,,,,,,,,,,,,
,,,,,00056,2023-10-15_09h10.07.658,vbt_B2_day4,2022.2.4,MacIntel,43.47826087,,,,,,down,0,1.864,,0.611260054,-0.214477212,1,0,0,0,15,15,98,1,kreeft,images/br_kreeft.png,images/cb_kreeft.png,0,,,,,,,,,,,,,,,,,,,,,,
,,,,,00056,2023-10-15_09h10.07.658,vbt_B2_day4,2022.2.4,MacIntel,43.47826087,,,,,,down,0,0.932,,0.58310992,-0.190348525,1,0,0,0,16,16,10,1,leek,images/br_leek.png,images/cb_leek.png,0,,,,,,,,,,,,,,,,,,,,,,
,,,,,00056,2023-10-15_09h10.07.658,vbt_B2_day4,2022.2.4,MacIntel,43.47826087,,,,,,down,0,2.647,,0.575067024,-0.171581769,1,0,0,0,17,17,174,1,stemming,images/br_stemming.png,images/cb_stemming.png,0,,,,,,,,,,,,,,,,,,,,,,
,,,,,00056,2023-10-15_09h10.07.658,vbt_B2_day4,2022.2.4,MacIntel,43.47826087,,,,,,down,0,7.6,,0.615281501,-0.23458445,1,0,0,0,18,18,156,1,rechten,images/br_rechten.png,images/cb_rechten.png,0,,,,,,,,,,,,,,,,,,,,,,
,,,,,00056,2023-10-15_09h10.07.658,vbt_B2_day4,2022.2.4,MacIntel,43.47826087,,,,,,down,0,3.149,,0.631367292,-0.262734584,1,0,0,0,19,19,85,1,heilig,images/br_heilig.png,images/cb_heilig.png,0,,,,,,,,,,,,,,,,,,,,,,
,,,,,00056,2023-10-15_09h10.07.658,vbt_B2_day4,2022.2.4,MacIntel,43.47826087,,,,,,down,0,1.898,,0.68230563,-0.309651475,1,0,0,0,20,20,141,1,knielen,images/br_knielen.png,images/cb_knielen.png,0,,,,,,,,,,,,,,,,,,,,,,
,,,,,00056,2023-10-15_09h10.07.658,vbt_B2_day4,2022.2.4,MacIntel,43.47826087,,,,,,down,0,0.7,,0.58310992,-0.249329759,1,0,0,0,21,21,169,1,oprotten,images/br_oprotten.png,images/cb_oprotten.png,0,,,,,,,,,,,,,,,,,,,,,,
,,,,,00056,2023-10-15_09h10.07.658,vbt_B2_day4,2022.2.4,MacIntel,43.47826087,,,,,,down,0,2.215,,0.545576408,-0.243967828,1,0,0,0,22,22,89,1,slapen,images/br_slapen.png,images/cb_slapen.png,0,,,,,,,,,,,,,,,,,,,,,,
,,,,,00056,2023-10-15_09h10.07.658,vbt_B2_day4,2022.2.4,MacIntel,43.47826087,,,,,,down,0,11.532,,0.727882038,-0.235924933,1,0,0,0,23,23,176,1,techniek,images/br_techniek.png,images/cb_techniek.png,0,,,,,,,,,,,,,,,,,,,,,,
,,,,,00056,2023-10-15_09h10.07.658,vbt_B2_day4,2022.2.4,MacIntel,43.47826087,,,,,,down,0,4.149,,0.587131367,-0.203753351,1,0,0,0,24,24,40,1,schep,images/br_schep.png,images/cb_schep.png,0,,,,,,,,,,,,,,,,,,,,,,
,,,,,00056,2023-10-15_09h10.07.658,vbt_B2_day4,2022.2.4,MacIntel,43.47826087,,,,,,down,0,3.07,,0.581769437,-0.252010724,1,0,0,0,25,25,106,1,zingen,images/br_zingen.png,images/cb_zingen.png,1,Zingen,,,,,,,,,,,,,,,,,,,,,
,,,,,00056,2023-10-15_09h10.07.658,vbt_B2_day4,2022.2.4,MacIntel,43.47826087,,,,,,down,0,3.432,,0.642091153,-0.252010724,1,0,0,0,26,26,132,1,grappen,images/br_grappen.png,images/cb_grappen.png,0,,,,,,,,,,,,,,,,,,,,,,
,,,,,00056,2023-10-15_09h10.07.658,vbt_B2_day4,2022.2.4,MacIntel,43.47826087,,,,,,down,0,2.1,,0.58310992,-0.163538874,1,0,0,0,27,27,102,1,legaal,images/br_legaal.png,images/cb_legaal.png,0,,,,,,,,,,,,,,,,,,,,,,
,,,,,00056,2023-10-15_09h10.07.658,vbt_B2_day4,2022.2.4,MacIntel,43.47826087,,,,,,down,0,0.664,,0.655495979,-0.222520107,1,0,0,0,28,28,50,1,stoom,images/br_stoom.png,images/cb_stoom.png,0,,,,,,,,,,,,,,,,,,,,,,
,,,,,00056,2023-10-15_09h10.07.658,vbt_B2_day4,2022.2.4,MacIntel,43.47826087,,,,,,down,0,1.648,,0.521447721,-0.297587131,1,0,0,0,29,29,22,1,stof,images/br_stof.png,images/cb_stof.png,0,,,,,,,,,,,,,,,,,,,,,,
,,,,,00056,2023-10-15_09h10.07.658,vbt_B2_day4,2022.2.4,MacIntel,43.47826087,,,,,,down,0,6.999,,0.548257373,-0.221179625,1,0,0,0,30,30,91,1,gezond,images/br_gezond.png,images/cb_gezond.png,0,,,,,,,,,,,,,,,,,,,,,,
,,,,,00056,2023-10-15_09h10.07.658,vbt_B2_day4,2022.2.4,MacIntel,43.47826087,,,,,,down,0,8.315,,0.607238606,-0.304289544,1,0,0,0,31,31,195,1,middelen,images/br_middelen.png,images/cb_middelen.png,0,,,,,,,,,,,,,,,,,,,,,,
,,,,,00056,2023-10-15_09h10.07.658,vbt_B2_day4,2022.2.4,MacIntel,43.47826087,,,,,,down,0,14.947,,0.49463807,-0.097855228,1,0,0,0,32,32,94,1,oceaan,images/br_oceaan.png,images/cb_oceaan.png,0,,,,,,,,,,,,,,,,,,,,,,
,,,,,00056,2023-10-15_09h10.07.658,vbt_B2_day4,2022.2.4,MacIntel,43.47826087,,,,,,down,0,1.898,,0.473190349,-0.163538874,1,0,0,0,33,33,69,1,waken,images/br_waken.png,images/cb_waken.png,0,,,,,,,,,,,,,,,,,,,,,,
,,,,,00056,2023-10-15_09h10.07.658,vbt_B2_day4,2022.2.4,MacIntel,43.47826087,,,,,,down,0,0.732,,0.558981233,-0.124664879,1,0,0,0,34,34,82,1,muziek,images/br_muziek.png,images/cb_muziek.png,0,,,,,,,,,,,,,,,,,,,,,,
,,,,,00056,2023-10-15_09h10.07.658,vbt_B2_day4,2022.2.4,MacIntel,43.47826087,,,,,,down,0,3.881,,0.591152815,-0.226541555,1,0,0,0,35,35,137,1,trekker,images/br_trekker.png,images/cb_trekker.png,0,,,,,,,,,,,,,,,,,,,,,,
,,,,,00056,2023-10-15_09h10.07.658,vbt_B2_day4,2022.2.4,MacIntel,43.47826087,,,,,,down,0,1.249,,0.597855228,-0.210455764,1,0,0,0,36,36,124,1,bloeien,images/br_bloeien.png,images/cb_bloeien.png,0,,,,,,,,,,,,,,,,,,,,,,
,,,,,00056,2023-10-15_09h10.07.658,vbt_B2_day4,2022.2.4,MacIntel,43.47826087,,,,,,down,0,4.401,,0.462466488,-0.294906166,1,0,0,0,37,37,87,1,toeval,images/br_toeval.png,images/cb_toeval.png,0,,,,,,,,,,,,,,,,,,,,,,
,,,,,00056,2023-10-15_09h10.07.658,vbt_B2_day4,2022.2.4,MacIntel,43.47826087,,,,,,down,0,8.031,,0.548257373,-0.183646113,1,0,0,0,38,38,170,1,schatten,images/br_schatten.png,images/cb_schatten.png,0,,,,,,,,,,,,,,,,,,,,,,
,,,,,00056,2023-10-15_09h10.07.658,vbt_B2_day4,2022.2.4,MacIntel,43.47826087,,,,,,down,0,3.214,,0.508042895,-0.235924933,1,0,0,0,39,39,150,1,gegeven,images/br_gegeven.png,images/cb_gegeven.png,0,,,,,,,,,,,,,,,,,,,,,,
,,,,,00056,2023-10-15_09h10.07.658,vbt_B2_day4,2022.2.4,MacIntel,43.47826087,,,,,,down,0,3.515,,0.575067024,-0.191689008,1,0,0,0,40,40,119,1,liefje,images/br_liefje.png,images/cb_liefje.png,0,,,,,,,,,,,,,,,,,,,,,,
,,,,,00056,2023-10-15_09h10.07.658,vbt_B2_day4,2022.2.4,MacIntel,43.47826087,,,,,,down,0,6.382,,0.554959786,-0.189008043,1,0,0,0,41,41,186,1,voorraad,images/br_voorraad.png,images/cb_voorraad.png,1,Voorraad,,,,,,,,,,,,,,,,,,,,,
,,,,,00056,2023-10-15_09h10.07.658,vbt_B2_day4,2022.2.4,MacIntel,43.47826087,,,,,,down,0,0.4,,0.509383378,-0.144772118,1,0,0,0,42,42,139,1,stiekem,images/br_stiekem.png,images/cb_stiekem.png,0,,,,,,,,,,,,,,,,,,,,,,
,,,,,00056,2023-10-15_09h10.07.658,vbt_B2_day4,2022.2.4,MacIntel,43.47826087,,,,,,down,0,3.933,,0.58310992,-0.201072386,1,0,0,0,43,43,54,1,gebit,images/br_gebit.png,images/cb_gebit.png,0,,,,,,,,,,,,,,,,,,,,,,
,,,,,00056,2023-10-15_09h10.07.658,vbt_B2_day4,2022.2.4,MacIntel,43.47826087,,,,,,down,0,2.4,,0.498659517,-0.179624665,1,0,0,0,44,44,120,1,klimmen,images/br_klimmen.png,images/cb_klimmen.png,0,,,,,,,,,,,,,,,,,,,,,,
,,,,,00056,2023-10-15_09h10.07.658,vbt_B2_day4,2022.2.4,MacIntel,43.47826087,,,,,,down,0,4.481,,0.524128686,-0.162198391,1,0,0,0,45,45,80,1,kanjer,images/br_kanjer.png,images/cb_kanjer.png,0,,,,,,,,,,,,,,,,,,,,,,
,,,,,00056,2023-10-15_09h10.07.658,vbt_B2_day4,2022.2.4,MacIntel,43.47826087,,,,,,down,0,0.282,,0.508042895,-0.194369973,1,0,0,0,46,46,35,1,lust,images/br_lust.png,images/cb_lust.png,0,,,,,,,,,,,,,,,,,,,,,,
,,,,,00056,2023-10-15_09h10.07.658,vbt_B2_day4,2022.2.4,MacIntel,43.47826087,,,,,,down,0,5.115,,0.497319035,-0.198391421,1,0,0,0,47,47,190,1,goedkoop,images/br_goedkoop.png,images/cb_goedkoop.png,0,,,,,,,,,,,,,,,,,,,,,,
,,,,,00056,2023-10-15_09h10.07.658,vbt_B2_day4,2022.2.4,MacIntel,43.47826087,,,,,,down,0,0.998,,0.518766756,-0.211796247,1,0,0,0,48,48,96,1,slagen,images/br_slagen.png,images/cb_slagen.png,0,,,,,,,,,,,,,,,,,,,,,,
,,,,,00056,2023-10-15_09h10.07.658,vbt_B2_day4,2022.2.4,MacIntel,43.47826087,,,,,,down,0,3.514,,0.557640751,-0.180965147,1,0,0,0,49,49,191,1,opheffen,images/br_opheffen.png,images/cb_opheffen.png,0,,,,,,,,,,,,,,,,,,,,,,
,,,,,00056,2023-10-15_09h10.07.658,vbt_B2_day4,2022.2.4,MacIntel,43.47826087,,,,,,down,0,16.598,,0.544235925,-0.247989276,1,0,0,0,50,50,166,1,strikken,images/br_strikken.png,images/cb_strikken.png,0,,,,,,,,,,,,,,,,,,,,,,
,,,,,00056,2023-10-15_09h10.07.658,vbt_B2_day4,2022.2.4,MacIntel,43.47826087,,,,,,down,0,7.898,,0.525469169,-0.13002681,1,0,0,0,51,51,197,1,spanning,images/br_spanning.png,images/cb_spanning.png,0,,,,,,,,,,,,,,,,,,,,,,
,,,,,00056,2023-10-15_09h10.07.658,vbt_B2_day4,2022.2.4,MacIntel,43.47826087,,,,,,down,0,13.231,,0.532171582,-0.189008043,1,0,0,0,52,52,142,1,snuiven,images/br_snuiven.png,images/cb_snuiven.png,0,,,,,,,,,,,,,,,,,,,,,,
,,,,,00056,2023-10-15_09h10.07.658,vbt_B2_day4,2022.2.4,MacIntel,43.47826087,,,,,,down,0,8.216,,0.558981233,-0.235924933,1,0,0,0,53,53,105,1,wijlen,images/br_wijlen.png,images/cb_wijlen.png,1,Wijlen,,,,,,,,,,,,,,,,,,,,,
,,,,,00056,2023-10-15_09h10.07.658,vbt_B2_day4,2022.2.4,MacIntel,43.47826087,,,,,,down,0,2.95,,0.529490617,-0.160857909,1,0,0,0,54,54,179,1,woestijn,images/br_woestijn.png,images/cb_woestijn.png,0,,,,,,,,,,,,,,,,,,,,,,
,,,,,00056,2023-10-15_09h10.07.658,vbt_B2_day4,2022.2.4,MacIntel,43.47826087,,,,,,down,0,8.166,,0.571045576,-0.284182306,1,0,0,0,55,55,187,1,opkijken,images/br_opkijken.png,images/cb_opkijken.png,1,Opkijken,,,,,,,,,,,,,,,,,,,,,
,,,,,00056,2023-10-15_09h10.07.658,vbt_B2_day4,2022.2.4,MacIntel,43.47826087,,,,,,down,0,3.151,,0.463806971,-0.18230563,1,0,0,0,56,56,3,1,mand,images/br_mand.png,images/cb_mand.png,0,,,,,,,,,,,,,,,,,,,,,,
,,,,,00056,2023-10-15_09h10.07.658,vbt_B2_day4,2022.2.4,MacIntel,43.47826087,,,,,,down,0,4.665,,0.514745308,-0.142091153,1,0,0,0,57,57,84,1,lokken,images/br_lokken.png,images/cb_lokken.png,0,,,,,,,,,,,,,,,,,,,,,,
,,,,,00056,2023-10-15_09h10.07.658,vbt_B2_day4,2022.2.4,MacIntel,43.47826087,,,,,,down,0,2.049,,0.573726542,-0.257372654,1,0,0,0,58,58,164,1,anarchie,images/br_anarchie.png,images/cb_anarchie.png,0,,,,,,,,,,,,,,,,,,,,,,
,,,,,00056,2023-10-15_09h10.07.658,vbt_B2_day4,2022.2.4,MacIntel,43.47826087,,,,,,down,0,1.561,,0.489276139,-0.227882038,1,0,0,0,59,59,19,1,geit,images/br_geit.png,images/cb_geit.png,0,,,,,,,,,,,,,,,,,,,,,,
,,,,,00056,2023-10-15_09h10.07.658,vbt_B2_day4,2022.2.4,MacIntel,43.47826087,,,,,,down,0,0.6,,0.556300268,-0.18766756,1,0,0,0,60,60,183,1,getuigen,images/br_getuigen.png,images/cb_getuigen.png,0,,,,,,,,,,,,,,,,,,,,,,
,,,,,00056,2023-10-15_09h10.07.658,vbt_B2_day4,2022.2.4,MacIntel,43.47826087,,,,,,down,0,0.898,,0.616621984,-0.053619303,1,0,0,0,61,61,6,1,diep,images/br_diep.png,images/cb_diep.png,0,,,,,,,,,,,,,,,,,,,,,,
,,,,,00056,2023-10-15_09h10.07.658,vbt_B2_day4,2022.2.4,MacIntel,43.47826087,,,,,,down,0,5.88,,0.613941019,-0.168900804,1,0,0,0,62,62,184,1,aandelen,images/br_aandelen.png,images/cb_aandelen.png,1,Aandelen,,,,,,,,,,,,,,,,,,,,,
,,,,,00056,2023-10-15_09h10.07.658,vbt_B2_day4,2022.2.4,MacIntel,43.47826087,,,,,,down,0,1.766,,0.59919571,-0.121983914,1,0,0,0,63,63,128,1,prikken,images/br_prikken.png,images/cb_prikken.png,0,,,,,,,,,,,,,,,,,,,,,,
,,,,,00056,2023-10-15_09h10.07.658,vbt_B2_day4,2022.2.4,MacIntel,43.47826087,,,,,,down,0,0.15,,0.571045576,-0.120643432,1,0,0,0,64,64,5,1,blad,images/br_blad.png,images/cb_blad.png,0,,,,,,,,,,,,,,,,,,,,,,
,,,,,00056,2023-10-15_09h10.07.658,vbt_B2_day4,2022.2.4,MacIntel,43.47826087,,,,,,down,0,0.732,,0.461126005,-0.119302949,1,0,0,0,65,65,13,1,kaal,images/br_kaal.png,images/cb_kaal.png,0,,,,,,,,,,,,,,,,,,,,,,
,,,,,00056,2023-10-15_09h10.07.658,vbt_B2_day4,2022.2.4,MacIntel,43.47826087,,,,,,down,0,6.563,,0.526809651,-0.246648794,1,0,0,0,66,66,75,1,snoep,images/br_snoep.png,images/cb_snoep.png,0,,,,,,,,,,,,,,,,,,,,,,
,,,,,00056,2023-10-15_09h10.07.658,vbt_B2_day4,2022.2.4,MacIntel,43.47826087,,,,,,down,0,1.082,,0.568364611,-0.219839142,1,0,0,0,67,67,88,1,boeien,images/br_boeien.png,images/cb_boeien.png,0,,,,,,,,,,,,,,,,,,,,,,
,,,,,00056,2023-10-15_09h10.07.658,vbt_B2_day4,2022.2.4,MacIntel,43.47826087,,,,,,down,0,4.231,,0.619302949,-0.298927614,1,0,0,0,68,68,93,1,waarop,images/br_waarop.png,images/cb_waarop.png,0,,,,,,,,,,,,,,,,,,,,,,
,,,,,00056,2023-10-15_09h10.07.658,vbt_B2_day4,2022.2.4,MacIntel,43.47826087,,,,,,down,0,0.881,,0.517426273,-0.249329759,1,0,0,0,69,69,4,1,moes,images/br_moes.png,images/cb_moes.png,0,,,,,,,,,,,,,,,,,,,,,,
,,,,,00056,2023-10-15_09h10.07.658,vbt_B2_day4,2022.2.4,MacIntel,43.47826087,,,,,,down,0,12.798,,0.596514745,-0.245308311,1,0,0,0,70,70,122,1,waarvan,images/br_waarvan.png,images/cb_waarvan.png,0,,,,,,,,,,,,,,,,,,,,,,
,,,,,00056,2023-10-15_09h10.07.658,vbt_B2_day4,2022.2.4,MacIntel,43.47826087,,,,,,down,0,2.334,,0.542895442,-0.172922252,1,0,0,0,71,71,17,1,taal,images/br_taal.png,images/cb_taal.png,0,,,,,,,,,,,,,,,,,,,,,,
,,,,,00056,2023-10-15_09h10.07.658,vbt_B2_day4,2022.2.4,MacIntel,43.47826087,,,,,,down,0,13.949,,0.63538874,-0.206434316,1,0,0,0,72,72,185,1,mijnheer,images/br_mijnheer.png,images/cb_mijnheer.png,1,,,,,,,,,,,,,,,,,,,,,,
,,,,,00056,2023-10-15_09h10.07.658,vbt_B2_day4,2022.2.4,MacIntel,43.47826087,,,,,,down,0,0.818,,0.591152815,-0.226541555,1,0,0,0,73,73,61,1,groen,images/br_groen.png,images/cb_groen.png,0,,,,,,,,,,,,,,,,,,,,,,
,,,,,00056,2023-10-15_09h10.07.658,vbt_B2_day4,2022.2.4,MacIntel,43.47826087,,,,,,down,0,0.529,,0.63002681,-0.235924933,1,0,0,0,74,74,51,1,samen,images/br_samen.png,images/cb_samen.png,0,,,,,,,,,,,,,,,,,,,,,,
,,,,,00056,2023-10-15_09h10.07.658,vbt_B2_day4,2022.2.4,MacIntel,43.47826087,,,,,,down,0,4.564,,0.560321716,-0.197050938,1,0,0,0,75,75,158,1,innemen,images/br_innemen.png,images/cb_innemen.png,0,,,,,,,,,,,,,,,,,,,,,,
,,,,,00056,2023-10-15_09h10.07.658,vbt_B2_day4,2022.2.4,MacIntel,43.47826087,,,,,,down,0,1.031,,0.530831099,-0.190348525,1,0,0,0,76,76,198,1,bedoelen,images/br_bedoelen.png,images/cb_bedoelen.png,0,,,,,,,,,,,,,,,,,,,,,,
,,,,,00056,2023-10-15_09h10.07.658,vbt_B2_day4,2022.2.4,MacIntel,43.47826087,,,,,,down,0,0.8,,0.585790885,-0.189008043,1,0,0,0,77,77,100,1,geduld,images/br_geduld.png,images/cb_geduld.png,0,,,,,,,,,,,,,,,,,,,,,,
,,,,,00056,2023-10-15_09h10.07.658,vbt_B2_day4,2022.2.4,MacIntel,43.47826087,,,,,,down,0,4.133,,0.584450402,-0.237265416,1,0,0,0,78,78,130,1,keihard,images/br_keihard.png,images/cb_keihard.png,0,,,,,,,,,,,,,,,,,,,,,,
,,,,,00056,2023-10-15_09h10.07.658,vbt_B2_day4,2022.2.4,MacIntel,43.47826087,,,,,,down,0,8.817,,0.603217158,-0.235924933,1,0,0,0,79,79,67,1,zwart,images/br_zwart.png,images/cb_zwart.png,1,Zwart,,,,,,,,,,,,,,,,,,,,,
,,,,,00056,2023-10-15_09h10.07.658,vbt_B2_day4,2022.2.4,MacIntel,43.47826087,,,,,,down,0,0.827,,0.576407507,-0.245308311,1,0,0,0,80,80,52,1,wagon,images/br_wagon.png,images/cb_wagon.png,0,,,,,,,,,,,,,,,,,,,,,,
,,,,,00056,2023-10-15_09h10.07.658,vbt_B2_day4,2022.2.4,MacIntel,43.47826087,,,,,,down,0,5.484,,0.667560322,-0.262734584,1,0,0,0,81,81,63,1,flirt,images/br_flirt.png,images/cb_flirt.png,0,,,,,,,,,,,,,,,,,,,,,,
,,,,,00056,2023-10-15_09h10.07.658,vbt_B2_day4,2022.2.4,MacIntel,43.47826087,,,,,,down,0,2.531,,0.674262735,-0.233243968,1,0,0,0,82,82,167,1,eenhoorn,images/br_eenhoorn.png,images/cb_eenhoorn.png,0,,,,,,,,,,,,,,,,,,,,,,
,,,,,00056,2023-10-15_09h10.07.658,vbt_B2_day4,2022.2.4,MacIntel,43.47826087,,,,,,down,0,0.448,,0.678284182,-0.195710456,1,0,0,0,83,83,55,1,praat,images/br_praat.png,images/cb_praat.png,0,,,,,,,,,,,,,,,,,,,,,,
,,,,,00056,2023-10-15_09h10.07.658,vbt_B2_day4,2022.2.4,MacIntel,43.47826087,,,,,,down,0,2.531,,0.650134048,-0.139410188,1,0,0,0,84,84,172,1,weigeren,images/br_weigeren.png,images/cb_weigeren.png,0,,,,,,,,,,,,,,,,,,,,,,
,,,,,00056,2023-10-15_09h10.07.658,vbt_B2_day4,2022.2.4,MacIntel,43.47826087,,,,,,down,0,3.181,,0.646112601,-0.117962466,1,0,0,0,85,85,44,1,flits,images/br_flits.png,images/cb_flits.png,0,,,,,,,,,,,,,,,,,,,,,,
,,,,,00056,2023-10-15_09h10.07.658,vbt_B2_day4,2022.2.4,MacIntel,43.47826087,,,,,,down,0,3.066,,0.680965147,-0.231903485,1,0,0,0,86,86,135,1,gedicht,images/br_gedicht.png,images/cb_gedicht.png,0,,,,,,,,,,,,,,,,,,,,,,
,,,,,00056,2023-10-15_09h10.07.658,vbt_B2_day4,2022.2.4,MacIntel,43.47826087,,,,,,down,0,12.415,,0.656836461,-0.26541555,1,0,0,0,87,87,155,1,gerucht,images/br_gerucht.png,images/cb_gerucht.png,0,,,,,,,,,,,,,,,,,,,,,,
,,,,,00056,2023-10-15_09h10.07.658,vbt_B2_day4,2022.2.4,MacIntel,43.47826087,,,,,,down,0,0.365,,0.754691689,-0.35924933,1,0,0,0,88,88,151,1,aanzoek,images/br_aanzoek.png,images/cb_aanzoek.png,0,,,,,,,,,,,,,,,,,,,,,,
,,,,,00056,2023-10-15_09h10.07.658,vbt_B2_day4,2022.2.4,MacIntel,43.47826087,,,,,,down,0,0.965,,0.654155496,-0.282841823,1,0,0,0,89,89,11,1,mode,images/br_mode.png,images/cb_mode.png,0,,,,,,,,,,,,,,,,,,,,,,
,,,,,00056,2023-10-15_09h10.07.658,vbt_B2_day4,2022.2.4,MacIntel,43.47826087,,,,,,down,0,0.419,,0.68766756,-0.256032172,1,0,0,0,90,90,31,1,poes,images/br_poes.png,images/cb_poes.png,0,,,,,,,,,,,,,,,,,,,,,,
,,,,,00056,2023-10-15_09h10.07.658,vbt_B2_day4,2022.2.4,MacIntel,43.47826087,,,,,,down,0,1.582,,0.616621984,-0.302949062,1,0,0,0,91,91,59,1,kring,images/br_kring.png,images/cb_kring.png,0,,,,,,,,,,,,,,,,,,,,,,
,,,,,00056,2023-10-15_09h10.07.658,vbt_B2_day4,2022.2.4,MacIntel,43.47826087,,,,,,down,0,0.099,,0.634048257,-0.201072386,1,0,0,0,92,92,110,1,zuster,images/br_zuster.png,images/cb_zuster.png,0,,,,,,,,,,,,,,,,,,,,,,
,,,,,00056,2023-10-15_09h10.07.658,vbt_B2_day4,2022.2.4,MacIntel,43.47826087,,,,,,down,0,0.132,,0.63538874,-0.260053619,1,0,0,0,93,93,152,1,afnemen,images/br_afnemen.png,images/cb_afnemen.png,0,,,,,,,,,,,,,,,,,,,,,,
,,,,,00056,2023-10-15_09h10.07.658,vbt_B2_day4,2022.2.4,MacIntel,43.47826087,,,,,,down,0,0.149,,0.628686327,-0.163538874,1,0,0,0,94,94,28,1,stal,images/br_stal.png,images/cb_stal.png,0,,,,,,,,,,,,,,,,,,,,,,
,,,,,00056,2023-10-15_09h10.07.658,vbt_B2_day4,2022.2.4,MacIntel,43.47826087,,,,,,down,0,17.368,,0.616621984,-0.273458445,1,0,0,0,95,95,177,1,maaltijd,images/br_maaltijd.png,images/cb_maaltijd.png,0,,,,,,,,,,,,,,,,,,,,,,
,,,,,00056,2023-10-15_09h10.07.658,vbt_B2_day4,2022.2.4,MacIntel,43.47826087,,,,,,down,0,0.454,,0.573726542,-0.343163539,1,0,0,0,96,96,8,1,knie,images/br_knie.png,images/cb_knie.png,0,,,,,,,,,,,,,,,,,,,,,,
,,,,,00056,2023-10-15_09h10.07.658,vbt_B2_day4,2022.2.4,MacIntel,43.47826087,,,,,,down,0,1.565,,0.589812332,-0.069705094,1,0,0,0,97,97,127,1,doodmoe,images/br_doodmoe.png,images/cb_doodmoe.png,0,,,,,,,,,,,,,,,,,,,,,,
,,,,,00056,2023-10-15_09h10.07.658,vbt_B2_day4,2022.2.4,MacIntel,43.47826087,,,,,,down,0,2.149,,0.58310992,-0.194369973,1,0,0,0,98,98,157,1,uitlaat,images/br_uitlaat.png,images/cb_uitlaat.png,0,,,,,,,,,,,,,,,,,,,,,,
,,,,,00056,2023-10-15_09h10.07.658,vbt_B2_day4,2022.2.4,MacIntel,43.47826087,,,,,,down,0,0.312,,0.68230563,-0.207774799,1,0,0,0,99,99,140,1,blijven,images/br_blijven.png,images/cb_blijven.png,0,,,,,,,,,,,,,,,,,,,,,,
,,,,,00056,2023-10-15_09h10.07.658,vbt_B2_day4,2022.2.4,MacIntel,43.47826087,,,,,,down,0,33.515,,0.592493298,-0.174262735,1,0,0,0,100,100,12,1,kust,images/br_kust.png,images/cb_kust.png,0,,,,,,,,,,,,,,,,,,,,,,
,,,,,00056,2023-10-15_09h10.07.658,vbt_B2_day4,2022.2.4,MacIntel,43.47826087,,,,,,down,0,0.415,,0.596514745,-0.243967828,1,0,0,0,101,101,79,1,nodig,images/br_nodig.png,images/cb_nodig.png,0,,,,,,,,,,,,,,,,,,,,,,
,,,,,00056,2023-10-15_09h10.07.658,vbt_B2_day4,2022.2.4,MacIntel,43.47826087,,,,,,down,0,0.667,,0.54691689,-0.179624665,1,0,0,0,102,102,163,1,schuilen,images/br_schuilen.png,images/cb_schuilen.png,0,,,,,,,,,,,,,,,,,,,,,,
,,,,,00056,2023-10-15_09h10.07.658,vbt_B2_day4,2022.2.4,MacIntel,43.47826087,,,,,,down,0,19.815,,0.655495979,-0.174262735,1,0,0,0,103,103,123,1,hiervan,images/br_hiervan.png,images/cb_hiervan.png,0,,,,,,,,,,,,,,,,,,,,,,
,,,,,00056,2023-10-15_09h10.07.658,vbt_B2_day4,2022.2.4,MacIntel,43.47826087,,,,,,down,0,5.913,,0.521447721,-0.219839142,1,0,0,0,104,104,145,1,invloed,images/br_invloed.png,images/cb_invloed.png,1,Invloed,,,,,,,,,,,,,,,,,,,,,
,,,,,00056,2023-10-15_09h10.07.658,vbt_B2_day4,2022.2.4,MacIntel,43.47826087,,,,,,down,0,2.885,,0.561662198,-0.1769437,1,0,0,0,105,105,154,1,aflopen,images/br_aflopen.png,images/cb_aflopen.png,0,,,,,,,,,,,,,,,,,,,,,,
,,,,,00056,2023-10-15_09h10.07.658,vbt_B2_day4,2022.2.4,MacIntel,43.47826087,,,,,,down,0,0.198,,0.530831099,-0.131367292,1,0,0,0,106,106,16,1,ziek,images/br_ziek.png,images/cb_ziek.png,0,,,,,,,,,,,,,,,,,,,,,,
,,,,,00056,2023-10-15_09h10.07.658,vbt_B2_day4,2022.2.4,MacIntel,43.47826087,,,,,,down,0,4.666,,0.651474531,-0.095174263,1,0,0,0,107,107,114,1,vullen,images/br_vullen.png,images/cb_vullen.png,0,,,,,,,,,,,,,,,,,,,,,,
,,,,,00056,2023-10-15_09h10.07.658,vbt_B2_day4,2022.2.4,MacIntel,43.47826087,,,,,,down,0,3.333,,0.557640751,-0.142091153,1,0,0,0,108,108,146,1,opkomen,images/br_opkomen.png,images/cb_opkomen.png,1,Opkomen,,,,,,,,,,,,,,,,,,,,,
,,,,,00056,2023-10-15_09h10.07.658,vbt_B2_day4,2022.2.4,MacIntel,43.47826087,,,,,,down,0,8.682,,0.513404826,-0.189008043,1,0,0,0,109,109,126,1,kasteel,images/br_kasteel.png,images/cb_kasteel.png,0,,,,,,,,,,,,,,,,,,,,,,
,,,,,00056,2023-10-15_09h10.07.658,vbt_B2_day4,2022.2.4,MacIntel,43.47826087,,,,,,down,0,5.197,,0.451742627,-0.183646113,1,0,0,0,110,110,188,1,strekken,images/br_strekken.png,images/cb_strekken.png,0,,,,,,,,,,,,,,,,,,,,,,
,,,,,00056,2023-10-15_09h10.07.658,vbt_B2_day4,2022.2.4,MacIntel,43.47826087,,,,,,down,0,2.201,,0.587131367,-0.206434316,1,0,0,0,111,111,136,1,waarbij,images/br_waarbij.png,images/cb_waarbij.png,0,,,,,,,,,,,,,,,,,,,,,,
,,,,,00056,2023-10-15_09h10.07.658,vbt_B2_day4,2022.2.4,MacIntel,43.47826087,,,,,,down,0,0.715,,0.554959786,-0.178284182,1,0,0,0,112,112,71,1,bever,images/br_bever.png,images/cb_bever.png,0,,,,,,,,,,,,,,,,,,,,,,
,,,,,00056,2023-10-15_09h10.07.658,vbt_B2_day4,2022.2.4,MacIntel,43.47826087,,,,,,down,0,0.584,,0.670241287,-0.225201072,1,0,0,0,113,113,134,1,geliefd,images/br_geliefd.png,images/cb_geliefd.png,0,,,,,,,,,,,,,,,,,,,,,,
,,,,,00056,2023-10-15_09h10.07.658,vbt_B2_day4,2022.2.4,MacIntel,43.47826087,,,,,,down,0,0.114,,0.605898123,-0.170241287,1,0,0,0,114,114,73,1,volop,images/br_volop.png,images/cb_volop.png,0,,,,,,,,,,,,,,,,,,,,,,
,,,,,00056,2023-10-15_09h10.07.658,vbt_B2_day4,2022.2.4,MacIntel,43.47826087,,,,,,down,0,28.247,,0.63538874,-0.080428954,1,0,0,0,115,115,103,1,joggen,images/br_joggen.png,images/cb_joggen.png,0,,,,,,,,,,,,,,,,,,,,,,
,,,,,00056,2023-10-15_09h10.07.658,vbt_B2_day4,2022.2.4,MacIntel,43.47826087,,,,,,down,0,0.181,,0.667560322,-0.193029491,1,0,0,0,116,116,148,1,smullen,images/br_smullen.png,images/cb_smullen.png,0,,,,,,,,,,,,,,,,,,,,,,
,,,,,00056,2023-10-15_09h10.07.658,vbt_B2_day4,2022.2.4,MacIntel,43.47826087,,,,,,down,0,0.165,,0.648793566,-0.221179625,1,0,0,0,117,117,116,1,besmet,images/br_besmet.png,images/cb_besmet.png,0,,,,,,,,,,,,,,,,,,,,,,
,,,,,00056,2023-10-15_09h10.07.658,vbt_B2_day4,2022.2.4,MacIntel,43.47826087,,,,,,down,0,0.865,,0.612600536,-0.262734584,1,0,0,0,118,118,34,1,vorm,images/br_vorm.png,images/cb_vorm.png,0,,,,,,,,,,,,,,,,,,,,,,
,,,,,00056,2023-10-15_09h10.07.658,vbt_B2_day4,2022.2.4,MacIntel,43.47826087,,,,,,down,0,2.715,,0.628686327,-0.235924933,1,0,0,0,119,119,99,1,koffie,images/br_koffie.png,images/cb_koffie.png,0,,,,,,,,,,,,,,,,,,,,,,
,,,,,00056,2023-10-15_09h10.07.658,vbt_B2_day4,2022.2.4,MacIntel,43.47826087,,,,,,down,0,4.299,,0.623324397,-0.189008043,1,0,0,0,120,120,24,1,jurk,images/br_jurk.png,images/cb_jurk.png,1,Jurk,,,,,,,,,,,,,,,,,,,,,
,,,,,00056,2023-10-15_09h10.07.658,vbt_B2_day4,2022.2.4,MacIntel,43.47826087,,,,,,down,0,1.015,,0.68766756,-0.247989276,1,0,0,0,121,121,41,1,maken,images/br_maken.png,images/cb_maken.png,0,,,,,,,,,,,,,,,,,,,,,,
,,,,,00056,2023-10-15_09h10.07.658,vbt_B2_day4,2022.2.4,MacIntel,43.47826087,,,,,,down,0,2.517,,0.58310992,-0.294906166,1,0,0,0,122,122,66,1,lever,images/br_lever.png,images/cb_lever.png,1,Lever,,,,,,,,,,,,,,,,,,,,,
,,,,,00056,2023-10-15_09h10.07.658,vbt_B2_day4,2022.2.4,MacIntel,43.47826087,,,,,,down,0,2.215,,0.554959786,-0.142091153,1,0,0,0,123,123,199,1,beseffen,images/br_beseffen.png,images/cb_beseffen.png,0,,,,,,,,,,,,,,,,,,,,,,
,,,,,00056,2023-10-15_09h10.07.658,vbt_B2_day4,2022.2.4,MacIntel,43.47826087,,,,,,down,0,0.932,,0.565683646,-0.184986595,1,0,0,0,124,124,74,1,graaf,images/br_graaf.png,images/cb_graaf.png,0,,,,,,,,,,,,,,,,,,,,,,
,,,,,00056,2023-10-15_09h10.07.658,vbt_B2_day4,2022.2.4,MacIntel,43.47826087,,,,,,down,0,0.116,,0.579088472,-0.117962466,1,0,0,0,125,125,30,1,uien,images/br_uien.png,images/cb_uien.png,0,,,,,,,,,,,,,,,,,,,,,,
,,,,,00056,2023-10-15_09h10.07.658,vbt_B2_day4,2022.2.4,MacIntel,43.47826087,,,,,,down,0,0.698,,0.612600536,-0.215817694,1,0,0,0,126,126,46,1,jagen,images/br_jagen.png,images/cb_jagen.png,0,,,,,,,,,,,,,,,,,,,,,,
,,,,,00056,2023-10-15_09h10.07.658,vbt_B2_day4,2022.2.4,MacIntel,43.47826087,,,,,,down,0,0.846,,0.621983914,-0.237265416,1,0,0,0,127,127,62,1,knaap,images/br_knaap.png,images/cb_knaap.png,0,,,,,,,,,,,,,,,,,,,,,,
,,,,,00056,2023-10-15_09h10.07.658,vbt_B2_day4,2022.2.4,MacIntel,43.47826087,,,,,,down,0,5.931,,0.647453083,-0.203753351,1,0,0,0,128,128,92,1,geheim,images/br_geheim.png,images/cb_geheim.png,0,,,,,,,,,,,,,,,,,,,,,,
,,,,,00056,2023-10-15_09h10.07.658,vbt_B2_day4,2022.2.4,MacIntel,43.47826087,,,,,,down,0,3.064,,0.643431635,-0.159517426,1,0,0,0,129,129,147,1,komisch,images/br_komisch.png,images/cb_komisch.png,1,Komisch,,,,,,,,,,,,,,,,,,,,,
,,,,,00056,2023-10-15_09h10.07.658,vbt_B2_day4,2022.2.4,MacIntel,43.47826087,,,,,,down,0,0.748,,0.59383378,-0.138069705,1,0,0,0,130,130,9,1,hier,images/br_hier.png,images/cb_hier.png,0,,,,,,,,,,,,,,,,,,,,,,
,,,,,00056,2023-10-15_09h10.07.658,vbt_B2_day4,2022.2.4,MacIntel,43.47826087,,,,,,down,0,2.096,,0.608579088,-0.241286863,1,0,0,0,131,131,131,1,opzicht,images/br_opzicht.png,images/cb_opzicht.png,0,,,,,,,,,,,,,,,,,,,,,,
,,,,,00056,2023-10-15_09h10.07.658,vbt_B2_day4,2022.2.4,MacIntel,43.47826087,,,,,,down,0,4.798,,0.656836461,-0.349865952,1,0,0,0,132,132,14,1,rijp,images/br_rijp.png,images/cb_rijp.png,0,,,,,,,,,,,,,,,,,,,,,,
,,,,,00056,2023-10-15_09h10.07.658,vbt_B2_day4,2022.2.4,MacIntel,43.47826087,,,,,,down,0,0.031,,0.710455764,-0.278820375,1,0,0,0,133,133,29,1,baas,images/br_baas.png,images/cb_baas.png,0,,,,,,,,,,,,,,,,,,,,,,
,,,,,00056,2023-10-15_09h10.07.658,vbt_B2_day4,2022.2.4,MacIntel,43.47826087,,,,,,down,0,0.301,,0.678284182,-0.288203753,1,0,0,0,134,134,173,1,apparaat,images/br_apparaat.png,images/cb_apparaat.png,0,,,,,,,,,,,,,,,,,,,,,,
,,,,,00056,2023-10-15_09h10.07.658,vbt_B2_day4,2022.2.4,MacIntel,43.47826087,,,,,,down,0,0.048,,0.659517426,-0.254691689,1,0,0,0,135,135,42,1,bleek,images/br_bleek.png,images/cb_bleek.png,0,,,,,,,,,,,,,,,,,,,,,,
,,,,,00056,2023-10-15_09h10.07.658,vbt_B2_day4,2022.2.4,MacIntel,43.47826087,,,,,,down,0,3.284,,0.561662198,-0.331099196,1,0,0,0,136,136,104,1,zweven,images/br_zweven.png,images/cb_zweven.png,1,Zweven,,,,,,,,,,,,,,,,,,,,,
,,,,,00056,2023-10-15_09h10.07.658,vbt_B2_day4,2022.2.4,MacIntel,43.47826087,,,,,,down,0,9.097,,0.609919571,-0.27077748,1,0,0,0,137,137,143,1,hechten,images/br_hechten.png,images/cb_hechten.png,0,,,,,,,,,,,,,,,,,,,,,,
,,,,,00056,2023-10-15_09h10.07.658,vbt_B2_day4,2022.2.4,MacIntel,43.47826087,,,,,,down,0,0.349,,0.642091153,-0.306970509,1,0,0,0,138,138,43,1,klauw,images/br_klauw.png,images/cb_klauw.png,0,,,,,,,,,,,,,,,,,,,,,,
,,,,,00056,2023-10-15_09h10.07.658,vbt_B2_day4,2022.2.4,MacIntel,43.47826087,,,,,,down,0,0.18,,0.621983914,-0.288203753,1,0,0,0,139,139,68,1,schat,images/br_schat.png,images/cb_schat.png,0,,,,,,,,,,,,,,,,,,,,,,
,,,,,00056,2023-10-15_09h10.07.658,vbt_B2_day4,2022.2.4,MacIntel,43.47826087,,,,,,down,0,0.084,,0.548257373,-0.178284182,1,0,0,0,140,140,21,1,mist,images/br_mist.png,images/cb_mist.png,0,,,,,,,,,,,,,,,,,,,,,,
,,,,,00056,2023-10-15_09h10.07.658,vbt_B2_day4,2022.2.4,MacIntel,43.47826087,,,,,,down,0,0.899,,0.589812332,-0.148793566,1,0,0,0,141,141,15,1,soda,images/br_soda.png,images/cb_soda.png,0,,,,,,,,,,,,,,,,,,,,,,
,,,,,00056,2023-10-15_09h10.07.658,vbt_B2_day4,2022.2.4,MacIntel,43.47826087,,,,,,down,0,8.298,,0.584450402,-0.148793566,1,0,0,0,142,142,182,1,bijkomen,images/br_bijkomen.png,images/cb_bijkomen.png,0,,,,,,,,,,,,,,,,,,,,,,
,,,,,00056,2023-10-15_09h10.07.658,vbt_B2_day4,2022.2.4,MacIntel,43.47826087,,,,,,down,0,0.748,,0.563002681,-0.262734584,1,0,0,0,143,143,115,1,kleren,images/br_kleren.png,images/cb_kleren.png,0,,,,,,,,,,,,,,,,,,,,,,
,,,,,00056,2023-10-15_09h10.07.658,vbt_B2_day4,2022.2.4,MacIntel,43.47826087,,,,,,down,0,0.816,,0.569705094,-0.136729223,1,0,0,0,144,144,49,1,laken,images/br_laken.png,images/cb_laken.png,0,,,,,,,,,,,,,,,,,,,,,,
,,,,,00056,2023-10-15_09h10.07.658,vbt_B2_day4,2022.2.4,MacIntel,43.47826087,,,,,,down,0,3.865,,0.497319035,-0.203753351,1,0,0,0,145,145,118,1,vinger,images/br_vinger.png,images/cb_vinger.png,0,,,,,,,,,,,,,,,,,,,,,,
,,,,,00056,2023-10-15_09h10.07.658,vbt_B2_day4,2022.2.4,MacIntel,43.47826087,,,,,,down,0,0.149,,0.576407507,-0.09919571,1,0,0,0,146,146,192,1,schaamte,images/br_schaamte.png,images/cb_schaamte.png,0,,,,,,,,,,,,,,,,,,,,,,
,,,,,00056,2023-10-15_09h10.07.658,vbt_B2_day4,2022.2.4,MacIntel,43.47826087,,,,,,down,0,0.452,,0.573726542,-0.144772118,1,0,0,0,147,147,86,1,woning,images/br_woning.png,images/cb_woning.png,0,,,,,,,,,,,,,,,,,,,,,,
,,,,,00056,2023-10-15_09h10.07.658,vbt_B2_day4,2022.2.4,MacIntel,43.47826087,,,,,,down,0,1.265,,0.548257373,-0.025469169,1,0,0,0,148,148,171,1,aarzelen,images/br_aarzelen.png,images/cb_aarzelen.png,0,,,,,,,,,,,,,,,,,,,,,,
,,,,,00056,2023-10-15_09h10.07.658,vbt_B2_day4,2022.2.4,MacIntel,43.47826087,,,,,,down,0,0.982,,0.521447721,-0.123324397,1,0,0,0,149,149,48,1,steel,images/br_steel.png,images/cb_steel.png,0,,,,,,,,,,,,,,,,,,,,,,
,,,,,00056,2023-10-15_09h10.07.658,vbt_B2_day4,2022.2.4,MacIntel,43.47826087,,,,,,down,0,0.081,,0.516085791,-0.194369973,1,0,0,0,150,150,7,1,geld,images/br_geld.png,images/cb_geld.png,0,,,,,,,,,,,,,,,,,,,,,,
,,,,,00056,2023-10-15_09h10.07.658,vbt_B2_day4,2022.2.4,MacIntel,43.47826087,,,,,,down,0,1.331,,0.557640751,-0.1769437,1,0,0,0,151,151,165,1,feestdag,images/br_feestdag.png,images/cb_feestdag.png,0,,,,,,,,,,,,,,,,,,,,,,
,,,,,00056,2023-10-15_09h10.07.658,vbt_B2_day4,2022.2.4,MacIntel,43.47826087,,,,,,down,0,1.483,,0.628686327,-0.235924933,1,0,0,0,152,152,64,1,wegen,images/br_wegen.png,images/cb_wegen.png,1,Wegen,,,,,,,,,,,,,,,,,,,,,
,,,,,00056,2023-10-15_09h10.07.658,vbt_B2_day4,2022.2.4,MacIntel,43.47826087,,,,,,down,0,0.381,,0.648793566,-0.250670241,1,0,0,0,153,153,33,1,vlek,images/br_vlek.png,images/cb_vlek.png,0,,,,,,,,,,,,,,,,,,,,,,
,,,,,00056,2023-10-15_09h10.07.658,vbt_B2_day4,2022.2.4,MacIntel,43.47826087,,,,,,down,0,0.481,,0.675603217,-0.250670241,1,0,0,0,154,154,95,1,vreten,images/br_vreten.png,images/cb_vreten.png,0,,,,,,,,,,,,,,,,,,,,,,
,,,,,00056,2023-10-15_09h10.07.658,vbt_B2_day4,2022.2.4,MacIntel,43.47826087,,,,,,down,0,0.498,,0.609919571,-0.258713137,1,0,0,0,155,155,58,1,tekst,images/br_tekst.png,images/cb_tekst.png,0,,,,,,,,,,,,,,,,,,,,,,
,,,,,00056,2023-10-15_09h10.07.658,vbt_B2_day4,2022.2.4,MacIntel,43.47826087,,,,,,down,0,4.698,,0.571045576,-0.193029491,1,0,0,0,156,156,129,1,verhaal,images/br_verhaal.png,images/cb_verhaal.png,0,,,,,,,,,,,,,,,,,,,,,,
,,,,,00056,2023-10-15_09h10.07.658,vbt_B2_day4,2022.2.4,MacIntel,43.47826087,,,,,,down,0,0.831,,0.642091153,-0.320375335,1,0,0,0,157,157,37,1,mijn,images/br_mijn.png,images/cb_mijn.png,0,,,,,,,,,,,,,,,,,,,,,,
,,,,,00056,2023-10-15_09h10.07.658,vbt_B2_day4,2022.2.4,MacIntel,43.47826087,,,,,,down,0,0.467,,0.607238606,-0.284182306,1,0,0,0,158,158,113,1,koppen,images/br_koppen.png,images/cb_koppen.png,0,,,,,,,,,,,,,,,,,,,,,,
,,,,,00056,2023-10-15_09h10.07.658,vbt_B2_day4,2022.2.4,MacIntel,43.47826087,,,,,,down,0,3.282,,0.553619303,-0.197050938,1,0,0,0,159,159,27,1,dans,images/br_dans.png,images/cb_dans.png,1,Dans,,,,,,,,,,,,,,,,,,,,,
,,,,,00056,2023-10-15_09h10.07.658,vbt_B2_day4,2022.2.4,MacIntel,43.47826087,,,,,,down,0,4.799,,0.538873995,-0.179624665,1,0,0,0,160,160,193,1,weeshuis,images/br_weeshuis.png,images/cb_weeshuis.png,0,,,,,,,,,,,,,,,,,,,,,,
,,,,,00056,2023-10-15_09h10.07.658,vbt_B2_day4,2022.2.4,MacIntel,43.47826087,,,,,,down,0,0.382,,0.568364611,-0.103217158,1,0,0,0,161,161,160,1,daarheen,images/br_daarheen.png,images/cb_daarheen.png,0,,,,,,,,,,,,,,,,,,,,,,
,,,,,00056,2023-10-15_09h10.07.658,vbt_B2_day4,2022.2.4,MacIntel,43.47826087,,,,,,down,0,1.133,,0.575067024,-0.28150134,1,0,0,0,162,162,153,1,vervoer,images/br_vervoer.png,images/cb_vervoer.png,0,,,,,,,,,,,,,,,,,,,,,,
,,,,,00056,2023-10-15_09h10.07.658,vbt_B2_day4,2022.2.4,MacIntel,43.47826087,,,,,,down,0,0.048,,0.489276139,-0.151474531,1,0,0,0,163,163,56,1,traag,images/br_traag.png,images/cb_traag.png,0,,,,,,,,,,,,,,,,,,,,,,
,,,,,00056,2023-10-15_09h10.07.658,vbt_B2_day4,2022.2.4,MacIntel,43.47826087,,,,,,down,0,7.647,,0.597855228,-0.126005362,1,0,0,0,164,164,144,1,eetlust,images/br_eetlust.png,images/cb_eetlust.png,1,Eetlust,,,,,,,,,,,,,,,,,,,,,
,,,,,00056,2023-10-15_09h10.07.658,vbt_B2_day4,2022.2.4,MacIntel,43.47826087,,,,,,down,0,9.18,,0.502680965,-0.179624665,1,0,0,0,165,165,178,1,huisdier,images/br_huisdier.png,images/cb_huisdier.png,0,,,,,,,,,,,,,,,,,,,,,,
,,,,,00056,2023-10-15_09h10.07.658,vbt_B2_day4,2022.2.4,MacIntel,43.47826087,,,,,,down,0,4.098,,0.538873995,-0.246648794,1,0,0,0,166,166,168,1,bisschop,images/br_bisschop.png,images/cb_bisschop.png,0,,,,,,,,,,,,,,,,,,,,,,
,,,,,00056,2023-10-15_09h10.07.658,vbt_B2_day4,2022.2.4,MacIntel,43.47826087,,,,,,down,0,0.031,,0.49463807,-0.278820375,1,0,0,0,167,167,109,1,totaal,images/br_totaal.png,images/cb_totaal.png,0,,,,,,,,,,,,,,,,,,,,,,
,,,,,00056,2023-10-15_09h10.07.658,vbt_B2_day4,2022.2.4,MacIntel,43.47826087,,,,,,down,0,0.098,,0.558981233,-0.194369973,1,0,0,0,168,168,78,1,leren,images/br_leren.png,images/cb_leren.png,0,,,,,,,,,,,,,,,,,,,,,,
,,,,,00056,2023-10-15_09h10.07.658,vbt_B2_day4,2022.2.4,MacIntel,43.47826087,,,,,,down,0,0.732,,0.558981233,-0.103217158,1,0,0,0,169,169,76,1,afval,images/br_afval.png,images/cb_afval.png,0,,,,,,,,,,,,,,,,,,,,,,
,,,,,00056,2023-10-15_09h10.07.658,vbt_B2_day4,2022.2.4,MacIntel,43.47826087,,,,,,down,0,4.414,,0.525469169,-0.158176944,1,0,0,0,170,170,175,1,heengaan,images/br_heengaan.png,images/cb_heengaan.png,0,,,,,,,,,,,,,,,,,,,,,,
,,,,,00056,2023-10-15_09h10.07.658,vbt_B2_day4,2022.2.4,MacIntel,43.47826087,,,,,,down,0,2.681,,0.568364611,-0.353887399,1,0,0,0,171,171,32,1,palm,images/br_palm.png,images/cb_palm.png,0,,,,,,,,,,,,,,,,,,,,,,
,,,,,00056,2023-10-15_09h10.07.658,vbt_B2_day4,2022.2.4,MacIntel,43.47826087,,,,,,down,0,3.616,,0.473190349,-0.22922252,1,0,0,0,172,172,65,1,parel,images/br_parel.png,images/cb_parel.png,1,Parel,,,,,,,,,,,,,,,,,,,,,
,,,,,00056,2023-10-15_09h10.07.658,vbt_B2_day4,2022.2.4,MacIntel,43.47826087,,,,,,down,0,23.298,,0.617962466,-0.306970509,1,0,0,0,173,173,111,1,ticket,images/br_ticket.png,images/cb_ticket.png,0,,,,,,,,,,,,,,,,,,,,,,
,,,,,00056,2023-10-15_09h10.07.658,vbt_B2_day4,2022.2.4,MacIntel,43.47826087,,,,,,down,0,0.9,,0.495978552,-0.13002681,1,0,0,0,174,174,101,1,staren,images/br_staren.png,images/cb_staren.png,0,,,,,,,,,,,,,,,,,,,,,,
,,,,,00056,2023-10-15_09h10.07.658,vbt_B2_day4,2022.2.4,MacIntel,43.47826087,,,,,,down,0,0.35,,0.603217158,-0.207774799,1,0,0,0,175,175,125,1,aanzien,images/br_aanzien.png,images/cb_aanzien.png,0,,,,,,,,,,,,,,,,,,,,,,
,,,,,00056,2023-10-15_09h10.07.658,vbt_B2_day4,2022.2.4,MacIntel,43.47826087,,,,,,down,0,0.515,,0.557640751,-0.226541555,1,0,0,0,176,176,1,1,zaal,images/br_zaal.png,images/cb_zaal.png,0,,,,,,,,,,,,,,,,,,,,,,
,,,,,00056,2023-10-15_09h10.07.658,vbt_B2_day4,2022.2.4,MacIntel,43.47826087,,,,,,down,0,0.715,,0.49463807,-0.079088472,1,0,0,0,177,177,133,1,seizoen,images/br_seizoen.png,images/cb_seizoen.png,0,,,,,,,,,,,,,,,,,,,,,,
,,,,,00056,2023-10-15_09h10.07.658,vbt_B2_day4,2022.2.4,MacIntel,43.47826087,,,,,,down,0,3.881,,0.471849866,-0.144772118,1,0,0,0,178,178,81,1,dubbel,images/br_dubbel.png,images/cb_dubbel.png,0,,,,,,,,,,,,,,,,,,,,,,
,,,,,00056,2023-10-15_09h10.07.658,vbt_B2_day4,2022.2.4,MacIntel,43.47826087,,,,,,down,0,0.23,,0.486595174,-0.199731903,1,0,0,0,179,179,53,1,baron,images/br_baron.png,images/cb_baron.png,0,,,,,,,,,,,,,,,,,,,,,,
,,,,,00056,2023-10-15_09h10.07.658,vbt_B2_day4,2022.2.4,MacIntel,43.47826087,,,,,,down,0,9.515,,0.391420912,-0.14075067,1,0,0,0,180,180,60,1,jasje,images/br_jasje.png,images/cb_jasje.png,0,,,,,,,,,,,,,,,,,,,,,,
,,,,,00056,2023-10-15_09h10.07.658,vbt_B2_day4,2022.2.4,MacIntel,43.47826087,,,,,,down,0,2.232,,0.498659517,-0.179624665,1,0,0,0,181,181,162,1,uitdelen,images/br_uitdelen.png,images/cb_uitdelen.png,0,,,,,,,,,,,,,,,,,,,,,,
,,,,,00056,2023-10-15_09h10.07.658,vbt_B2_day4,2022.2.4,MacIntel,43.47826087,,,,,,down,0,0.133,,0.530831099,-0.190348525,1,0,0,0,182,182,20,1,site,images/br_site.png,images/cb_site.png,0,,,,,,,,,,,,,,,,,,,,,,
,,,,,00056,2023-10-15_09h10.07.658,vbt_B2_day4,2022.2.4,MacIntel,43.47826087,,,,,,down,0,2.562,,0.55227882,-0.13538874,1,0,0,0,183,183,25,1,plek,images/br_plek.png,images/cb_plek.png,1,Plek,,,,,,,,,,,,,,,,,,,,,
,,,,,00056,2023-10-15_09h10.07.658,vbt_B2_day4,2022.2.4,MacIntel,43.47826087,,,,,,down,0,0.314,,0.603217158,-0.092493298,1,0,0,0,184,184,138,1,akkoord,images/br_akkoord.png,images/cb_akkoord.png,0,,,,,,,,,,,,,,,,,,,,,,
,,,,,00056,2023-10-15_09h10.07.658,vbt_B2_day4,2022.2.4,MacIntel,43.47826087,,,,,,down,0,0.565,,0.544235925,-0.100536193,1,0,0,0,185,185,2,1,jaar,images/br_jaar.png,images/cb_jaar.png,0,,,,,,,,,,,,,,,,,,,,,,
,,,,,00056,2023-10-15_09h10.07.658,vbt_B2_day4,2022.2.4,MacIntel,43.47826087,,,,,,down,0,8.051,,0.616621984,-0.237265416,1,0,0,0,186,186,107,1,maling,images/br_maling.png,images/cb_maling.png,1,Maling,,,,,,,,,,,,,,,,,,,,,
,,,,,00056,2023-10-15_09h10.07.658,vbt_B2_day4,2022.2.4,MacIntel,43.47826087,,,,,,down,0,0.315,,0.608579088,-0.136729223,1,0,0,0,187,187,97,1,loyaal,images/br_loyaal.png,images/cb_loyaal.png,0,,,,,,,,,,,,,,,,,,,,,,
,,,,,00056,2023-10-15_09h10.07.658,vbt_B2_day4,2022.2.4,MacIntel,43.47826087,,,,,,down,0,0.216,,0.529490617,-0.139410188,1,0,0,0,188,188,38,1,baai,images/br_baai.png,images/cb_baai.png,0,,,,,,,,,,,,,,,,,,,,,,
,,,,,00056,2023-10-15_09h10.07.658,vbt_B2_day4,2022.2.4,MacIntel,43.47826087,,,,,,down,0,0.299,,0.493297587,-0.058981233,1,0,0,0,189,189,47,1,kabel,images/br_kabel.png,images/cb_kabel.png,0,,,,,,,,,,,,,,,,,,,,,,
,,,,,00056,2023-10-15_09h10.07.658,vbt_B2_day4,2022.2.4,MacIntel,43.47826087,,,,,,down,0,0.131,,0.573726542,-0.123324397,1,0,0,0,190,190,83,1,mening,images/br_mening.png,images/cb_mening.png,0,,,,,,,,,,,,,,,,,,,,,,
,,,,,00056,2023-10-15_09h10.07.658,vbt_B2_day4,2022.2.4,MacIntel,43.47826087,,,,,,down,0,0.215,,0.576407507,-0.172922252,1,0,0,0,191,191,90,1,geluid,images/br_geluid.png,images/cb_geluid.png,0,,,,,,,,,,,,,,,,,,,,,,
,,,,,00056,2023-10-15_09h10.07.658,vbt_B2_day4,2022.2.4,MacIntel,43.47826087,,,,,,down,0,0.444,,0.642091153,-0.100536193,1,0,0,0,192,192,0,1,slak,images/br_slak.png,images/cb_slak.png,0,,,,,,,,,,,,,,,,,,,,,,
,,,,,00056,2023-10-15_09h10.07.658,vbt_B2_day4,2022.2.4,MacIntel,43.47826087,,,,,,down,0,0.249,,0.518766756,-0.13538874,1,0,0,0,193,193,161,1,attentie,images/br_attentie.png,images/cb_attentie.png,0,,,,,,,,,,,,,,,,,,,,,,
,,,,,00056,2023-10-15_09h10.07.658,vbt_B2_day4,2022.2.4,MacIntel,43.47826087,,,,,,down,0,0.266,,0.59383378,-0.124664879,1,0,0,0,194,194,36,1,vuur,images/br_vuur.png,images/cb_vuur.png,0,,,,,,,,,,,,,,,,,,,,,,
,,,,,00056,2023-10-15_09h10.07.658,vbt_B2_day4,2022.2.4,MacIntel,43.47826087,,,,,,down,0,4.665,,0.611260054,-0.18766756,1,0,0,0,195,195,181,1,toegeven,images/br_toegeven.png,images/cb_toegeven.png,0,,,,,,,,,,,,,,,,,,,,,,
,,,,,00056,2023-10-15_09h10.07.658,vbt_B2_day4,2022.2.4,MacIntel,43.47826087,,,,,,down,0,0.528,,0.536193029,-0.237265416,1,0,0,0,196,196,18,1,blik,images/br_blik.png,images/cb_blik.png,0,,,,,,,,,,,,,,,,,,,,,,
,,,,,00056,2023-10-15_09h10.07.658,vbt_B2_day4,2022.2.4,MacIntel,43.47826087,,,,,,down,0,2.681,,0.526809651,-0.198391421,1,0,0,0,197,197,149,1,redding,images/br_redding.png,images/cb_redding.png,0,,,,,,,,,,,,,,,,,,,,,,
,,,,,00056,2023-10-15_09h10.07.658,vbt_B2_day4,2022.2.4,MacIntel,43.47826087,,,,,,down,0,0.098,,0.530831099,-0.151474531,1,0,0,0,198,198,57,1,steek,images/br_steek.png,images/cb_steek.png,0,,,,,,,,,,,,,,,,,,,,,,
,,,,,00056,2023-10-15_09h10.07.658,vbt_B2_day4,2022.2.4,MacIntel,43.47826087,,,,,,down,0,1.365,,0.50536193,-0.190348525,1,0,0,0,199,199,70,1,ijdel,images/br_ijdel.png,images/cb_ijdel.png,0,,,,,,,,,,,,,,,,,,,,,,
,,,,,00056,2023-10-15_09h10.07.658,vbt_B2_day4,2022.2.4,MacIntel,43.47826087,,,,,,,,,,,,,,,,,,,,,,,,,0.049597855,-0.13538874,1,0,0,,,,,,,,,,,,,,,,
,,,,,00056,2023-10-15_09h10.07.658,vbt_B2_day4,2022.2.4,MacIntel,43.47826087,,,,,,,,,,,,,,,,,,,,,,,,,,,,,,0.621983914,-0.253351206,1,0,0,,,,,,,,,,,
,,,,,00056,2023-10-15_09h10.07.658,vbt_B2_day4,2022.2.4,MacIntel,43.47826087,,,,,,,,,,,,,,,,,,,,getucht,images/br_getucht.png,images/cb_getucht.png,,Geluid,,,,,,,,,,,0.573726542,-0.278820375,1,0,0,Geluid,0,0,0,35,1
,,,,,00056,2023-10-15_09h10.07.658,vbt_B2_day4,2022.2.4,MacIntel,43.47826087,,,,,,,,,,,,,,,,,,,,eerst,images/br_eerst.png,images/cb_eerst.png,,Eerst,,,,,,,,,,,0.506702413,-0.239946381,1,0,0,Eerst,0,1,1,47,1
,,,,,00056,2023-10-15_09h10.07.658,vbt_B2_day4,2022.2.4,MacIntel,43.47826087,,,,,,,,,,,,,,,,,,,,warel,images/br_warel.png,images/cb_warel.png,,Warel,,,,,,,,,,,0.558981233,-0.199731903,1,0,0,Warel,0,2,2,26,1
,,,,,00056,2023-10-15_09h10.07.658,vbt_B2_day4,2022.2.4,MacIntel,43.47826087,,,,,,,,,,,,,,,,,,,,wozing,images/br_wozing.png,images/cb_wozing.png,,Wozing,,,,,,,,,,,0.55227882,-0.115281501,1,0,0,Wozing,0,3,3,28,1
,,,,,00056,2023-10-15_09h10.07.658,vbt_B2_day4,2022.2.4,MacIntel,43.47826087,,,,,,,,,,,,,,,,,,,,gijf,images/br_gijf.png,images/cb_gijf.png,,Geit,,,,,,,,,,,0.658176944,-0.123324397,1,0,0,Geit,0,4,4,23,1
,,,,,00056,2023-10-15_09h10.07.658,vbt_B2_day4,2022.2.4,MacIntel,43.47826087,,,,,,,,,,,,,,,,,,,,opkicht,images/br_opkicht.png,images/cb_opkicht.png,,Oprecht,,,,,,,,,,,0.587131367,-0.158176944,1,0,0,Oprecht,0,5,5,34,1
,,,,,00056,2023-10-15_09h10.07.658,vbt_B2_day4,2022.2.4,MacIntel,43.47826087,,,,,,,,,,,,,,,,,,,,flippen,images/br_flippen.png,images/cb_flippen.png,,Flippen,,,,,,,,,,,0.55227882,-0.199731903,1,0,0,Flippen,0,6,6,54,1
,,,,,00056,2023-10-15_09h10.07.658,vbt_B2_day4,2022.2.4,MacIntel,43.47826087,,,,,,,,,,,,,,,,,,,,seizoen,images/br_seizoen.png,images/cb_seizoen.png,,Seizoen,,,,,,,,,,,0.601876676,-0.203753351,1,0,0,Seizoen,0,7,7,13,1
,,,,,00056,2023-10-15_09h10.07.658,vbt_B2_day4,2022.2.4,MacIntel,43.47826087,,,,,,,,,,,,,,,,,,,,waarop,images/br_waarop.png,images/cb_waarop.png,,Waarop,,,,,,,,,,,0.648793566,-0.184986595,1,0,0,Waarop,0,8,8,9,1
,,,,,00056,2023-10-15_09h10.07.658,vbt_B2_day4,2022.2.4,MacIntel,43.47826087,,,,,,,,,,,,,,,,,,,,noodzaak,images/br_noodzaak.png,images/cb_noodzaak.png,,Noodzaak,,,,,,,,,,,0.587131367,-0.159517426,1,0,0,Noodzaak,0,9,9,56,1
,,,,,00056,2023-10-15_09h10.07.658,vbt_B2_day4,2022.2.4,MacIntel,43.47826087,,,,,,,,,,,,,,,,,,,,schotel,images/br_schotel.png,images/cb_schotel.png,,Schotel,,,,,,,,,,,0.549597855,-0.198391421,1,0,0,Schotel,0,10,10,52,1
,,,,,00056,2023-10-15_09h10.07.658,vbt_B2_day4,2022.2.4,MacIntel,43.47826087,,,,,,,,,,,,,,,,,,,,praat,images/br_praat.png,images/cb_praat.png,,Praat,,,,,,,,,,,0.63538874,-0.217158177,1,0,0,Praat,0,11,11,7,1
,,,,,00056,2023-10-15_09h10.07.658,vbt_B2_day4,2022.2.4,MacIntel,43.47826087,,,,,,,,,,,,,,,,,,,,aanzwaag,images/br_aanzwaag.png,images/cb_aanzwaag.png,,Aanzwaag,,,,,,,,,,,0.648793566,-0.143431635,1,0,0,Aanzwaag,0,12,12,38,1
,,,,,00056,2023-10-15_09h10.07.658,vbt_B2_day4,2022.2.4,MacIntel,43.47826087,,,,,,,,,,,,,,,,,,,,dalen,images/br_dalen.png,images/cb_dalen.png,,Dalen,,,,,,,,,,,0.571045576,-0.222520107,1,0,0,Dalen,0,13,13,46,1
,,,,,00056,2023-10-15_09h10.07.658,vbt_B2_day4,2022.2.4,MacIntel,43.47826087,,,,,,,,,,,,,,,,,,,,opruimen,images/br_opruimen.png,images/cb_opruimen.png,,Opruimen,,,,,,,,,,,0.626005362,-0.167560322,1,0,0,Opruimen,0,14,14,59,1
,,,,,00056,2023-10-15_09h10.07.658,vbt_B2_day4,2022.2.4,MacIntel,43.47826087,,,,,,,,,,,,,,,,,,,,stemming,images/br_stemming.png,images/cb_stemming.png,,Stemming,,,,,,,,,,,0.579088472,-0.222520107,1,0,0,Stemming,0,15,15,18,1
,,,,,00056,2023-10-15_09h10.07.658,vbt_B2_day4,2022.2.4,MacIntel,43.47826087,,,,,,,,,,,,,,,,,,,,bruin,images/br_bruin.png,images/cb_bruin.png,,Bruin,,,,,,,,,,,0.55227882,-0.138069705,1,0,0,Bruin,0,16,16,45,1
,,,,,00056,2023-10-15_09h10.07.658,vbt_B2_day4,2022.2.4,MacIntel,43.47826087,,,,,,,,,,,,,,,,,,,,rijp,images/br_rijp.png,images/cb_rijp.png,,Rijp,,,,,,,,,,,0.564343164,-0.148793566,1,0,0,Rijp,0,17,17,2,1
,,,,,00056,2023-10-15_09h10.07.658,vbt_B2_day4,2022.2.4,MacIntel,43.47826087,,,,,,,,,,,,,,,,,,,,gebog,images/br_gebog.png,images/cb_gebog.png,,Gebog,,,,,,,,,,,0.631367292,-0.174262735,1,0,0,Gebog,0,18,18,24,1
,,,,,00056,2023-10-15_09h10.07.658,vbt_B2_day4,2022.2.4,MacIntel,43.47826087,,,,,,,,,,,,,,,,,,,,mekst,images/br_mekst.png,images/cb_mekst.png,,Mekst,,,,,,,,,,,0.579088472,-0.131367292,1,0,0,Mekst,0,19,19,27,1
,,,,,00056,2023-10-15_09h10.07.658,vbt_B2_day4,2022.2.4,MacIntel,43.47826087,,,,,,,,,,,,,,,,,,,,gebit,images/br_gebit.png,images/cb_gebit.png,,Gebit,,,,,,,,,,,0.571045576,-0.163538874,1,0,0,Gebit,0,20,20,6,1
,,,,,00056,2023-10-15_09h10.07.658,vbt_B2_day4,2022.2.4,MacIntel,43.47826087,,,,,,,,,,,,,,,,,,,,fran,images/br_fran.png,images/cb_fran.png,,Fran,,,,,,,,,,,0.596514745,-0.172922252,1,0,0,Fran,0,21,21,22,1
,,,,,00056,2023-10-15_09h10.07.658,vbt_B2_day4,2022.2.4,MacIntel,43.47826087,,,,,,,,,,,,,,,,,,,,paalbaak,images/br_paalbaak.png,images/cb_paalbaak.png,,Paalbaar,,,,,,,,,,,0.573726542,-0.190348525,1,0,0,Paalbaar,0,22,22,39,1
,,,,,00056,2023-10-15_09h10.07.658,vbt_B2_day4,2022.2.4,MacIntel,43.47826087,,,,,,,,,,,,,,,,,,,,geliefd,images/br_geliefd.png,images/cb_geliefd.png,,Geliefd,,,,,,,,,,,0.601876676,-0.158176944,1,0,0,Geliefd,0,23,23,14,1
,,,,,00056,2023-10-15_09h10.07.658,vbt_B2_day4,2022.2.4,MacIntel,43.47826087,,,,,,,,,,,,,,,,,,,,kaal,images/br_kaal.png,images/cb_kaal.png,,Kaal,,,,,,,,,,,0.628686327,-0.217158177,1,0,0,Kaal,0,24,24,1,1
,,,,,00056,2023-10-15_09h10.07.658,vbt_B2_day4,2022.2.4,MacIntel,43.47826087,,,,,,,,,,,,,,,,,,,,strok,images/br_strok.png,images/cb_strok.png,,Strok,,,,,,,,,,,0.595174263,-0.245308311,1,0,0,Strok,0,25,25,25,1
,,,,,00056,2023-10-15_09h10.07.658,vbt_B2_day4,2022.2.4,MacIntel,43.47826087,,,,,,,,,,,,,,,,,,,,geheim,images/br_geheim.png,images/cb_geheim.png,,Geheim,,,,,,,,,,,0.553619303,-0.198391421,1,0,0,Geheim,0,26,26,8,1
,,,,,00056,2023-10-15_09h10.07.658,vbt_B2_day4,2022.2.4,MacIntel,43.47826087,,,,,,,,,,,,,,,,,,,,midden,images/br_midden.png,images/cb_midden.png,,Midden,,,,,,,,,,,0.537533512,-0.138069705,1,0,0,Midden,0,27,27,50,1
,,,,,00056,2023-10-15_09h10.07.658,vbt_B2_day4,2022.2.4,MacIntel,43.47826087,,,,,,,,,,,,,,,,,,,,bisschap,images/br_bisschap.png,images/cb_bisschap.png,,Bisschap,,,,,,,,,,,0.626005362,-0.178284182,1,0,0,Bisschap,0,28,28,36,1
,,,,,00056,2023-10-15_09h10.07.658,vbt_B2_day4,2022.2.4,MacIntel,43.47826087,,,,,,,,,,,,,,,,,,,,heengaan,images/br_heengaan.png,images/cb_heengaan.png,,Heengaan,,,,,,,,,,,0.544235925,-0.203753351,1,0,0,Heengaan,0,29,29,19,1
,,,,,00056,2023-10-15_09h10.07.658,vbt_B2_day4,2022.2.4,MacIntel,43.47826087,,,,,,,,,,,,,,,,,,,,drummer,images/br_drummer.png,images/cb_drummer.png,,Drummer,,,,,,,,,,,0.642091153,-0.081769437,1,0,0,Drummer,0,30,30,53,1
,,,,,00056,2023-10-15_09h10.07.658,vbt_B2_day4,2022.2.4,MacIntel,43.47826087,,,,,,,,,,,,,,,,,,,,toevol,images/br_toevol.png,images/cb_toevol.png,,Toeval,,,,,,,,,,,0.59383378,-0.089812332,1,0,0,Toeval,0,31,31,29,1
,,,,,00056,2023-10-15_09h10.07.658,vbt_B2_day4,2022.2.4,MacIntel,43.47826087,,,,,,,,,,,,,,,,,,,,baron,images/br_baron.png,images/cb_baron.png,,Baron,,,,,,,,,,,0.626005362,-0.202412869,1,0,0,Baron,0,32,32,5,1
,,,,,00056,2023-10-15_09h10.07.658,vbt_B2_day4,2022.2.4,MacIntel,43.47826087,,,,,,,,,,,,,,,,,,,,dozijn,images/br_dozijn.png,images/cb_dozijn.png,,Dozijn,,,,,,,,,,,0.526809651,-0.189008043,1,0,0,Dozijn,0,33,33,48,1
,,,,,00056,2023-10-15_09h10.07.658,vbt_B2_day4,2022.2.4,MacIntel,43.47826087,,,,,,,,,,,,,,,,,,,,pijnlijk,images/br_pijnlijk.png,images/cb_pijnlijk.png,,"Pijnlijk,",,,,,,,,,,,0.567024129,-0.18766756,1,0,0,"Pijnlijk,",0,34,34,58,1
,,,,,00056,2023-10-15_09h10.07.658,vbt_B2_day4,2022.2.4,MacIntel,43.47826087,,,,,,,,,,,,,,,,,,,,seizoon,images/br_seizoon.png,images/cb_seizoon.png,,Seizoon,,,,,,,,,,,0.621983914,-0.113941019,1,0,0,Seizoon,0,35,35,33,1
,,,,,00056,2023-10-15_09h10.07.658,vbt_B2_day4,2022.2.4,MacIntel,43.47826087,,,,,,,,,,,,,,,,,,,,tucket,images/br_tucket.png,images/cb_tucket.png,,Tubket,,,,,,,,,,,0.567024129,-0.155495979,1,0,0,Tubket,0,36,36,30,1
,,,,,00056,2023-10-15_09h10.07.658,vbt_B2_day4,2022.2.4,MacIntel,43.47826087,,,,,,,,,,,,,,,,,,,,oceaan,images/br_oceaan.png,images/cb_oceaan.png,,Oceaan,,,,,,,,,,,0.55227882,-0.238605898,1,0,0,Oceaan,0,37,37,10,1
,,,,,00056,2023-10-15_09h10.07.658,vbt_B2_day4,2022.2.4,MacIntel,43.47826087,,,,,,,,,,,,,,,,,,,,zaalrijk,images/br_zaalrijk.png,images/cb_zaalrijk.png,,Zaalrijk,,,,,,,,,,,0.579088472,-0.193029491,1,0,0,Zaalrijk,0,38,38,37,1
,,,,,00056,2023-10-15_09h10.07.658,vbt_B2_day4,2022.2.4,MacIntel,43.47826087,,,,,,,,,,,,,,,,,,,,gedicht,images/br_gedicht.png,images/cb_gedicht.png,,Gedicht,,,,,,,,,,,0.557640751,-0.22922252,1,0,0,Gedicht,0,39,39,15,1
,,,,,00056,2023-10-15_09h10.07.658,vbt_B2_day4,2022.2.4,MacIntel,43.47826087,,,,,,,,,,,,,,,,,,,,lappen,images/br_lappen.png,images/cb_lappen.png,,Lappen,,,,,,,,,,,0.560321716,-0.197050938,1,0,0,Lappen,0,40,40,49,1
,,,,,00056,2023-10-15_09h10.07.658,vbt_B2_day4,2022.2.4,MacIntel,43.47826087,,,,,,,,,,,,,,,,,,,,kust,images/br_kust.png,images/cb_kust.png,,Kust,,,,,,,,,,,0.576407507,-0.168900804,1,0,0,Kust,0,41,41,0,1
,,,,,00056,2023-10-15_09h10.07.658,vbt_B2_day4,2022.2.4,MacIntel,43.47826087,,,,,,,,,,,,,,,,,,,,haza,images/br_haza.png,images/cb_haza.png,,Haza,,,,,,,,,,,0.558981233,-0.231903485,1,0,0,Haza,0,42,42,21,1
,,,,,00056,2023-10-15_09h10.07.658,vbt_B2_day4,2022.2.4,MacIntel,43.47826087,,,,,,,,,,,,,,,,,,,,apparaat,images/br_apparaat.png,images/cb_apparaat.png,,Aparaat,,,,,,,,,,,0.563002681,-0.201072386,1,0,0,Aparaat,0,43,43,17,1
,,,,,00056,2023-10-15_09h10.07.658,vbt_B2_day4,2022.2.4,MacIntel,43.47826087,,,,,,,,,,,,,,,,,,,,ezel,images/br_ezel.png,images/cb_ezel.png,,Ezel,,,,,,,,,,,0.624664879,-0.242627346,1,0,0,Ezel,0,44,44,42,1
,,,,,00056,2023-10-15_09h10.07.658,vbt_B2_day4,2022.2.4,MacIntel,43.47826087,,,,,,,,,,,,,,,,,,,,gaaf,images/br_gaaf.png,images/cb_gaaf.png,,Gaaf,,,,,,,,,,,0.532171582,-0.158176944,1,0,0,Gaaf,0,45,45,43,1
,,,,,00056,2023-10-15_09h10.07.658,vbt_B2_day4,2022.2.4,MacIntel,43.47826087,,,,,,,,,,,,,,,,,,,,weigeren,images/br_weigeren.png,images/cb_weigeren.png,,Weigeren,,,,,,,,,,,0.557640751,-0.221179625,1,0,0,Weigeren,0,46,46,16,1
,,,,,00056,2023-10-15_09h10.07.658,vbt_B2_day4,2022.2.4,MacIntel,43.47826087,,,,,,,,,,,,,,,,,,,,grappen,images/br_grappen.png,images/cb_grappen.png,,Grappen,,,,,,,,,,,0.533512064,-0.166219839,1,0,0,Grappen,0,47,47,12,1
,,,,,00056,2023-10-15_09h10.07.658,vbt_B2_day4,2022.2.4,MacIntel,43.47826087,,,,,,,,,,,,,,,,,,,,pittig,images/br_pittig.png,images/cb_pittig.png,,Pittig,,,,,,,,,,,0.589812332,-0.189008043,1,0,0,Pittig,0,48,48,51,1
,,,,,00056,2023-10-15_09h10.07.658,vbt_B2_day4,2022.2.4,MacIntel,43.47826087,,,,,,,,,,,,,,,,,,,,soda,images/br_soda.png,images/cb_soda.png,,Soda,,,,,,,,,,,0.569705094,-0.195710456,1,0,0,Soda,0,49,49,3,1
,,,,,00056,2023-10-15_09h10.07.658,vbt_B2_day4,2022.2.4,MacIntel,43.47826087,,,,,,,,,,,,,,,,,,,,sulbon,images/br_sulbon.png,images/cb_sulbon.png,,Sulbon,,,,,,,,,,,0.643431635,-0.222520107,1,0,0,Sulbon,0,50,50,31,1
,,,,,00056,2023-10-15_09h10.07.658,vbt_B2_day4,2022.2.4,MacIntel,43.47826087,,,,,,,,,,,,,,,,,,,,drooien,images/br_drooien.png,images/cb_drooien.png,,Drooien,,,,,,,,,,,0.557640751,-0.211796247,1,0,0,Drooien,0,51,51,32,1
,,,,,00056,2023-10-15_09h10.07.658,vbt_B2_day4,2022.2.4,MacIntel,43.47826087,,,,,,,,,,,,,,,,,,,,vreten,images/br_vreten.png,images/cb_vreten.png,,Vreten,,,,,,,,,,,0.528150134,-0.247989276,1,0,0,Vreten,0,52,52,11,1
,,,,,00056,2023-10-15_09h10.07.658,vbt_B2_day4,2022.2.4,MacIntel,43.47826087,,,,,,,,,,,,,,,,,,,,wagon,images/br_wagon.png,images/cb_wagon.png,,Wagon,,,,,,,,,,,0.513404826,-0.258713137,1,0,0,Wagon,0,53,53,4,1
,,,,,00056,2023-10-15_09h10.07.658,vbt_B2_day4,2022.2.4,MacIntel,43.47826087,,,,,,,,,,,,,,,,,,,,snee,images/br_snee.png,images/cb_snee.png,,Snee,,,,,,,,,,,0.589812332,-0.233243968,1,0,0,Snee,0,54,54,40,1
,,,,,00056,2023-10-15_09h10.07.658,vbt_B2_day4,2022.2.4,MacIntel,43.47826087,,,,,,,,,,,,,,,,,,,,zwek,images/br_zwek.png,images/cb_zwek.png,,Zwek,,,,,,,,,,,0.59383378,-0.195710456,1,0,0,Zwek,0,55,55,20,1
,,,,,00056,2023-10-15_09h10.07.658,vbt_B2_day4,2022.2.4,MacIntel,43.47826087,,,,,,,,,,,,,,,,,,,,gaan,images/br_gaan.png,images/cb_gaan.png,,Gaan,,,,,,,,,,,0.553619303,-0.174262735,1,0,0,Gaan,0,56,56,41,1
,,,,,00056,2023-10-15_09h10.07.658,vbt_B2_day4,2022.2.4,MacIntel,43.47826087,,,,,,,,,,,,,,,,,,,,steen,images/br_steen.png,images/cb_steen.png,,Steen,,,,,,,,,,,0.612600536,-0.1769437,1,0,0,Steen,0,57,57,44,1
,,,,,00056,2023-10-15_09h10.07.658,vbt_B2_day4,2022.2.4,MacIntel,43.47826087,,,,,,,,,,,,,,,,,,,,broodje,images/br_broodje.png,images/cb_broodje.png,,Broodje,,,,,,,,,,,0.556300268,-0.22922252,1,0,0,Broodje,0,58,58,55,1
,,,,,00056,2023-10-15_09h10.07.658,vbt_B2_day4,2022.2.4,MacIntel,43.47826087,,,,,,,,,,,,,,,,,,,,schenden,images/br_schenden.png,images/cb_schenden.png,,Schenden,,,,,,,,,,,0.561662198,-0.217158177,1,0,0,Schenden,0,59,59,57,1
,,,,,00056,2023-10-15_09h10.07.658,vbt_B2_day4,2022.2.4,MacIntel,43.47826087,,,,,,,,,,,,,,,,,,,,,,,,,,,,,,,,,,,,,,,,,,,,,
