welcome_mouse.x,welcome_mouse.y,welcome_mouse.leftButton,welcome_mouse.midButton,welcome_mouse.rightButton,"ID",date,expName,psychopyVersion,OS,frameRate,trainInstr_mouse.x,trainInstr_mouse.y,trainInstr_mouse.leftButton,trainInstr_mouse.midButton,trainInstr_mouse.rightButton,translation_key.keys,translation_key.corr,translation_key.rt,word_rsp.text,trWrd_mouse.x,trWrd_mouse.y,trWrd_mouse.leftButton,trWrd_mouse.midButton,trWrd_mouse.rightButton,train_loop.thisRepN,train_loop.thisTrialN,train_loop.thisN,train_loop.thisIndex,train_loop.ran,nlWrd,brWrd,cbWrd,test,testResp,mouse.x,mouse.y,mouse.leftButton,mouse.midButton,mouse.rightButton,testInstr_mouse.x,testInstr_mouse.y,testInstr_mouse.leftButton,testInstr_mouse.midButton,testInstr_mouse.rightButton,test_mouse.x,test_mouse.y,test_mouse.leftButton,test_mouse.midButton,test_mouse.rightButton,test_response.text,test_loop.thisRepN,test_loop.thisTrialN,test_loop.thisN,test_loop.thisIndex,test_loop.ran
-0.122222194,-0.127777806,1,0,0,00068,2023-10-19_09h33.50.010,vbt_B2_day4,2022.2.4,Win32,59.99160118,,,,,,,,,,,,,,,,,,,,,,,,,,,,,,,,,,,,,,,,,,,,,
,,,,,00068,2023-10-19_09h33.50.010,vbt_B2_day4,2022.2.4,Win32,59.99160118,-0.122222194,-0.127777806,1,0,0,,,,,,,,,,,,,,,,,,,,,,,,,,,,,,,,,,,,,,,,
,,,,,00068,2023-10-19_09h33.50.010,vbt_B2_day4,2022.2.4,Win32,59.99160118,,,,,,down,0,2.6254,,-0.122222194,-0.127777806,1,0,0,0,0,0,118,1,vinger,images/br_vinger.png,images/cb_vinger.png,0,,,,,,,,,,,,,,,,,,,,,,
,,,,,00068,2023-10-19_09h33.50.010,vbt_B2_day4,2022.2.4,Win32,59.99160118,,,,,,down,0,0.4175,,-0.122222194,-0.127777806,1,0,0,0,1,1,28,1,stal,images/br_stal.png,images/cb_stal.png,0,,,,,,,,,,,,,,,,,,,,,,
,,,,,00068,2023-10-19_09h33.50.010,vbt_B2_day4,2022.2.4,Win32,59.99160118,,,,,,down,0,2.1558,,-0.122222194,-0.127777806,1,0,0,0,2,2,194,1,driemaal,images/br_driemaal.png,images/cb_driemaal.png,0,,,,,,,,,,,,,,,,,,,,,,
,,,,,00068,2023-10-19_09h33.50.010,vbt_B2_day4,2022.2.4,Win32,59.99160118,,,,,,down,0,3.3308,,-0.122222194,-0.127777806,1,0,0,0,3,3,86,1,woning,images/br_woning.png,images/cb_woning.png,0,,,,,,,,,,,,,,,,,,,,,,
,,,,,00068,2023-10-19_09h33.50.010,vbt_B2_day4,2022.2.4,Win32,59.99160118,,,,,,down,0,0.3379,,-0.122222194,-0.127777806,1,0,0,0,4,4,154,1,aflopen,images/br_aflopen.png,images/cb_aflopen.png,0,,,,,,,,,,,,,,,,,,,,,,
,,,,,00068,2023-10-19_09h33.50.010,vbt_B2_day4,2022.2.4,Win32,59.99160118,,,,,,down,0,0.4693,,-0.122222194,-0.127777806,1,0,0,0,5,5,182,1,bijkomen,images/br_bijkomen.png,images/cb_bijkomen.png,0,,,,,,,,,,,,,,,,,,,,,,
,,,,,00068,2023-10-19_09h33.50.010,vbt_B2_day4,2022.2.4,Win32,59.99160118,,,,,,down,0,0.6287,,-0.122222194,-0.127777806,1,0,0,0,6,6,96,1,slagen,images/br_slagen.png,images/cb_slagen.png,0,,,,,,,,,,,,,,,,,,,,,,
,,,,,00068,2023-10-19_09h33.50.010,vbt_B2_day4,2022.2.4,Win32,59.99160118,,,,,,down,0,29.1679,,-0.122222194,-0.127777806,1,0,0,0,7,7,49,1,laken,images/br_laken.png,images/cb_laken.png,0,,,,,,,,,,,,,,,,,,,,,,
,,,,,00068,2023-10-19_09h33.50.010,vbt_B2_day4,2022.2.4,Win32,59.99160118,,,,,,down,0,36.8858,,-0.122222194,-0.127777806,1,0,0,0,8,8,94,1,oceaan,images/br_oceaan.png,images/cb_oceaan.png,0,,,,,,,,,,,,,,,,,,,,,,
,,,,,00068,2023-10-19_09h33.50.010,vbt_B2_day4,2022.2.4,Win32,59.99160118,,,,,,down,0,1.8172,,-0.122222194,-0.127777806,1,0,0,0,9,9,189,1,aanraden,images/br_aanraden.png,images/cb_aanraden.png,0,,,,,,,,,,,,,,,,,,,,,,
,,,,,00068,2023-10-19_09h33.50.010,vbt_B2_day4,2022.2.4,Win32,59.99160118,,,,,,down,0,0.7881,,-0.122222194,-0.127777806,1,0,0,0,10,10,192,1,schaamte,images/br_schaamte.png,images/cb_schaamte.png,0,,,,,,,,,,,,,,,,,,,,,,
,,,,,00068,2023-10-19_09h33.50.010,vbt_B2_day4,2022.2.4,Win32,59.99160118,,,,,,down,0,0.1506,,-0.122222194,-0.127777806,1,0,0,0,11,11,168,1,bisschop,images/br_bisschop.png,images/cb_bisschop.png,0,,,,,,,,,,,,,,,,,,,,,,
,,,,,00068,2023-10-19_09h33.50.010,vbt_B2_day4,2022.2.4,Win32,59.99160118,,,,,,down,0,0.5163,,-0.122222194,-0.127777806,1,0,0,0,12,12,73,1,volop,images/br_volop.png,images/cb_volop.png,0,,,,,,,,,,,,,,,,,,,,,,
,,,,,00068,2023-10-19_09h33.50.010,vbt_B2_day4,2022.2.4,Win32,59.99160118,,,,,,down,0,2.1109,,-0.122222194,-0.127777806,1,0,0,0,13,13,18,1,blik,images/br_blik.png,images/cb_blik.png,0,,,,,,,,,,,,,,,,,,,,,,
,,,,,00068,2023-10-19_09h33.50.010,vbt_B2_day4,2022.2.4,Win32,59.99160118,,,,,,down,0,51.438,,-0.122222194,-0.127777806,1,0,0,0,14,14,68,1,schat,images/br_schat.png,images/cb_schat.png,0,,,,,,,,,,,,,,,,,,,,,,
,,,,,00068,2023-10-19_09h33.50.010,vbt_B2_day4,2022.2.4,Win32,59.99160118,,,,,,down,0,0.2013,,-0.122222194,-0.127777806,1,0,0,0,15,15,157,1,uitlaat,images/br_uitlaat.png,images/cb_uitlaat.png,0,,,,,,,,,,,,,,,,,,,,,,
,,,,,00068,2023-10-19_09h33.50.010,vbt_B2_day4,2022.2.4,Win32,59.99160118,,,,,,down,0,1.3503,,-0.122222194,-0.127777806,1,0,0,0,16,16,76,1,afval,images/br_afval.png,images/cb_afval.png,0,,,,,,,,,,,,,,,,,,,,,,
,,,,,00068,2023-10-19_09h33.50.010,vbt_B2_day4,2022.2.4,Win32,59.99160118,,,,,,down,0,6.0659,,-0.122222194,-0.127777806,1,0,0,0,17,17,83,1,mening,images/br_mening.png,images/cb_mening.png,0,,,,,,,,,,,,,,,,,,,,,,
,,,,,00068,2023-10-19_09h33.50.010,vbt_B2_day4,2022.2.4,Win32,59.99160118,,,,,,down,0,0.3677,,-0.122222194,-0.127777806,1,0,0,0,18,18,85,1,heilig,images/br_heilig.png,images/cb_heilig.png,0,,,,,,,,,,,,,,,,,,,,,,
,,,,,00068,2023-10-19_09h33.50.010,vbt_B2_day4,2022.2.4,Win32,59.99160118,,,,,,down,0,9.1066,,-0.122222194,-0.127777806,1,0,0,0,19,19,46,1,jagen,images/br_jagen.png,images/cb_jagen.png,0,,,,,,,,,,,,,,,,,,,,,,
,,,,,00068,2023-10-19_09h33.50.010,vbt_B2_day4,2022.2.4,Win32,59.99160118,,,,,,down,0,0.5011,,-0.122222194,-0.127777806,1,0,0,0,20,20,2,1,jaar,images/br_jaar.png,images/cb_jaar.png,0,,,,,,,,,,,,,,,,,,,,,,
,,,,,00068,2023-10-19_09h33.50.010,vbt_B2_day4,2022.2.4,Win32,59.99160118,,,,,,down,0,2.5622,,-0.122222194,-0.127777806,1,0,0,0,21,21,128,1,prikken,images/br_prikken.png,images/cb_prikken.png,0,,,,,,,,,,,,,,,,,,,,,,
,,,,,00068,2023-10-19_09h33.50.010,vbt_B2_day4,2022.2.4,Win32,59.99160118,,,,,,down,0,2.1418,,-0.122222194,-0.127777806,1,0,0,0,22,22,69,1,waken,images/br_waken.png,images/cb_waken.png,0,,,,,,,,,,,,,,,,,,,,,,
,,,,,00068,2023-10-19_09h33.50.010,vbt_B2_day4,2022.2.4,Win32,59.99160118,,,,,,down,0,1.485,,-0.122222194,-0.127777806,1,0,0,0,23,23,11,1,mode,images/br_mode.png,images/cb_mode.png,0,,,,,,,,,,,,,,,,,,,,,,
,,,,,00068,2023-10-19_09h33.50.010,vbt_B2_day4,2022.2.4,Win32,59.99160118,,,,,,down,0,0.0788,,-0.122222194,-0.127777806,1,0,0,0,24,24,148,1,smullen,images/br_smullen.png,images/cb_smullen.png,0,,,,,,,,,,,,,,,,,,,,,,
,,,,,00068,2023-10-19_09h33.50.010,vbt_B2_day4,2022.2.4,Win32,59.99160118,,,,,,down,0,0.7362,,-0.122222194,-0.127777806,1,0,0,0,25,25,139,1,stiekem,images/br_stiekem.png,images/cb_stiekem.png,0,,,,,,,,,,,,,,,,,,,,,,
,,,,,00068,2023-10-19_09h33.50.010,vbt_B2_day4,2022.2.4,Win32,59.99160118,,,,,,down,0,1.1494,,-0.122222194,-0.127777806,1,0,0,0,26,26,32,1,palm,images/br_palm.png,images/cb_palm.png,0,,,,,,,,,,,,,,,,,,,,,,
,,,,,00068,2023-10-19_09h33.50.010,vbt_B2_day4,2022.2.4,Win32,59.99160118,,,,,,down,0,0.5223,,-0.122222194,-0.127777806,1,0,0,0,27,27,183,1,getuigen,images/br_getuigen.png,images/cb_getuigen.png,0,,,,,,,,,,,,,,,,,,,,,,
,,,,,00068,2023-10-19_09h33.50.010,vbt_B2_day4,2022.2.4,Win32,59.99160118,,,,,,down,0,0.0653,,-0.122222194,-0.127777806,1,0,0,0,28,28,150,1,gegeven,images/br_gegeven.png,images/cb_gegeven.png,0,,,,,,,,,,,,,,,,,,,,,,
,,,,,00068,2023-10-19_09h33.50.010,vbt_B2_day4,2022.2.4,Win32,59.99160118,,,,,,down,0,0.2052,,-0.122222194,-0.127777806,1,0,0,0,29,29,51,1,samen,images/br_samen.png,images/cb_samen.png,0,,,,,,,,,,,,,,,,,,,,,,
,,,,,00068,2023-10-19_09h33.50.010,vbt_B2_day4,2022.2.4,Win32,59.99160118,,,,,,down,0,21.6807,,-0.037037037,-0.309259273,1,0,0,0,30,30,106,1,zingen,images/br_zingen.png,images/cb_zingen.png,1,zingen,,,,,,,,,,,,,,,,,,,,,
,,,,,00068,2023-10-19_09h33.50.010,vbt_B2_day4,2022.2.4,Win32,59.99160118,,,,,,down,0,0.1162,,-0.037037037,-0.309259273,1,0,0,0,31,31,134,1,geliefd,images/br_geliefd.png,images/cb_geliefd.png,0,,,,,,,,,,,,,,,,,,,,,,
,,,,,00068,2023-10-19_09h33.50.010,vbt_B2_day4,2022.2.4,Win32,59.99160118,,,,,,down,0,9.588,,-0.037037037,-0.309259273,1,0,0,0,32,32,14,1,rijp,images/br_rijp.png,images/cb_rijp.png,0,,,,,,,,,,,,,,,,,,,,,,
,,,,,00068,2023-10-19_09h33.50.010,vbt_B2_day4,2022.2.4,Win32,59.99160118,,,,,,down,0,0.9233,,-0.037037037,-0.309259273,1,0,0,0,33,33,143,1,hechten,images/br_hechten.png,images/cb_hechten.png,0,,,,,,,,,,,,,,,,,,,,,,
,,,,,00068,2023-10-19_09h33.50.010,vbt_B2_day4,2022.2.4,Win32,59.99160118,,,,,,down,0,12.9017,,-0.037037037,-0.309259273,1,0,0,0,34,34,67,1,zwart,images/br_zwart.png,images/cb_zwart.png,1,zwart,,,,,,,,,,,,,,,,,,,,,
,,,,,00068,2023-10-19_09h33.50.010,vbt_B2_day4,2022.2.4,Win32,59.99160118,,,,,,down,0,4.8574,,-0.037037037,-0.309259273,1,0,0,0,35,35,56,1,traag,images/br_traag.png,images/cb_traag.png,0,,,,,,,,,,,,,,,,,,,,,,
,,,,,00068,2023-10-19_09h33.50.010,vbt_B2_day4,2022.2.4,Win32,59.99160118,,,,,,down,0,0.2184,,-0.037037037,-0.309259273,1,0,0,0,36,36,188,1,strekken,images/br_strekken.png,images/cb_strekken.png,0,,,,,,,,,,,,,,,,,,,,,,
,,,,,00068,2023-10-19_09h33.50.010,vbt_B2_day4,2022.2.4,Win32,59.99160118,,,,,,down,0,2.4879,,-0.037037037,-0.309259273,1,0,0,0,37,37,170,1,schatten,images/br_schatten.png,images/cb_schatten.png,0,,,,,,,,,,,,,,,,,,,,,,
,,,,,00068,2023-10-19_09h33.50.010,vbt_B2_day4,2022.2.4,Win32,59.99160118,,,,,,down,0,0.1852,,-0.037037037,-0.309259273,1,0,0,0,38,38,125,1,aanzien,images/br_aanzien.png,images/cb_aanzien.png,0,,,,,,,,,,,,,,,,,,,,,,
,,,,,00068,2023-10-19_09h33.50.010,vbt_B2_day4,2022.2.4,Win32,59.99160118,,,,,,down,0,1.9654,,-0.037037037,-0.309259273,1,0,0,0,39,39,149,1,redding,images/br_redding.png,images/cb_redding.png,0,,,,,,,,,,,,,,,,,,,,,,
,,,,,00068,2023-10-19_09h33.50.010,vbt_B2_day4,2022.2.4,Win32,59.99160118,,,,,,down,0,0.6821,,-0.037037037,-0.309259273,1,0,0,0,40,40,31,1,poes,images/br_poes.png,images/cb_poes.png,0,,,,,,,,,,,,,,,,,,,,,,
,,,,,00068,2023-10-19_09h33.50.010,vbt_B2_day4,2022.2.4,Win32,59.99160118,,,,,,down,0,1.8849,,-0.037037037,-0.309259273,1,0,0,0,41,41,25,1,plek,images/br_plek.png,images/cb_plek.png,1,plek,,,,,,,,,,,,,,,,,,,,,
,,,,,00068,2023-10-19_09h33.50.010,vbt_B2_day4,2022.2.4,Win32,59.99160118,,,,,,down,0,0.5696,,-0.037037037,-0.309259273,1,0,0,0,42,42,9,1,hier,images/br_hier.png,images/cb_hier.png,0,,,,,,,,,,,,,,,,,,,,,,
,,,,,00068,2023-10-19_09h33.50.010,vbt_B2_day4,2022.2.4,Win32,59.99160118,,,,,,down,0,5.4177,,-0.037037037,-0.309259273,1,0,0,0,43,43,30,1,uien,images/br_uien.png,images/cb_uien.png,0,,,,,,,,,,,,,,,,,,,,,,
,,,,,00068,2023-10-19_09h33.50.010,vbt_B2_day4,2022.2.4,Win32,59.99160118,,,,,,down,0,0.8031,,-0.037037037,-0.309259273,1,0,0,0,44,44,3,1,mand,images/br_mand.png,images/cb_mand.png,0,,,,,,,,,,,,,,,,,,,,,,
,,,,,00068,2023-10-19_09h33.50.010,vbt_B2_day4,2022.2.4,Win32,59.99160118,,,,,,down,0,0.5011,,-0.037037037,-0.309259273,1,0,0,0,45,45,101,1,staren,images/br_staren.png,images/cb_staren.png,0,,,,,,,,,,,,,,,,,,,,,,
,,,,,00068,2023-10-19_09h33.50.010,vbt_B2_day4,2022.2.4,Win32,59.99160118,,,,,,down,0,0.7215,,-0.037037037,-0.309259273,1,0,0,0,46,46,138,1,akkoord,images/br_akkoord.png,images/cb_akkoord.png,0,,,,,,,,,,,,,,,,,,,,,,
,,,,,00068,2023-10-19_09h33.50.010,vbt_B2_day4,2022.2.4,Win32,59.99160118,,,,,,down,0,17.2513,,-0.037037037,-0.309259273,1,0,0,0,47,47,24,1,jurk,images/br_jurk.png,images/cb_jurk.png,1,drvu,,,,,,,,,,,,,,,,,,,,,
,,,,,00068,2023-10-19_09h33.50.010,vbt_B2_day4,2022.2.4,Win32,59.99160118,,,,,,down,0,2.0056,,-0.037037037,-0.309259273,1,0,0,0,48,48,111,1,ticket,images/br_ticket.png,images/cb_ticket.png,0,,,,,,,,,,,,,,,,,,,,,,
,,,,,00068,2023-10-19_09h33.50.010,vbt_B2_day4,2022.2.4,Win32,59.99160118,,,,,,down,0,0.0546,,-0.037037037,-0.309259273,1,0,0,0,49,49,10,1,leek,images/br_leek.png,images/cb_leek.png,0,,,,,,,,,,,,,,,,,,,,,,
,,,,,00068,2023-10-19_09h33.50.010,vbt_B2_day4,2022.2.4,Win32,59.99160118,,,,,,down,0,2.7681,,-0.037037037,-0.309259273,1,0,0,0,50,50,27,1,dans,images/br_dans.png,images/cb_dans.png,1,dans,,,,,,,,,,,,,,,,,,,,,
,,,,,00068,2023-10-19_09h33.50.010,vbt_B2_day4,2022.2.4,Win32,59.99160118,,,,,,down,0,5.8306,,-0.037037037,-0.309259273,1,0,0,0,51,51,181,1,toegeven,images/br_toegeven.png,images/cb_toegeven.png,0,,,,,,,,,,,,,,,,,,,,,,
,,,,,00068,2023-10-19_09h33.50.010,vbt_B2_day4,2022.2.4,Win32,59.99160118,,,,,,down,0,0.7007,,-0.037037037,-0.309259273,1,0,0,0,52,52,199,1,beseffen,images/br_beseffen.png,images/cb_beseffen.png,0,,,,,,,,,,,,,,,,,,,,,,
,,,,,00068,2023-10-19_09h33.50.010,vbt_B2_day4,2022.2.4,Win32,59.99160118,,,,,,down,0,0.0339,,-0.037037037,-0.309259273,1,0,0,0,53,53,169,1,oprotten,images/br_oprotten.png,images/cb_oprotten.png,0,,,,,,,,,,,,,,,,,,,,,,
,,,,,00068,2023-10-19_09h33.50.010,vbt_B2_day4,2022.2.4,Win32,59.99160118,,,,,,down,0,0.0828,,-0.037037037,-0.309259273,1,0,0,0,54,54,57,1,steek,images/br_steek.png,images/cb_steek.png,0,,,,,,,,,,,,,,,,,,,,,,
,,,,,00068,2023-10-19_09h33.50.010,vbt_B2_day4,2022.2.4,Win32,59.99160118,,,,,,down,0,0.5198,,-0.037037037,-0.309259273,1,0,0,0,55,55,33,1,vlek,images/br_vlek.png,images/cb_vlek.png,0,,,,,,,,,,,,,,,,,,,,,,
,,,,,00068,2023-10-19_09h33.50.010,vbt_B2_day4,2022.2.4,Win32,59.99160118,,,,,,down,0,0.3819,,-0.037037037,-0.309259273,1,0,0,0,56,56,180,1,openbaar,images/br_openbaar.png,images/cb_openbaar.png,0,,,,,,,,,,,,,,,,,,,,,,
,,,,,00068,2023-10-19_09h33.50.010,vbt_B2_day4,2022.2.4,Win32,59.99160118,,,,,,down,0,1.3208,,-0.037037037,-0.309259273,1,0,0,0,57,57,108,1,excuus,images/br_excuus.png,images/cb_excuus.png,0,,,,,,,,,,,,,,,,,,,,,,
,,,,,00068,2023-10-19_09h33.50.010,vbt_B2_day4,2022.2.4,Win32,59.99160118,,,,,,down,0,0.4828,,-0.037037037,-0.309259273,1,0,0,0,58,58,103,1,joggen,images/br_joggen.png,images/cb_joggen.png,0,,,,,,,,,,,,,,,,,,,,,,
,,,,,00068,2023-10-19_09h33.50.010,vbt_B2_day4,2022.2.4,Win32,59.99160118,,,,,,down,0,24.2088,,-0.037037037,-0.309259273,1,0,0,0,59,59,104,1,zweven,images/br_zweven.png,images/cb_zweven.png,1,,,,,,,,,,,,,,,,,,,,,,
,,,,,00068,2023-10-19_09h33.50.010,vbt_B2_day4,2022.2.4,Win32,59.99160118,,,,,,down,0,0.3027,,-0.037037037,-0.309259273,1,0,0,0,60,60,19,1,geit,images/br_geit.png,images/cb_geit.png,0,,,,,,,,,,,,,,,,,,,,,,
,,,,,00068,2023-10-19_09h33.50.010,vbt_B2_day4,2022.2.4,Win32,59.99160118,,,,,,down,0,0.6179,,-0.037037037,-0.309259273,1,0,0,0,61,61,34,1,vorm,images/br_vorm.png,images/cb_vorm.png,0,,,,,,,,,,,,,,,,,,,,,,
,,,,,00068,2023-10-19_09h33.50.010,vbt_B2_day4,2022.2.4,Win32,59.99160118,,,,,,down,0,0.1923,,-0.037037037,-0.309259273,1,0,0,0,62,62,12,1,kust,images/br_kust.png,images/cb_kust.png,0,,,,,,,,,,,,,,,,,,,,,,
,,,,,00068,2023-10-19_09h33.50.010,vbt_B2_day4,2022.2.4,Win32,59.99160118,,,,,,down,0,0.4695,,-0.037037037,-0.309259273,1,0,0,0,63,63,16,1,ziek,images/br_ziek.png,images/cb_ziek.png,0,,,,,,,,,,,,,,,,,,,,,,
,,,,,00068,2023-10-19_09h33.50.010,vbt_B2_day4,2022.2.4,Win32,59.99160118,,,,,,down,0,1.1389,,-0.037037037,-0.309259273,1,0,0,0,64,64,5,1,blad,images/br_blad.png,images/cb_blad.png,0,,,,,,,,,,,,,,,,,,,,,,
,,,,,00068,2023-10-19_09h33.50.010,vbt_B2_day4,2022.2.4,Win32,59.99160118,,,,,,down,0,0.5428,,-0.037037037,-0.309259273,1,0,0,0,65,65,78,1,leren,images/br_leren.png,images/cb_leren.png,0,,,,,,,,,,,,,,,,,,,,,,
,,,,,00068,2023-10-19_09h33.50.010,vbt_B2_day4,2022.2.4,Win32,59.99160118,,,,,,down,0,5.819,,-0.037037037,-0.309259273,1,0,0,0,66,66,8,1,knie,images/br_knie.png,images/cb_knie.png,0,,,,,,,,,,,,,,,,,,,,,,
,,,,,00068,2023-10-19_09h33.50.010,vbt_B2_day4,2022.2.4,Win32,59.99160118,,,,,,down,0,0.236,,-0.037037037,-0.309259273,1,0,0,0,67,67,60,1,jasje,images/br_jasje.png,images/cb_jasje.png,0,,,,,,,,,,,,,,,,,,,,,,
,,,,,00068,2023-10-19_09h33.50.010,vbt_B2_day4,2022.2.4,Win32,59.99160118,,,,,,down,0,1.617,,-0.037037037,-0.309259273,1,0,0,0,68,68,197,1,spanning,images/br_spanning.png,images/cb_spanning.png,0,,,,,,,,,,,,,,,,,,,,,,
,,,,,00068,2023-10-19_09h33.50.010,vbt_B2_day4,2022.2.4,Win32,59.99160118,,,,,,down,0,0.0814,,-0.037037037,-0.309259273,1,0,0,0,69,69,191,1,opheffen,images/br_opheffen.png,images/cb_opheffen.png,0,,,,,,,,,,,,,,,,,,,,,,
,,,,,00068,2023-10-19_09h33.50.010,vbt_B2_day4,2022.2.4,Win32,59.99160118,,,,,,down,0,5.4862,,-0.037037037,-0.309259273,1,0,0,0,70,70,186,1,voorraad,images/br_voorraad.png,images/cb_voorraad.png,1,voorraad,,,,,,,,,,,,,,,,,,,,,
,,,,,00068,2023-10-19_09h33.50.010,vbt_B2_day4,2022.2.4,Win32,59.99160118,,,,,,down,0,7.0217,,-0.037037037,-0.309259273,1,0,0,0,71,71,64,1,wegen,images/br_wegen.png,images/cb_wegen.png,1,vegen,,,,,,,,,,,,,,,,,,,,,
,,,,,00068,2023-10-19_09h33.50.010,vbt_B2_day4,2022.2.4,Win32,59.99160118,,,,,,down,0,1.6562,,-0.037037037,-0.309259273,1,0,0,0,72,72,59,1,kring,images/br_kring.png,images/cb_kring.png,0,,,,,,,,,,,,,,,,,,,,,,
,,,,,00068,2023-10-19_09h33.50.010,vbt_B2_day4,2022.2.4,Win32,59.99160118,,,,,,down,0,3.5847,,-0.037037037,-0.309259273,1,0,0,0,73,73,153,1,vervoer,images/br_vervoer.png,images/cb_vervoer.png,0,,,,,,,,,,,,,,,,,,,,,,
,,,,,00068,2023-10-19_09h33.50.010,vbt_B2_day4,2022.2.4,Win32,59.99160118,,,,,,down,0,0.8202,,-0.037037037,-0.309259273,1,0,0,0,74,74,35,1,lust,images/br_lust.png,images/cb_lust.png,0,,,,,,,,,,,,,,,,,,,,,,
,,,,,00068,2023-10-19_09h33.50.010,vbt_B2_day4,2022.2.4,Win32,59.99160118,,,,,,down,0,0.4185,,-0.037037037,-0.309259273,1,0,0,0,75,75,161,1,attentie,images/br_attentie.png,images/cb_attentie.png,0,,,,,,,,,,,,,,,,,,,,,,
,,,,,00068,2023-10-19_09h33.50.010,vbt_B2_day4,2022.2.4,Win32,59.99160118,,,,,,down,0,18.9138,,-0.037037037,-0.309259273,1,0,0,0,76,76,81,1,dubbel,images/br_dubbel.png,images/cb_dubbel.png,0,,,,,,,,,,,,,,,,,,,,,,
,,,,,00068,2023-10-19_09h33.50.010,vbt_B2_day4,2022.2.4,Win32,59.99160118,,,,,,down,0,23.0223,,-0.037037037,-0.309259273,1,0,0,0,77,77,105,1,wijlen,images/br_wijlen.png,images/cb_wijlen.png,1,wi.len,,,,,,,,,,,,,,,,,,,,,
,,,,,00068,2023-10-19_09h33.50.010,vbt_B2_day4,2022.2.4,Win32,59.99160118,,,,,,down,0,3.3327,,-0.037037037,-0.309259273,1,0,0,0,78,78,163,1,schuilen,images/br_schuilen.png,images/cb_schuilen.png,0,,,,,,,,,,,,,,,,,,,,,,
,,,,,00068,2023-10-19_09h33.50.010,vbt_B2_day4,2022.2.4,Win32,59.99160118,,,,,,down,0,0.1509,,-0.037037037,-0.309259273,1,0,0,0,79,79,110,1,zuster,images/br_zuster.png,images/cb_zuster.png,0,,,,,,,,,,,,,,,,,,,,,,
,,,,,00068,2023-10-19_09h33.50.010,vbt_B2_day4,2022.2.4,Win32,59.99160118,,,,,,down,0,0.5805,,-0.037037037,-0.309259273,1,0,0,0,80,80,123,1,hiervan,images/br_hiervan.png,images/cb_hiervan.png,0,,,,,,,,,,,,,,,,,,,,,,
,,,,,00068,2023-10-19_09h33.50.010,vbt_B2_day4,2022.2.4,Win32,59.99160118,,,,,,down,0,17.6394,,-0.037037037,-0.309259273,1,0,0,0,81,81,184,1,aandelen,images/br_aandelen.png,images/cb_aandelen.png,1,aandelen,,,,,,,,,,,,,,,,,,,,,
,,,,,00068,2023-10-19_09h33.50.010,vbt_B2_day4,2022.2.4,Win32,59.99160118,,,,,,down,0,2.3161,,-0.037037037,-0.309259273,1,0,0,0,82,82,90,1,geluid,images/br_geluid.png,images/cb_geluid.png,0,,,,,,,,,,,,,,,,,,,,,,
,,,,,00068,2023-10-19_09h33.50.010,vbt_B2_day4,2022.2.4,Win32,59.99160118,,,,,,down,0,0.5423,,-0.037037037,-0.309259273,1,0,0,0,83,83,91,1,gezond,images/br_gezond.png,images/cb_gezond.png,0,,,,,,,,,,,,,,,,,,,,,,
,,,,,00068,2023-10-19_09h33.50.010,vbt_B2_day4,2022.2.4,Win32,59.99160118,,,,,,down,0,0.5018,,-0.037037037,-0.309259273,1,0,0,0,84,84,7,1,geld,images/br_geld.png,images/cb_geld.png,0,,,,,,,,,,,,,,,,,,,,,,
,,,,,00068,2023-10-19_09h33.50.010,vbt_B2_day4,2022.2.4,Win32,59.99160118,,,,,,down,0,1.2832,,-0.037037037,-0.309259273,1,0,0,0,85,85,127,1,doodmoe,images/br_doodmoe.png,images/cb_doodmoe.png,0,,,,,,,,,,,,,,,,,,,,,,
,,,,,00068,2023-10-19_09h33.50.010,vbt_B2_day4,2022.2.4,Win32,59.99160118,,,,,,down,0,0.1214,,-0.037037037,-0.309259273,1,0,0,0,86,86,97,1,loyaal,images/br_loyaal.png,images/cb_loyaal.png,0,,,,,,,,,,,,,,,,,,,,,,
,,,,,00068,2023-10-19_09h33.50.010,vbt_B2_day4,2022.2.4,Win32,59.99160118,,,,,,down,0,3.4675,,-0.037037037,-0.309259273,1,0,0,0,87,87,156,1,rechten,images/br_rechten.png,images/cb_rechten.png,0,,,,,,,,,,,,,,,,,,,,,,
,,,,,00068,2023-10-19_09h33.50.010,vbt_B2_day4,2022.2.4,Win32,59.99160118,,,,,,down,0,0.7164,,-0.037037037,-0.309259273,1,0,0,0,88,88,174,1,stemming,images/br_stemming.png,images/cb_stemming.png,0,,,,,,,,,,,,,,,,,,,,,,
,,,,,00068,2023-10-19_09h33.50.010,vbt_B2_day4,2022.2.4,Win32,59.99160118,,,,,,down,0,0.758,,-0.037037037,-0.309259273,1,0,0,0,89,89,45,1,piste,images/br_piste.png,images/cb_piste.png,0,,,,,,,,,,,,,,,,,,,,,,
,,,,,00068,2023-10-19_09h33.50.010,vbt_B2_day4,2022.2.4,Win32,59.99160118,,,,,,down,0,4.513,,-0.037037037,-0.309259273,1,0,0,0,90,90,93,1,waarop,images/br_waarop.png,images/cb_waarop.png,0,,,,,,,,,,,,,,,,,,,,,,
,,,,,00068,2023-10-19_09h33.50.010,vbt_B2_day4,2022.2.4,Win32,59.99160118,,,,,,down,0,33.6021,,-0.037037037,-0.309259273,1,0,0,0,91,91,187,1,opkijken,images/br_opkijken.png,images/cb_opkijken.png,1,opkijken,,,,,,,,,,,,,,,,,,,,,
,,,,,00068,2023-10-19_09h33.50.010,vbt_B2_day4,2022.2.4,Win32,59.99160118,,,,,,down,0,0.5685,,-0.036111125,-0.312962991,1,0,0,0,92,92,190,1,goedkoop,images/br_goedkoop.png,images/cb_goedkoop.png,0,,,,,,,,,,,,,,,,,,,,,,
,,,,,00068,2023-10-19_09h33.50.010,vbt_B2_day4,2022.2.4,Win32,59.99160118,,,,,,down,0,0.166,,-0.036111125,-0.312962991,1,0,0,0,93,93,198,1,bedoelen,images/br_bedoelen.png,images/cb_bedoelen.png,0,,,,,,,,,,,,,,,,,,,,,,
,,,,,00068,2023-10-19_09h33.50.010,vbt_B2_day4,2022.2.4,Win32,59.99160118,,,,,,down,0,23.167,,-0.036111125,-0.312962991,1,0,0,0,94,94,185,1,mijnheer,images/br_mijnheer.png,images/cb_mijnheer.png,1,mijnheer,,,,,,,,,,,,,,,,,,,,,
,,,,,00068,2023-10-19_09h33.50.010,vbt_B2_day4,2022.2.4,Win32,59.99160118,,,,,,down,0,0.0674,,-0.036111125,-0.312962991,1,0,0,0,95,95,155,1,gerucht,images/br_gerucht.png,images/cb_gerucht.png,0,,,,,,,,,,,,,,,,,,,,,,
,,,,,00068,2023-10-19_09h33.50.010,vbt_B2_day4,2022.2.4,Win32,59.99160118,,,,,,down,0,1.9012,,-0.035185143,-0.312962991,1,0,0,0,96,96,66,1,lever,images/br_lever.png,images/cb_lever.png,1,lever,,,,,,,,,,,,,,,,,,,,,
,,,,,00068,2023-10-19_09h33.50.010,vbt_B2_day4,2022.2.4,Win32,59.99160118,,,,,,down,0,5.1291,,-0.035185143,-0.312962991,1,0,0,0,97,97,47,1,kabel,images/br_kabel.png,images/cb_kabel.png,0,,,,,,,,,,,,,,,,,,,,,,
,,,,,00068,2023-10-19_09h33.50.010,vbt_B2_day4,2022.2.4,Win32,59.99160118,,,,,,down,0,0.0054,,-0.035185143,-0.312962991,1,0,0,0,98,98,42,1,bleek,images/br_bleek.png,images/cb_bleek.png,0,,,,,,,,,,,,,,,,,,,,,,
,,,,,00068,2023-10-19_09h33.50.010,vbt_B2_day4,2022.2.4,Win32,59.99160118,,,,,,down,0,0.8739,,-0.035185143,-0.312962991,1,0,0,0,99,99,77,1,woede,images/br_woede.png,images/cb_woede.png,0,,,,,,,,,,,,,,,,,,,,,,
,,,,,00068,2023-10-19_09h33.50.010,vbt_B2_day4,2022.2.4,Win32,59.99160118,,,,,,down,0,0.3004,,-0.035185143,-0.312962991,1,0,0,0,100,100,130,1,keihard,images/br_keihard.png,images/cb_keihard.png,0,,,,,,,,,,,,,,,,,,,,,,
,,,,,00068,2023-10-19_09h33.50.010,vbt_B2_day4,2022.2.4,Win32,59.99160118,,,,,,down,0,0.6173,,-0.035185143,-0.312962991,1,0,0,0,101,101,196,1,nakijken,images/br_nakijken.png,images/cb_nakijken.png,0,,,,,,,,,,,,,,,,,,,,,,
,,,,,00068,2023-10-19_09h33.50.010,vbt_B2_day4,2022.2.4,Win32,59.99160118,,,,,,down,0,0.3035,,-0.035185143,-0.312962991,1,0,0,0,102,102,15,1,soda,images/br_soda.png,images/cb_soda.png,0,,,,,,,,,,,,,,,,,,,,,,
,,,,,00068,2023-10-19_09h33.50.010,vbt_B2_day4,2022.2.4,Win32,59.99160118,,,,,,down,0,0.3881,,-0.035185143,-0.312962991,1,0,0,0,103,103,84,1,lokken,images/br_lokken.png,images/cb_lokken.png,0,,,,,,,,,,,,,,,,,,,,,,
,,,,,00068,2023-10-19_09h33.50.010,vbt_B2_day4,2022.2.4,Win32,59.99160118,,,,,,down,0,0.2339,,-0.035185143,-0.312962991,1,0,0,0,104,104,52,1,wagon,images/br_wagon.png,images/cb_wagon.png,0,,,,,,,,,,,,,,,,,,,,,,
,,,,,00068,2023-10-19_09h33.50.010,vbt_B2_day4,2022.2.4,Win32,59.99160118,,,,,,down,0,2.4745,,-0.035185143,-0.312962991,1,0,0,0,105,105,129,1,verhaal,images/br_verhaal.png,images/cb_verhaal.png,0,,,,,,,,,,,,,,,,,,,,,,
,,,,,00068,2023-10-19_09h33.50.010,vbt_B2_day4,2022.2.4,Win32,59.99160118,,,,,,down,0,0.0462,,-0.035185143,-0.312962991,1,0,0,0,106,106,41,1,maken,images/br_maken.png,images/cb_maken.png,0,,,,,,,,,,,,,,,,,,,,,,
,,,,,00068,2023-10-19_09h33.50.010,vbt_B2_day4,2022.2.4,Win32,59.99160118,,,,,,down,0,0.3795,,-0.035185143,-0.312962991,1,0,0,0,107,107,82,1,muziek,images/br_muziek.png,images/cb_muziek.png,0,,,,,,,,,,,,,,,,,,,,,,
,,,,,00068,2023-10-19_09h33.50.010,vbt_B2_day4,2022.2.4,Win32,59.99160118,,,,,,down,0,0.9672,,-0.035185143,-0.312962991,1,0,0,0,108,108,178,1,huisdier,images/br_huisdier.png,images/cb_huisdier.png,0,,,,,,,,,,,,,,,,,,,,,,
,,,,,00068,2023-10-19_09h33.50.010,vbt_B2_day4,2022.2.4,Win32,59.99160118,,,,,,down,0,5.2178,,-0.035185143,-0.312962991,1,0,0,0,109,109,26,1,leuk,images/br_leuk.png,images/cb_leuk.png,1,leuk,,,,,,,,,,,,,,,,,,,,,
,,,,,00068,2023-10-19_09h33.50.010,vbt_B2_day4,2022.2.4,Win32,59.99160118,,,,,,down,0,0.4504,,-0.035185143,-0.312962991,1,0,0,0,110,110,39,1,laag,images/br_laag.png,images/cb_laag.png,0,,,,,,,,,,,,,,,,,,,,,,
,,,,,00068,2023-10-19_09h33.50.010,vbt_B2_day4,2022.2.4,Win32,59.99160118,,,,,,down,0,0.2009,,-0.035185143,-0.312962991,1,0,0,0,111,111,29,1,baas,images/br_baas.png,images/cb_baas.png,0,,,,,,,,,,,,,,,,,,,,,,
,,,,,00068,2023-10-19_09h33.50.010,vbt_B2_day4,2022.2.4,Win32,59.99160118,,,,,,down,0,1.0974,,-0.035185143,-0.312962991,1,0,0,0,112,112,164,1,anarchie,images/br_anarchie.png,images/cb_anarchie.png,0,,,,,,,,,,,,,,,,,,,,,,
,,,,,00068,2023-10-19_09h33.50.010,vbt_B2_day4,2022.2.4,Win32,59.99160118,,,,,,down,0,0.9392,,-0.035185143,-0.312962991,1,0,0,0,113,113,1,1,zaal,images/br_zaal.png,images/cb_zaal.png,0,,,,,,,,,,,,,,,,,,,,,,
,,,,,00068,2023-10-19_09h33.50.010,vbt_B2_day4,2022.2.4,Win32,59.99160118,,,,,,down,0,0.8341,,-0.035185143,-0.312962991,1,0,0,0,114,114,79,1,nodig,images/br_nodig.png,images/cb_nodig.png,0,,,,,,,,,,,,,,,,,,,,,,
,,,,,00068,2023-10-19_09h33.50.010,vbt_B2_day4,2022.2.4,Win32,59.99160118,,,,,,down,0,0.3526,,-0.035185143,-0.312962991,1,0,0,0,115,115,165,1,feestdag,images/br_feestdag.png,images/cb_feestdag.png,0,,,,,,,,,,,,,,,,,,,,,,
,,,,,00068,2023-10-19_09h33.50.010,vbt_B2_day4,2022.2.4,Win32,59.99160118,,,,,,down,0,9.0851,,-0.035185143,-0.312962991,1,0,0,0,116,116,147,1,komisch,images/br_komisch.png,images/cb_komisch.png,1,komisch,,,,,,,,,,,,,,,,,,,,,
,,,,,00068,2023-10-19_09h33.50.010,vbt_B2_day4,2022.2.4,Win32,59.99160118,,,,,,down,0,1.4728,,-0.035185143,-0.312962991,1,0,0,0,117,117,54,1,gebit,images/br_gebit.png,images/cb_gebit.png,0,,,,,,,,,,,,,,,,,,,,,,
,,,,,00068,2023-10-19_09h33.50.010,vbt_B2_day4,2022.2.4,Win32,59.99160118,,,,,,down,0,2.5626,,-0.035185143,-0.312962991,1,0,0,0,118,118,141,1,knielen,images/br_knielen.png,images/cb_knielen.png,0,,,,,,,,,,,,,,,,,,,,,,
,,,,,00068,2023-10-19_09h33.50.010,vbt_B2_day4,2022.2.4,Win32,59.99160118,,,,,,down,0,3.4217,,-0.035185143,-0.312962991,1,0,0,0,119,119,65,1,parel,images/br_parel.png,images/cb_parel.png,1,parel,,,,,,,,,,,,,,,,,,,,,
,,,,,00068,2023-10-19_09h33.50.010,vbt_B2_day4,2022.2.4,Win32,59.99160118,,,,,,down,0,0.2253,,-0.035185143,-0.312962991,1,0,0,0,120,120,40,1,schep,images/br_schep.png,images/cb_schep.png,0,,,,,,,,,,,,,,,,,,,,,,
,,,,,00068,2023-10-19_09h33.50.010,vbt_B2_day4,2022.2.4,Win32,59.99160118,,,,,,down,0,1.271,,-0.035185143,-0.312962991,1,0,0,0,121,121,55,1,praat,images/br_praat.png,images/cb_praat.png,0,,,,,,,,,,,,,,,,,,,,,,
,,,,,00068,2023-10-19_09h33.50.010,vbt_B2_day4,2022.2.4,Win32,59.99160118,,,,,,down,0,0.7737,,-0.035185143,-0.312962991,1,0,0,0,122,122,20,1,site,images/br_site.png,images/cb_site.png,0,,,,,,,,,,,,,,,,,,,,,,
,,,,,00068,2023-10-19_09h33.50.010,vbt_B2_day4,2022.2.4,Win32,59.99160118,,,,,,down,0,0.6286,,-0.035185143,-0.312962991,1,0,0,0,123,123,44,1,flits,images/br_flits.png,images/cb_flits.png,0,,,,,,,,,,,,,,,,,,,,,,
,,,,,00068,2023-10-19_09h33.50.010,vbt_B2_day4,2022.2.4,Win32,59.99160118,,,,,,down,0,0.1195,,-0.035185143,-0.312962991,1,0,0,0,124,124,6,1,diep,images/br_diep.png,images/cb_diep.png,0,,,,,,,,,,,,,,,,,,,,,,
,,,,,00068,2023-10-19_09h33.50.010,vbt_B2_day4,2022.2.4,Win32,59.99160118,,,,,,down,0,0.073,,-0.035185143,-0.312962991,1,0,0,0,125,125,102,1,legaal,images/br_legaal.png,images/cb_legaal.png,0,,,,,,,,,,,,,,,,,,,,,,
,,,,,00068,2023-10-19_09h33.50.010,vbt_B2_day4,2022.2.4,Win32,59.99160118,,,,,,down,0,0.5231,,-0.035185143,-0.312962991,1,0,0,0,126,126,71,1,bever,images/br_bever.png,images/cb_bever.png,0,,,,,,,,,,,,,,,,,,,,,,
,,,,,00068,2023-10-19_09h33.50.010,vbt_B2_day4,2022.2.4,Win32,59.99160118,,,,,,down,0,0.0551,,-0.035185143,-0.312962991,1,0,0,0,127,127,113,1,koppen,images/br_koppen.png,images/cb_koppen.png,0,,,,,,,,,,,,,,,,,,,,,,
,,,,,00068,2023-10-19_09h33.50.010,vbt_B2_day4,2022.2.4,Win32,59.99160118,,,,,,down,0,0.486,,-0.035185143,-0.312962991,1,0,0,0,128,128,195,1,middelen,images/br_middelen.png,images/cb_middelen.png,0,,,,,,,,,,,,,,,,,,,,,,
,,,,,00068,2023-10-19_09h33.50.010,vbt_B2_day4,2022.2.4,Win32,59.99160118,,,,,,down,0,0.8865,,-0.035185143,-0.312962991,1,0,0,0,129,129,112,1,lukken,images/br_lukken.png,images/cb_lukken.png,0,,,,,,,,,,,,,,,,,,,,,,
,,,,,00068,2023-10-19_09h33.50.010,vbt_B2_day4,2022.2.4,Win32,59.99160118,,,,,,down,0,0.201,,-0.035185143,-0.312962991,1,0,0,0,130,130,142,1,snuiven,images/br_snuiven.png,images/cb_snuiven.png,0,,,,,,,,,,,,,,,,,,,,,,
,,,,,00068,2023-10-19_09h33.50.010,vbt_B2_day4,2022.2.4,Win32,59.99160118,,,,,,down,0,0.3166,,-0.035185143,-0.312962991,1,0,0,0,131,131,89,1,slapen,images/br_slapen.png,images/cb_slapen.png,0,,,,,,,,,,,,,,,,,,,,,,
,,,,,00068,2023-10-19_09h33.50.010,vbt_B2_day4,2022.2.4,Win32,59.99160118,,,,,,down,0,0.7223,,-0.035185143,-0.312962991,1,0,0,0,132,132,37,1,mijn,images/br_mijn.png,images/cb_mijn.png,0,,,,,,,,,,,,,,,,,,,,,,
,,,,,00068,2023-10-19_09h33.50.010,vbt_B2_day4,2022.2.4,Win32,59.99160118,,,,,,down,0,0.0744,,-0.035185143,-0.312962991,1,0,0,0,133,133,114,1,vullen,images/br_vullen.png,images/cb_vullen.png,0,,,,,,,,,,,,,,,,,,,,,,
,,,,,00068,2023-10-19_09h33.50.010,vbt_B2_day4,2022.2.4,Win32,59.99160118,,,,,,down,0,1.5399,,-0.035185143,-0.312962991,1,0,0,0,134,134,116,1,besmet,images/br_besmet.png,images/cb_besmet.png,0,,,,,,,,,,,,,,,,,,,,,,
,,,,,00068,2023-10-19_09h33.50.010,vbt_B2_day4,2022.2.4,Win32,59.99160118,,,,,,down,0,1.3538,,-0.035185143,-0.312962991,1,0,0,0,135,135,122,1,waarvan,images/br_waarvan.png,images/cb_waarvan.png,0,,,,,,,,,,,,,,,,,,,,,,
,,,,,00068,2023-10-19_09h33.50.010,vbt_B2_day4,2022.2.4,Win32,59.99160118,,,,,,down,0,0.1072,,-0.035185143,-0.312962991,1,0,0,0,136,136,88,1,boeien,images/br_boeien.png,images/cb_boeien.png,0,,,,,,,,,,,,,,,,,,,,,,
,,,,,00068,2023-10-19_09h33.50.010,vbt_B2_day4,2022.2.4,Win32,59.99160118,,,,,,down,0,2.7526,,-0.035185143,-0.312962991,0,1,0,0,137,137,117,1,kennis,images/br_kennis.png,images/cb_kennis.png,0,,,,,,,,,,,,,,,,,,,,,,
,,,,,00068,2023-10-19_09h33.50.010,vbt_B2_day4,2022.2.4,Win32,59.99160118,,,,,,down,0,0.6673,,-0.035185143,-0.312962991,1,0,0,0,138,138,119,1,liefje,images/br_liefje.png,images/cb_liefje.png,0,,,,,,,,,,,,,,,,,,,,,,
,,,,,00068,2023-10-19_09h33.50.010,vbt_B2_day4,2022.2.4,Win32,59.99160118,,,,,,down,0,8.1484,,-0.035185143,-0.312962991,1,0,0,0,139,139,132,1,grappen,images/br_grappen.png,images/cb_grappen.png,0,,,,,,,,,,,,,,,,,,,,,,
,,,,,00068,2023-10-19_09h33.50.010,vbt_B2_day4,2022.2.4,Win32,59.99160118,,,,,,down,0,0.1546,,-0.035185143,-0.312962991,1,0,0,0,140,140,21,1,mist,images/br_mist.png,images/cb_mist.png,0,,,,,,,,,,,,,,,,,,,,,,
,,,,,00068,2023-10-19_09h33.50.010,vbt_B2_day4,2022.2.4,Win32,59.99160118,,,,,,down,0,0.0011,,-0.035185143,-0.312962991,1,0,0,0,141,141,121,1,twijfel,images/br_twijfel.png,images/cb_twijfel.png,0,,,,,,,,,,,,,,,,,,,,,,
,,,,,00068,2023-10-19_09h33.50.010,vbt_B2_day4,2022.2.4,Win32,59.99160118,,,,,,down,0,0.3223,,-0.035185143,-0.312962991,1,0,0,0,142,142,171,1,aarzelen,images/br_aarzelen.png,images/cb_aarzelen.png,0,,,,,,,,,,,,,,,,,,,,,,
,,,,,00068,2023-10-19_09h33.50.010,vbt_B2_day4,2022.2.4,Win32,59.99160118,,,,,,down,0,0.6068,,-0.035185143,-0.312962991,1,0,0,0,143,143,4,1,moes,images/br_moes.png,images/cb_moes.png,0,,,,,,,,,,,,,,,,,,,,,,
,,,,,00068,2023-10-19_09h33.50.010,vbt_B2_day4,2022.2.4,Win32,59.99160118,,,,,,down,0,4.0686,,-0.035185143,-0.312962991,1,0,0,0,144,144,159,1,sufferd,images/br_sufferd.png,images/cb_sufferd.png,0,,,,,,,,,,,,,,,,,,,,,,
,,,,,00068,2023-10-19_09h33.50.010,vbt_B2_day4,2022.2.4,Win32,59.99160118,,,,,,down,0,1.8839,,-0.035185143,-0.312962991,1,0,0,0,145,145,158,1,innemen,images/br_innemen.png,images/cb_innemen.png,0,,,,,,,,,,,,,,,,,,,,,,
,,,,,00068,2023-10-19_09h33.50.010,vbt_B2_day4,2022.2.4,Win32,59.99160118,,,,,,down,0,1.8046,,-0.035185143,-0.312962991,1,0,0,0,146,146,167,1,eenhoorn,images/br_eenhoorn.png,images/cb_eenhoorn.png,0,,,,,,,,,,,,,,,,,,,,,,
,,,,,00068,2023-10-19_09h33.50.010,vbt_B2_day4,2022.2.4,Win32,59.99160118,,,,,,down,0,0.1225,,-0.035185143,-0.312962991,1,0,0,0,147,147,17,1,taal,images/br_taal.png,images/cb_taal.png,0,,,,,,,,,,,,,,,,,,,,,,
,,,,,00068,2023-10-19_09h33.50.010,vbt_B2_day4,2022.2.4,Win32,59.99160118,,,,,,down,0,2.3231,,-0.035185143,-0.312962991,1,0,0,0,148,148,58,1,tekst,images/br_tekst.png,images/cb_tekst.png,0,,,,,,,,,,,,,,,,,,,,,,
,,,,,00068,2023-10-19_09h33.50.010,vbt_B2_day4,2022.2.4,Win32,59.99160118,,,,,,down,0,0.5138,,-0.035185143,-0.312962991,1,0,0,0,149,149,36,1,vuur,images/br_vuur.png,images/cb_vuur.png,0,,,,,,,,,,,,,,,,,,,,,,
,,,,,00068,2023-10-19_09h33.50.010,vbt_B2_day4,2022.2.4,Win32,59.99160118,,,,,,down,0,0.2242,,-0.035185143,-0.312962991,1,0,0,0,150,150,80,1,kanjer,images/br_kanjer.png,images/cb_kanjer.png,0,,,,,,,,,,,,,,,,,,,,,,
,,,,,00068,2023-10-19_09h33.50.010,vbt_B2_day4,2022.2.4,Win32,59.99160118,,,,,,down,0,0.9065,,-0.035185143,-0.312962991,1,0,0,0,151,151,0,1,slak,images/br_slak.png,images/cb_slak.png,0,,,,,,,,,,,,,,,,,,,,,,
,,,,,00068,2023-10-19_09h33.50.010,vbt_B2_day4,2022.2.4,Win32,59.99160118,,,,,,down,0,0.8568,,-0.035185143,-0.312962991,1,0,0,0,152,152,120,1,klimmen,images/br_klimmen.png,images/cb_klimmen.png,0,,,,,,,,,,,,,,,,,,,,,,
,,,,,00068,2023-10-19_09h33.50.010,vbt_B2_day4,2022.2.4,Win32,59.99160118,,,,,,down,0,0.552,,-0.035185143,-0.312962991,1,0,0,0,153,153,179,1,woestijn,images/br_woestijn.png,images/cb_woestijn.png,0,,,,,,,,,,,,,,,,,,,,,,
,,,,,00068,2023-10-19_09h33.50.010,vbt_B2_day4,2022.2.4,Win32,59.99160118,,,,,,down,0,1.1218,,-0.035185143,-0.312962991,1,0,0,0,154,154,53,1,baron,images/br_baron.png,images/cb_baron.png,0,,,,,,,,,,,,,,,,,,,,,,
,,,,,00068,2023-10-19_09h33.50.010,vbt_B2_day4,2022.2.4,Win32,59.99160118,,,,,,down,0,40.3339,,-0.035185143,-0.312962991,1,0,0,0,155,155,144,1,eetlust,images/br_eetlust.png,images/cb_eetlust.png,1,eetlust,,,,,,,,,,,,,,,,,,,,,
,,,,,00068,2023-10-19_09h33.50.010,vbt_B2_day4,2022.2.4,Win32,59.99160118,,,,,,down,0,7.7362,,-0.035185143,-0.312962991,1,0,0,0,156,156,63,1,flirt,images/br_flirt.png,images/cb_flirt.png,0,,,,,,,,,,,,,,,,,,,,,,
,,,,,00068,2023-10-19_09h33.50.010,vbt_B2_day4,2022.2.4,Win32,59.99160118,,,,,,down,0,0.2891,,-0.035185143,-0.312962991,1,0,0,0,157,157,50,1,stoom,images/br_stoom.png,images/cb_stoom.png,0,,,,,,,,,,,,,,,,,,,,,,
,,,,,00068,2023-10-19_09h33.50.010,vbt_B2_day4,2022.2.4,Win32,59.99160118,,,,,,down,0,0.5049,,-0.035185143,-0.312962991,1,0,0,0,158,158,136,1,waarbij,images/br_waarbij.png,images/cb_waarbij.png,0,,,,,,,,,,,,,,,,,,,,,,
,,,,,00068,2023-10-19_09h33.50.010,vbt_B2_day4,2022.2.4,Win32,59.99160118,,,,,,down,0,0.8823,,-0.035185143,-0.312962991,1,0,0,0,159,159,140,1,blijven,images/br_blijven.png,images/cb_blijven.png,0,,,,,,,,,,,,,,,,,,,,,,
,,,,,00068,2023-10-19_09h33.50.010,vbt_B2_day4,2022.2.4,Win32,59.99160118,,,,,,down,0,1.0462,,-0.035185143,-0.312962991,1,0,0,0,160,160,23,1,zout,images/br_zout.png,images/cb_zout.png,0,,,,,,,,,,,,,,,,,,,,,,
,,,,,00068,2023-10-19_09h33.50.010,vbt_B2_day4,2022.2.4,Win32,59.99160118,,,,,,down,0,0.252,,-0.035185143,-0.312962991,1,0,0,0,161,161,160,1,daarheen,images/br_daarheen.png,images/cb_daarheen.png,0,,,,,,,,,,,,,,,,,,,,,,
,,,,,00068,2023-10-19_09h33.50.010,vbt_B2_day4,2022.2.4,Win32,59.99160118,,,,,,down,0,2.8386,,-0.035185143,-0.312962991,1,0,0,0,162,162,176,1,techniek,images/br_techniek.png,images/cb_techniek.png,0,,,,,,,,,,,,,,,,,,,,,,
,,,,,00068,2023-10-19_09h33.50.010,vbt_B2_day4,2022.2.4,Win32,59.99160118,,,,,,down,0,0.3532,,-0.035185143,-0.312962991,1,0,0,0,163,163,177,1,maaltijd,images/br_maaltijd.png,images/cb_maaltijd.png,0,,,,,,,,,,,,,,,,,,,,,,
,,,,,00068,2023-10-19_09h33.50.010,vbt_B2_day4,2022.2.4,Win32,59.99160118,,,,,,down,0,0.5897,,-0.035185143,-0.312962991,1,0,0,0,164,164,137,1,trekker,images/br_trekker.png,images/cb_trekker.png,0,,,,,,,,,,,,,,,,,,,,,,
,,,,,00068,2023-10-19_09h33.50.010,vbt_B2_day4,2022.2.4,Win32,59.99160118,,,,,,down,0,0.1517,,-0.035185143,-0.312962991,1,0,0,0,165,165,22,1,stof,images/br_stof.png,images/cb_stof.png,0,,,,,,,,,,,,,,,,,,,,,,
,,,,,00068,2023-10-19_09h33.50.010,vbt_B2_day4,2022.2.4,Win32,59.99160118,,,,,,down,0,5.9669,,-0.035185143,-0.312962991,1,0,0,0,166,166,107,1,maling,images/br_maling.png,images/cb_maling.png,1,maling,,,,,,,,,,,,,,,,,,,,,
,,,,,00068,2023-10-19_09h33.50.010,vbt_B2_day4,2022.2.4,Win32,59.99160118,,,,,,down,0,9.1177,,-0.035185143,-0.312962991,1,0,0,0,167,167,193,1,weeshuis,images/br_weeshuis.png,images/cb_weeshuis.png,0,,,,,,,,,,,,,,,,,,,,,,
,,,,,00068,2023-10-19_09h33.50.010,vbt_B2_day4,2022.2.4,Win32,59.99160118,,,,,,down,0,7.9387,,-0.035185143,-0.312962991,1,0,0,0,168,168,145,1,invloed,images/br_invloed.png,images/cb_invloed.png,1,inuloi,,,,,,,,,,,,,,,,,,,,,
,,,,,00068,2023-10-19_09h33.50.010,vbt_B2_day4,2022.2.4,Win32,59.99160118,,,,,,down,0,0.8111,,-0.035185143,-0.312962991,1,0,0,0,169,169,109,1,totaal,images/br_totaal.png,images/cb_totaal.png,0,,,,,,,,,,,,,,,,,,,,,,
,,,,,00068,2023-10-19_09h33.50.010,vbt_B2_day4,2022.2.4,Win32,59.99160118,,,,,,down,0,0.5748,,-0.035185143,-0.312962991,1,0,0,0,170,170,126,1,kasteel,images/br_kasteel.png,images/cb_kasteel.png,0,,,,,,,,,,,,,,,,,,,,,,
,,,,,00068,2023-10-19_09h33.50.010,vbt_B2_day4,2022.2.4,Win32,59.99160118,,,,,,down,0,1.5187,,-0.035185143,-0.312962991,1,0,0,0,171,171,162,1,uitdelen,images/br_uitdelen.png,images/cb_uitdelen.png,0,,,,,,,,,,,,,,,,,,,,,,
,,,,,00068,2023-10-19_09h33.50.010,vbt_B2_day4,2022.2.4,Win32,59.99160118,,,,,,down,0,15.8706,,-0.035185143,-0.312962991,1,0,0,0,172,172,115,1,kleren,images/br_kleren.png,images/cb_kleren.png,0,,,,,,,,,,,,,,,,,,,,,,
,,,,,00068,2023-10-19_09h33.50.010,vbt_B2_day4,2022.2.4,Win32,59.99160118,,,,,,down,0,7.1001,,-0.035185143,-0.312962991,1,0,0,0,173,173,146,1,opkomen,images/br_opkomen.png,images/cb_opkomen.png,1,opkomen,,,,,,,,,,,,,,,,,,,,,
,,,,,00068,2023-10-19_09h33.50.010,vbt_B2_day4,2022.2.4,Win32,59.99160118,,,,,,down,0,0.6365,,-0.035185143,-0.312962991,1,0,0,0,174,174,74,1,graaf,images/br_graaf.png,images/cb_graaf.png,0,,,,,,,,,,,,,,,,,,,,,,
,,,,,00068,2023-10-19_09h33.50.010,vbt_B2_day4,2022.2.4,Win32,59.99160118,,,,,,down,0,0.4537,,-0.035185143,-0.312962991,1,0,0,0,175,175,87,1,toeval,images/br_toeval.png,images/cb_toeval.png,0,,,,,,,,,,,,,,,,,,,,,,
,,,,,00068,2023-10-19_09h33.50.010,vbt_B2_day4,2022.2.4,Win32,59.99160118,,,,,,down,0,0.1173,,-0.035185143,-0.312962991,1,0,0,0,176,176,100,1,geduld,images/br_geduld.png,images/cb_geduld.png,0,,,,,,,,,,,,,,,,,,,,,,
,,,,,00068,2023-10-19_09h33.50.010,vbt_B2_day4,2022.2.4,Win32,59.99160118,,,,,,down,0,0.5278,,-0.035185143,-0.312962991,1,0,0,0,177,177,131,1,opzicht,images/br_opzicht.png,images/cb_opzicht.png,0,,,,,,,,,,,,,,,,,,,,,,
,,,,,00068,2023-10-19_09h33.50.010,vbt_B2_day4,2022.2.4,Win32,59.99160118,,,,,,down,0,0.3172,,-0.035185143,-0.312962991,1,0,0,0,178,178,43,1,klauw,images/br_klauw.png,images/cb_klauw.png,0,,,,,,,,,,,,,,,,,,,,,,
,,,,,00068,2023-10-19_09h33.50.010,vbt_B2_day4,2022.2.4,Win32,59.99160118,,,,,,down,0,5.0185,,-0.035185143,-0.312962991,1,0,0,0,179,179,38,1,baai,images/br_baai.png,images/cb_baai.png,0,,,,,,,,,,,,,,,,,,,,,,
,,,,,00068,2023-10-19_09h33.50.010,vbt_B2_day4,2022.2.4,Win32,59.99160118,,,,,,down,0,17.5194,,-0.035185143,-0.312962991,1,0,0,0,180,180,173,1,apparaat,images/br_apparaat.png,images/cb_apparaat.png,0,,,,,,,,,,,,,,,,,,,,,,
,,,,,00068,2023-10-19_09h33.50.010,vbt_B2_day4,2022.2.4,Win32,59.99160118,,,,,,down,0,0.319,,-0.035185143,-0.312962991,1,0,0,0,181,181,61,1,groen,images/br_groen.png,images/cb_groen.png,0,,,,,,,,,,,,,,,,,,,,,,
,,,,,00068,2023-10-19_09h33.50.010,vbt_B2_day4,2022.2.4,Win32,59.99160118,,,,,,down,0,6.0409,,-0.035185143,-0.312962991,1,0,0,0,182,182,92,1,geheim,images/br_geheim.png,images/cb_geheim.png,0,,,,,,,,,,,,,,,,,,,,,,
,,,,,00068,2023-10-19_09h33.50.010,vbt_B2_day4,2022.2.4,Win32,59.99160118,,,,,,down,0,0.6836,,-0.035185143,-0.312962991,1,0,0,0,183,183,175,1,heengaan,images/br_heengaan.png,images/cb_heengaan.png,0,,,,,,,,,,,,,,,,,,,,,,
,,,,,00068,2023-10-19_09h33.50.010,vbt_B2_day4,2022.2.4,Win32,59.99160118,,,,,,down,0,0.1838,,-0.035185143,-0.312962991,1,0,0,0,184,184,48,1,steel,images/br_steel.png,images/cb_steel.png,0,,,,,,,,,,,,,,,,,,,,,,
,,,,,00068,2023-10-19_09h33.50.010,vbt_B2_day4,2022.2.4,Win32,59.99160118,,,,,,down,0,0.1678,,-0.035185143,-0.312962991,1,0,0,0,185,185,62,1,knaap,images/br_knaap.png,images/cb_knaap.png,0,,,,,,,,,,,,,,,,,,,,,,
,,,,,00068,2023-10-19_09h33.50.010,vbt_B2_day4,2022.2.4,Win32,59.99160118,,,,,,down,0,0.7845,,-0.035185143,-0.312962991,1,0,0,0,186,186,151,1,aanzoek,images/br_aanzoek.png,images/cb_aanzoek.png,0,,,,,,,,,,,,,,,,,,,,,,
,,,,,00068,2023-10-19_09h33.50.010,vbt_B2_day4,2022.2.4,Win32,59.99160118,,,,,,down,0,9.2013,,-0.035185143,-0.312962991,1,0,0,0,187,187,98,1,kreeft,images/br_kreeft.png,images/cb_kreeft.png,0,,,,,,,,,,,,,,,,,,,,,,
,,,,,00068,2023-10-19_09h33.50.010,vbt_B2_day4,2022.2.4,Win32,59.99160118,,,,,,down,0,1.9781,,-0.035185143,-0.312962991,1,0,0,0,188,188,152,1,afnemen,images/br_afnemen.png,images/cb_afnemen.png,0,,,,,,,,,,,,,,,,,,,,,,
,,,,,00068,2023-10-19_09h33.50.010,vbt_B2_day4,2022.2.4,Win32,59.99160118,,,,,,down,0,5.2616,,-0.035185143,-0.312962991,1,0,0,0,189,189,95,1,vreten,images/br_vreten.png,images/cb_vreten.png,0,,,,,,,,,,,,,,,,,,,,,,
,,,,,00068,2023-10-19_09h33.50.010,vbt_B2_day4,2022.2.4,Win32,59.99160118,,,,,,down,0,9.0648,,-0.035185143,-0.312962991,1,0,0,0,190,190,135,1,gedicht,images/br_gedicht.png,images/cb_gedicht.png,0,,,,,,,,,,,,,,,,,,,,,,
,,,,,00068,2023-10-19_09h33.50.010,vbt_B2_day4,2022.2.4,Win32,59.99160118,,,,,,down,0,11.6653,,-0.035185143,-0.312962991,1,0,0,0,191,191,172,1,weigeren,images/br_weigeren.png,images/cb_weigeren.png,0,,,,,,,,,,,,,,,,,,,,,,
,,,,,00068,2023-10-19_09h33.50.010,vbt_B2_day4,2022.2.4,Win32,59.99160118,,,,,,down,0,0.4839,,-0.035185143,-0.312962991,1,0,0,0,192,192,124,1,bloeien,images/br_bloeien.png,images/cb_bloeien.png,0,,,,,,,,,,,,,,,,,,,,,,
,,,,,00068,2023-10-19_09h33.50.010,vbt_B2_day4,2022.2.4,Win32,59.99160118,,,,,,down,0,0.2691,,-0.035185143,-0.312962991,1,0,0,0,193,193,13,1,kaal,images/br_kaal.png,images/cb_kaal.png,0,,,,,,,,,,,,,,,,,,,,,,
,,,,,00068,2023-10-19_09h33.50.010,vbt_B2_day4,2022.2.4,Win32,59.99160118,,,,,,down,0,1.488,,-0.035185143,-0.312962991,1,0,0,0,194,194,72,1,strak,images/br_strak.png,images/cb_strak.png,0,,,,,,,,,,,,,,,,,,,,,,
,,,,,00068,2023-10-19_09h33.50.010,vbt_B2_day4,2022.2.4,Win32,59.99160118,,,,,,down,0,10.8703,,-0.038888861,-0.315740727,1,0,0,0,195,195,133,1,seizoen,images/br_seizoen.png,images/cb_seizoen.png,0,,,,,,,,,,,,,,,,,,,,,,
,,,,,00068,2023-10-19_09h33.50.010,vbt_B2_day4,2022.2.4,Win32,59.99160118,,,,,,down,0,0.4083,,-0.038888861,-0.315740727,1,0,0,0,196,196,166,1,strikken,images/br_strikken.png,images/cb_strikken.png,0,,,,,,,,,,,,,,,,,,,,,,
,,,,,00068,2023-10-19_09h33.50.010,vbt_B2_day4,2022.2.4,Win32,59.99160118,,,,,,down,0,0.3701,,-0.038888861,-0.315740727,1,0,0,0,197,197,75,1,snoep,images/br_snoep.png,images/cb_snoep.png,0,,,,,,,,,,,,,,,,,,,,,,
,,,,,00068,2023-10-19_09h33.50.010,vbt_B2_day4,2022.2.4,Win32,59.99160118,,,,,,down,0,1.2019,,-0.038888861,-0.315740727,1,0,0,0,198,198,99,1,koffie,images/br_koffie.png,images/cb_koffie.png,0,,,,,,,,,,,,,,,,,,,,,,
,,,,,00068,2023-10-19_09h33.50.010,vbt_B2_day4,2022.2.4,Win32,59.99160118,,,,,,down,0,5.6889,,-0.038888861,-0.315740727,1,0,0,0,199,199,70,1,ijdel,images/br_ijdel.png,images/cb_ijdel.png,0,,,,,,,,,,,,,,,,,,,,,,
,,,,,00068,2023-10-19_09h33.50.010,vbt_B2_day4,2022.2.4,Win32,59.99160118,,,,,,,,,,,,,,,,,,,,,,,,,-0.038888861,-0.315740727,1,0,0,,,,,,,,,,,,,,,,
,,,,,00068,2023-10-19_09h33.50.010,vbt_B2_day4,2022.2.4,Win32,59.99160118,,,,,,,,,,,,,,,,,,,,,,,,,,,,,,-0.038888861,-0.315740727,1,0,0,,,,,,,,,,,
,,,,,00068,2023-10-19_09h33.50.010,vbt_B2_day4,2022.2.4,Win32,59.99160118,,,,,,,,,,,,,,,,,,,,geliefd,images/br_geliefd.png,images/cb_geliefd.png,,,,,,,,,,,,,-0.038888861,-0.315740727,1,0,0,,0,0,0,14,1
,,,,,00068,2023-10-19_09h33.50.010,vbt_B2_day4,2022.2.4,Win32,59.99160118,,,,,,,,,,,,,,,,,,,,pijnlijk,images/br_pijnlijk.png,images/cb_pijnlijk.png,,pijnigen,,,,,,,,,,,-0.038888861,-0.315740727,1,0,0,pijnigen,0,1,1,58,1
,,,,,00068,2023-10-19_09h33.50.010,vbt_B2_day4,2022.2.4,Win32,59.99160118,,,,,,,,,,,,,,,,,,,,gaan,images/br_gaan.png,images/cb_gaan.png,,gaan,,,,,,,,,,,-0.038888861,-0.315740727,1,0,0,gaan,0,2,2,41,1
,,,,,00068,2023-10-19_09h33.50.010,vbt_B2_day4,2022.2.4,Win32,59.99160118,,,,,,,,,,,,,,,,,,,,dalen,images/br_dalen.png,images/cb_dalen.png,,dalen,,,,,,,,,,,-0.038888861,-0.315740727,1,0,0,dalen,0,3,3,46,1
,,,,,00068,2023-10-19_09h33.50.010,vbt_B2_day4,2022.2.4,Win32,59.99160118,,,,,,,,,,,,,,,,,,,,opruimen,images/br_opruimen.png,images/cb_opruimen.png,,opruimen,,,,,,,,,,,-0.038888861,-0.315740727,1,0,0,opruimen,0,4,4,59,1
,,,,,00068,2023-10-19_09h33.50.010,vbt_B2_day4,2022.2.4,Win32,59.99160118,,,,,,,,,,,,,,,,,,,,flippen,images/br_flippen.png,images/cb_flippen.png,,.oppig,,,,,,,,,,,-0.038888861,-0.315740727,1,0,0,.oppig,0,5,5,54,1
,,,,,00068,2023-10-19_09h33.50.010,vbt_B2_day4,2022.2.4,Win32,59.99160118,,,,,,,,,,,,,,,,,,,,lappen,images/br_lappen.png,images/cb_lappen.png,,lappen,,,,,,,,,,,-0.033333319,-0.339814857,1,0,0,lappen,0,6,6,49,1
,,,,,00068,2023-10-19_09h33.50.010,vbt_B2_day4,2022.2.4,Win32,59.99160118,,,,,,,,,,,,,,,,,,,,warel,images/br_warel.png,images/cb_warel.png,,warel,,,,,,,,,,,-0.033333319,-0.339814857,1,0,0,warel,0,7,7,26,1
,,,,,00068,2023-10-19_09h33.50.010,vbt_B2_day4,2022.2.4,Win32,59.99160118,,,,,,,,,,,,,,,,,,,,opkicht,images/br_opkicht.png,images/cb_opkicht.png,,opgezet,,,,,,,,,,,-0.033333319,-0.339814857,1,0,0,opgezet,0,8,8,34,1
,,,,,00068,2023-10-19_09h33.50.010,vbt_B2_day4,2022.2.4,Win32,59.99160118,,,,,,,,,,,,,,,,,,,,schotel,images/br_schotel.png,images/cb_schotel.png,,schotel,,,,,,,,,,,-0.033333319,-0.339814857,1,0,0,schotel,0,9,9,52,1
,,,,,00068,2023-10-19_09h33.50.010,vbt_B2_day4,2022.2.4,Win32,59.99160118,,,,,,,,,,,,,,,,,,,,midden,images/br_midden.png,images/cb_midden.png,,midden,,,,,,,,,,,-0.033333319,-0.339814857,1,0,0,midden,0,10,10,50,1
,,,,,00068,2023-10-19_09h33.50.010,vbt_B2_day4,2022.2.4,Win32,59.99160118,,,,,,,,,,,,,,,,,,,,fran,images/br_fran.png,images/cb_fran.png,,fran,,,,,,,,,,,-0.033333319,-0.339814857,1,0,0,fran,0,11,11,22,1
,,,,,00068,2023-10-19_09h33.50.010,vbt_B2_day4,2022.2.4,Win32,59.99160118,,,,,,,,,,,,,,,,,,,,bisschap,images/br_bisschap.png,images/cb_bisschap.png,,bisschop,,,,,,,,,,,-0.033333319,-0.339814857,1,0,0,bisschop,0,12,12,36,1
,,,,,00068,2023-10-19_09h33.50.010,vbt_B2_day4,2022.2.4,Win32,59.99160118,,,,,,,,,,,,,,,,,,,,grappen,images/br_grappen.png,images/cb_grappen.png,,grappig,,,,,,,,,,,-0.033333319,-0.339814857,1,0,0,grappig,0,13,13,12,1
,,,,,00068,2023-10-19_09h33.50.010,vbt_B2_day4,2022.2.4,Win32,59.99160118,,,,,,,,,,,,,,,,,,,,gijf,images/br_gijf.png,images/cb_gijf.png,,giep,,,,,,,,,,,-0.033333319,-0.339814857,1,0,0,giep,0,14,14,23,1
,,,,,00068,2023-10-19_09h33.50.010,vbt_B2_day4,2022.2.4,Win32,59.99160118,,,,,,,,,,,,,,,,,,,,weigeren,images/br_weigeren.png,images/cb_weigeren.png,,wijting,,,,,,,,,,,-0.033333319,-0.339814857,1,0,0,wijting,0,15,15,16,1
,,,,,00068,2023-10-19_09h33.50.010,vbt_B2_day4,2022.2.4,Win32,59.99160118,,,,,,,,,,,,,,,,,,,,wagon,images/br_wagon.png,images/cb_wagon.png,,.acot,,,,,,,,,,,-0.033333319,-0.339814857,1,0,0,.acot,0,16,16,4,1
,,,,,00068,2023-10-19_09h33.50.010,vbt_B2_day4,2022.2.4,Win32,59.99160118,,,,,,,,,,,,,,,,,,,,snee,images/br_snee.png,images/cb_snee.png,,snee,,,,,,,,,,,-0.02870369,-0.341666681,1,0,0,snee,0,17,17,40,1
,,,,,00068,2023-10-19_09h33.50.010,vbt_B2_day4,2022.2.4,Win32,59.99160118,,,,,,,,,,,,,,,,,,,,broodje,images/br_broodje.png,images/cb_broodje.png,,broodje,,,,,,,,,,,-0.02870369,-0.341666681,1,0,0,broodje,0,18,18,55,1
,,,,,00068,2023-10-19_09h33.50.010,vbt_B2_day4,2022.2.4,Win32,59.99160118,,,,,,,,,,,,,,,,,,,,geheim,images/br_geheim.png,images/cb_geheim.png,,schien,,,,,,,,,,,-0.02870369,-0.342592593,1,0,0,schien,0,19,19,8,1
,,,,,00068,2023-10-19_09h33.50.010,vbt_B2_day4,2022.2.4,Win32,59.99160118,,,,,,,,,,,,,,,,,,,,noodzaak,images/br_noodzaak.png,images/cb_noodzaak.png,,noodmaal,,,,,,,,,,,-0.02870369,-0.342592593,1,0,0,noodmaal,0,20,20,56,1
,,,,,00068,2023-10-19_09h33.50.010,vbt_B2_day4,2022.2.4,Win32,59.99160118,,,,,,,,,,,,,,,,,,,,seizoen,images/br_seizoen.png,images/cb_seizoen.png,,seiniong,,,,,,,,,,,-0.02870369,-0.342592593,1,0,0,seiniong,0,21,21,13,1
,,,,,00068,2023-10-19_09h33.50.010,vbt_B2_day4,2022.2.4,Win32,59.99160118,,,,,,,,,,,,,,,,,,,,rijp,images/br_rijp.png,images/cb_rijp.png,,rijp,,,,,,,,,,,-0.02870369,-0.342592593,1,0,0,rijp,0,22,22,2,1
,,,,,00068,2023-10-19_09h33.50.010,vbt_B2_day4,2022.2.4,Win32,59.99160118,,,,,,,,,,,,,,,,,,,,seizoon,images/br_seizoon.png,images/cb_seizoon.png,,seivoor,,,,,,,,,,,-0.02870369,-0.342592593,1,0,0,seivoor,0,23,23,33,1
,,,,,00068,2023-10-19_09h33.50.010,vbt_B2_day4,2022.2.4,Win32,59.99160118,,,,,,,,,,,,,,,,,,,,strok,images/br_strok.png,images/cb_strok.png,,strok,,,,,,,,,,,-0.02870369,-0.342592593,1,0,0,strok,0,24,24,25,1
,,,,,00068,2023-10-19_09h33.50.010,vbt_B2_day4,2022.2.4,Win32,59.99160118,,,,,,,,,,,,,,,,,,,,schenden,images/br_schenden.png,images/cb_schenden.png,,schim...,,,,,,,,,,,-0.02870369,-0.342592593,1,0,0,schim...,0,25,25,57,1
,,,,,00068,2023-10-19_09h33.50.010,vbt_B2_day4,2022.2.4,Win32,59.99160118,,,,,,,,,,,,,,,,,,,,kaal,images/br_kaal.png,images/cb_kaal.png,,kaal,,,,,,,,,,,-0.02870369,-0.342592593,1,0,0,kaal,0,26,26,1,1
,,,,,00068,2023-10-19_09h33.50.010,vbt_B2_day4,2022.2.4,Win32,59.99160118,,,,,,,,,,,,,,,,,,,,getucht,images/br_getucht.png,images/cb_getucht.png,,getijden,,,,,,,,,,,-0.02870369,-0.342592593,1,0,0,getijden,0,27,27,35,1
,,,,,00068,2023-10-19_09h33.50.010,vbt_B2_day4,2022.2.4,Win32,59.99160118,,,,,,,,,,,,,,,,,,,,soda,images/br_soda.png,images/cb_soda.png,,soda,,,,,,,,,,,-0.02870369,-0.342592593,1,0,0,soda,0,28,28,3,1
,,,,,00068,2023-10-19_09h33.50.010,vbt_B2_day4,2022.2.4,Win32,59.99160118,,,,,,,,,,,,,,,,,,,,stemming,images/br_stemming.png,images/cb_stemming.png,,stemming,,,,,,,,,,,-0.02870369,-0.342592593,1,0,0,stemming,0,29,29,18,1
,,,,,00068,2023-10-19_09h33.50.010,vbt_B2_day4,2022.2.4,Win32,59.99160118,,,,,,,,,,,,,,,,,,,,drooien,images/br_drooien.png,images/cb_drooien.png,,drooien,,,,,,,,,,,-0.02870369,-0.342592593,1,0,0,drooien,0,30,30,32,1
,,,,,00068,2023-10-19_09h33.50.010,vbt_B2_day4,2022.2.4,Win32,59.99160118,,,,,,,,,,,,,,,,,,,,vreten,images/br_vreten.png,images/cb_vreten.png,,vreten,,,,,,,,,,,-0.02870369,-0.342592593,1,0,0,vreten,0,31,31,11,1
,,,,,00068,2023-10-19_09h33.50.010,vbt_B2_day4,2022.2.4,Win32,59.99160118,,,,,,,,,,,,,,,,,,,,apparaat,images/br_apparaat.png,images/cb_apparaat.png,,apparaat,,,,,,,,,,,-0.02870369,-0.342592593,1,0,0,apparaat,0,32,32,17,1
,,,,,00068,2023-10-19_09h33.50.010,vbt_B2_day4,2022.2.4,Win32,59.99160118,,,,,,,,,,,,,,,,,,,,baron,images/br_baron.png,images/cb_baron.png,,baron,,,,,,,,,,,-0.02870369,-0.342592593,1,0,0,baron,0,33,33,5,1
,,,,,00068,2023-10-19_09h33.50.010,vbt_B2_day4,2022.2.4,Win32,59.99160118,,,,,,,,,,,,,,,,,,,,waarop,images/br_waarop.png,images/cb_waarop.png,,voorop,,,,,,,,,,,-0.02870369,-0.342592593,1,0,0,voorop,0,34,34,9,1
,,,,,00068,2023-10-19_09h33.50.010,vbt_B2_day4,2022.2.4,Win32,59.99160118,,,,,,,,,,,,,,,,,,,,praat,images/br_praat.png,images/cb_praat.png,,praat,,,,,,,,,,,-0.02870369,-0.342592593,1,0,0,praat,0,35,35,7,1
,,,,,00068,2023-10-19_09h33.50.010,vbt_B2_day4,2022.2.4,Win32,59.99160118,,,,,,,,,,,,,,,,,,,,haza,images/br_haza.png,images/cb_haza.png,,j,,,,,,,,,,,-0.02870369,-0.342592593,1,0,0,j,0,36,36,21,1
,,,,,00068,2023-10-19_09h33.50.010,vbt_B2_day4,2022.2.4,Win32,59.99160118,,,,,,,,,,,,,,,,,,,,gebit,images/br_gebit.png,images/cb_gebit.png,,getij,,,,,,,,,,,-0.02870369,-0.342592593,1,0,0,getij,0,37,37,6,1
,,,,,00068,2023-10-19_09h33.50.010,vbt_B2_day4,2022.2.4,Win32,59.99160118,,,,,,,,,,,,,,,,,,,,zwek,images/br_zwek.png,images/cb_zwek.png,,...,,,,,,,,,,,-0.02870369,-0.342592593,1,0,0,...,0,38,38,20,1
,,,,,00068,2023-10-19_09h33.50.010,vbt_B2_day4,2022.2.4,Win32,59.99160118,,,,,,,,,,,,,,,,,,,,zaalrijk,images/br_zaalrijk.png,images/cb_zaalrijk.png,,...,,,,,,,,,,,-0.02870369,-0.342592593,1,0,0,...,0,39,39,37,1
,,,,,00068,2023-10-19_09h33.50.010,vbt_B2_day4,2022.2.4,Win32,59.99160118,,,,,,,,,,,,,,,,,,,,ezel,images/br_ezel.png,images/cb_ezel.png,,ezel,,,,,,,,,,,-0.02870369,-0.342592593,1,0,0,ezel,0,40,40,42,1
,,,,,00068,2023-10-19_09h33.50.010,vbt_B2_day4,2022.2.4,Win32,59.99160118,,,,,,,,,,,,,,,,,,,,steen,images/br_steen.png,images/cb_steen.png,,steen,,,,,,,,,,,-0.02870369,-0.342592593,1,0,0,steen,0,41,41,44,1
,,,,,00068,2023-10-19_09h33.50.010,vbt_B2_day4,2022.2.4,Win32,59.99160118,,,,,,,,,,,,,,,,,,,,oceaan,images/br_oceaan.png,images/cb_oceaan.png,,oceaan,,,,,,,,,,,-0.02870369,-0.342592593,1,0,0,oceaan,0,42,42,10,1
,,,,,00068,2023-10-19_09h33.50.010,vbt_B2_day4,2022.2.4,Win32,59.99160118,,,,,,,,,,,,,,,,,,,,eerst,images/br_eerst.png,images/cb_eerst.png,,eerst,,,,,,,,,,,-0.02870369,-0.342592593,1,0,0,eerst,0,43,43,47,1
,,,,,00068,2023-10-19_09h33.50.010,vbt_B2_day4,2022.2.4,Win32,59.99160118,,,,,,,,,,,,,,,,,,,,drummer,images/br_drummer.png,images/cb_drummer.png,,drukker,,,,,,,,,,,-0.025925884,-0.353703746,1,0,0,drukker,0,44,44,53,1
,,,,,00068,2023-10-19_09h33.50.010,vbt_B2_day4,2022.2.4,Win32,59.99160118,,,,,,,,,,,,,,,,,,,,sulbon,images/br_sulbon.png,images/cb_sulbon.png,,sulbon,,,,,,,,,,,-0.025925884,-0.353703746,1,0,0,sulbon,0,45,45,31,1
,,,,,00068,2023-10-19_09h33.50.010,vbt_B2_day4,2022.2.4,Win32,59.99160118,,,,,,,,,,,,,,,,,,,,heengaan,images/br_heengaan.png,images/cb_heengaan.png,,,,,,,,,,,,,-0.025925884,-0.353703746,1,0,0,,0,46,46,19,1
,,,,,00068,2023-10-19_09h33.50.010,vbt_B2_day4,2022.2.4,Win32,59.99160118,,,,,,,,,,,,,,,,,,,,toevol,images/br_toevol.png,images/cb_toevol.png,,toeval,,,,,,,,,,,-0.025925884,-0.353703746,1,0,0,toeval,0,47,47,29,1
,,,,,00068,2023-10-19_09h33.50.010,vbt_B2_day4,2022.2.4,Win32,59.99160118,,,,,,,,,,,,,,,,,,,,aanzwaag,images/br_aanzwaag.png,images/cb_aanzwaag.png,,,,,,,,,,,,,-0.025925884,-0.353703746,1,0,0,,0,48,48,38,1
,,,,,00068,2023-10-19_09h33.50.010,vbt_B2_day4,2022.2.4,Win32,59.99160118,,,,,,,,,,,,,,,,,,,,tucket,images/br_tucket.png,images/cb_tucket.png,,tucjkst,,,,,,,,,,,-0.025925884,-0.353703746,1,0,0,tucjkst,0,49,49,30,1
,,,,,00068,2023-10-19_09h33.50.010,vbt_B2_day4,2022.2.4,Win32,59.99160118,,,,,,,,,,,,,,,,,,,,paalbaak,images/br_paalbaak.png,images/cb_paalbaak.png,,paalbaak,,,,,,,,,,,-0.025925884,-0.353703746,1,0,0,paalbaak,0,50,50,39,1
,,,,,00068,2023-10-19_09h33.50.010,vbt_B2_day4,2022.2.4,Win32,59.99160118,,,,,,,,,,,,,,,,,,,,gebog,images/br_gebog.png,images/cb_gebog.png,,gebog,,,,,,,,,,,-0.025925884,-0.353703746,1,0,0,gebog,0,51,51,24,1
,,,,,00068,2023-10-19_09h33.50.010,vbt_B2_day4,2022.2.4,Win32,59.99160118,,,,,,,,,,,,,,,,,,,,wozing,images/br_wozing.png,images/cb_wozing.png,,kozijn,,,,,,,,,,,-0.025925884,-0.353703746,1,0,0,kozijn,0,52,52,28,1
,,,,,00068,2023-10-19_09h33.50.010,vbt_B2_day4,2022.2.4,Win32,59.99160118,,,,,,,,,,,,,,,,,,,,pittig,images/br_pittig.png,images/cb_pittig.png,,pittig,,,,,,,,,,,-0.025925884,-0.353703746,1,0,0,pittig,0,53,53,51,1
,,,,,00068,2023-10-19_09h33.50.010,vbt_B2_day4,2022.2.4,Win32,59.99160118,,,,,,,,,,,,,,,,,,,,gaaf,images/br_gaaf.png,images/cb_gaaf.png,,gaaf,,,,,,,,,,,-0.025925884,-0.353703746,1,0,0,gaaf,0,54,54,43,1
,,,,,00068,2023-10-19_09h33.50.010,vbt_B2_day4,2022.2.4,Win32,59.99160118,,,,,,,,,,,,,,,,,,,,dozijn,images/br_dozijn.png,images/cb_dozijn.png,,dozijn,,,,,,,,,,,-0.025925884,-0.353703746,1,0,0,dozijn,0,55,55,48,1
,,,,,00068,2023-10-19_09h33.50.010,vbt_B2_day4,2022.2.4,Win32,59.99160118,,,,,,,,,,,,,,,,,,,,mekst,images/br_mekst.png,images/cb_mekst.png,,me.ot,,,,,,,,,,,-0.025925884,-0.353703746,1,0,0,me.ot,0,56,56,27,1
,,,,,00068,2023-10-19_09h33.50.010,vbt_B2_day4,2022.2.4,Win32,59.99160118,,,,,,,,,,,,,,,,,,,,gedicht,images/br_gedicht.png,images/cb_gedicht.png,,gedicht,,,,,,,,,,,-0.025925884,-0.353703746,1,0,0,gedicht,0,57,57,15,1
,,,,,00068,2023-10-19_09h33.50.010,vbt_B2_day4,2022.2.4,Win32,59.99160118,,,,,,,,,,,,,,,,,,,,kust,images/br_kust.png,images/cb_kust.png,,wost,,,,,,,,,,,-0.025925884,-0.353703746,1,0,0,wost,0,58,58,0,1
,,,,,00068,2023-10-19_09h33.50.010,vbt_B2_day4,2022.2.4,Win32,59.99160118,,,,,,,,,,,,,,,,,,,,bruin,images/br_bruin.png,images/cb_bruin.png,,bruin,,,,,,,,,,,-0.025925884,-0.353703746,1,0,0,bruin,0,59,59,45,1
,,,,,00068,2023-10-19_09h33.50.010,vbt_B2_day4,2022.2.4,Win32,59.99160118,,,,,,,,,,,,,,,,,,,,,,,,,,,,,,,,,,,,,,,,,,,,,
