welcome_mouse.x,welcome_mouse.y,welcome_mouse.leftButton,welcome_mouse.midButton,welcome_mouse.rightButton,"ID",date,expName,psychopyVersion,OS,frameRate,trainInstr_mouse.x,trainInstr_mouse.y,trainInstr_mouse.leftButton,trainInstr_mouse.midButton,trainInstr_mouse.rightButton,translation_key.keys,translation_key.corr,translation_key.rt,word_rsp.text,trWrd_mouse.x,trWrd_mouse.y,trWrd_mouse.leftButton,trWrd_mouse.midButton,trWrd_mouse.rightButton,train_loop.thisRepN,train_loop.thisTrialN,train_loop.thisN,train_loop.thisIndex,train_loop.ran,nlWrd,brWrd,cbWrd,test,testResp,mouse.x,mouse.y,mouse.leftButton,mouse.midButton,mouse.rightButton,testInstr_mouse.x,testInstr_mouse.y,testInstr_mouse.leftButton,testInstr_mouse.midButton,testInstr_mouse.rightButton,test_mouse.x,test_mouse.y,test_mouse.leftButton,test_mouse.midButton,test_mouse.rightButton,test_response.text,test_loop.thisRepN,test_loop.thisTrialN,test_loop.thisN,test_loop.thisIndex,test_loop.ran
-0.190277778,-0.295833333,1,0,0,00114,2023-12-10_21h47.09.030,vbt_B2_day4,2022.2.4,Win32,48.11161896,,,,,,,,,,,,,,,,,,,,,,,,,,,,,,,,,,,,,,,,,,,,,
,,,,,00114,2023-12-10_21h47.09.030,vbt_B2_day4,2022.2.4,Win32,48.11161896,-0.190277778,-0.295833333,1,0,0,,,,,,,,,,,,,,,,,,,,,,,,,,,,,,,,,,,,,,,,
,,,,,00114,2023-12-10_21h47.09.030,vbt_B2_day4,2022.2.4,Win32,48.11161896,,,,,,down,0,1.5635,,-0.190277778,-0.295833333,1,0,0,0,0,0,126,1,kasteel,images/br_kasteel.png,images/cb_kasteel.png,0,,,,,,,,,,,,,,,,,,,,,,
,,,,,00114,2023-12-10_21h47.09.030,vbt_B2_day4,2022.2.4,Win32,48.11161896,,,,,,down,0,6.7883,,-0.190277778,-0.295833333,1,0,0,0,1,1,196,1,nakijken,images/br_nakijken.png,images/cb_nakijken.png,0,,,,,,,,,,,,,,,,,,,,,,
,,,,,00114,2023-12-10_21h47.09.030,vbt_B2_day4,2022.2.4,Win32,48.11161896,,,,,,down,0,0.1296,,-0.190277778,-0.295833333,1,0,0,0,2,2,46,1,jagen,images/br_jagen.png,images/cb_jagen.png,0,,,,,,,,,,,,,,,,,,,,,,
,,,,,00114,2023-12-10_21h47.09.030,vbt_B2_day4,2022.2.4,Win32,48.11161896,,,,,,down,0,0.6039,,-0.190277778,-0.295833333,1,0,0,0,3,3,14,1,rijp,images/br_rijp.png,images/cb_rijp.png,0,,,,,,,,,,,,,,,,,,,,,,
,,,,,00114,2023-12-10_21h47.09.030,vbt_B2_day4,2022.2.4,Win32,48.11161896,,,,,,down,0,0.6498,,-0.190277778,-0.295833333,1,0,0,0,4,4,27,1,dans,images/br_dans.png,images/cb_dans.png,1,dans,,,,,,,,,,,,,,,,,,,,,
,,,,,00114,2023-12-10_21h47.09.030,vbt_B2_day4,2022.2.4,Win32,48.11161896,,,,,,down,0,0.3215,,-0.190277778,-0.295833333,1,0,0,0,5,5,71,1,bever,images/br_bever.png,images/cb_bever.png,0,,,,,,,,,,,,,,,,,,,,,,
,,,,,00114,2023-12-10_21h47.09.030,vbt_B2_day4,2022.2.4,Win32,48.11161896,,,,,,down,0,1.5426,,-0.190277778,-0.295833333,1,0,0,0,6,6,163,1,schuilen,images/br_schuilen.png,images/cb_schuilen.png,0,,,,,,,,,,,,,,,,,,,,,,
,,,,,00114,2023-12-10_21h47.09.030,vbt_B2_day4,2022.2.4,Win32,48.11161896,,,,,,down,0,0.318,,-0.190277778,-0.295833333,1,0,0,0,7,7,61,1,groen,images/br_groen.png,images/cb_groen.png,0,,,,,,,,,,,,,,,,,,,,,,
,,,,,00114,2023-12-10_21h47.09.030,vbt_B2_day4,2022.2.4,Win32,48.11161896,,,,,,down,0,5.6125,,-0.190277778,-0.295833333,1,0,0,0,8,8,185,1,mijnheer,images/br_mijnheer.png,images/cb_mijnheer.png,1,,,,,,,,,,,,,,,,,,,,,,
,,,,,00114,2023-12-10_21h47.09.030,vbt_B2_day4,2022.2.4,Win32,48.11161896,,,,,,down,0,0.0426,,-0.190277778,-0.295833333,1,0,0,0,9,9,59,1,kring,images/br_kring.png,images/cb_kring.png,0,,,,,,,,,,,,,,,,,,,,,,
,,,,,00114,2023-12-10_21h47.09.030,vbt_B2_day4,2022.2.4,Win32,48.11161896,,,,,,down,0,0.7104,,-0.190277778,-0.295833333,1,0,0,0,10,10,161,1,attentie,images/br_attentie.png,images/cb_attentie.png,0,,,,,,,,,,,,,,,,,,,,,,
,,,,,00114,2023-12-10_21h47.09.030,vbt_B2_day4,2022.2.4,Win32,48.11161896,,,,,,down,0,1.0257,,-0.190277778,-0.295833333,1,0,0,0,11,11,190,1,goedkoop,images/br_goedkoop.png,images/cb_goedkoop.png,0,,,,,,,,,,,,,,,,,,,,,,
,,,,,00114,2023-12-10_21h47.09.030,vbt_B2_day4,2022.2.4,Win32,48.11161896,,,,,,down,0,0.3345,,-0.190277778,-0.295833333,1,0,0,0,12,12,122,1,waarvan,images/br_waarvan.png,images/cb_waarvan.png,0,,,,,,,,,,,,,,,,,,,,,,
,,,,,00114,2023-12-10_21h47.09.030,vbt_B2_day4,2022.2.4,Win32,48.11161896,,,,,,down,0,0.0006,,-0.190277778,-0.295833333,1,0,0,0,13,13,93,1,waarop,images/br_waarop.png,images/cb_waarop.png,0,,,,,,,,,,,,,,,,,,,,,,
,,,,,00114,2023-12-10_21h47.09.030,vbt_B2_day4,2022.2.4,Win32,48.11161896,,,,,,down,0,0.6299,,-0.190277778,-0.295833333,1,0,0,0,14,14,11,1,mode,images/br_mode.png,images/cb_mode.png,0,,,,,,,,,,,,,,,,,,,,,,
,,,,,00114,2023-12-10_21h47.09.030,vbt_B2_day4,2022.2.4,Win32,48.11161896,,,,,,down,0,3.7715,,-0.190277778,-0.295833333,1,0,0,0,15,15,98,1,kreeft,images/br_kreeft.png,images/cb_kreeft.png,0,,,,,,,,,,,,,,,,,,,,,,
,,,,,00114,2023-12-10_21h47.09.030,vbt_B2_day4,2022.2.4,Win32,48.11161896,,,,,,down,0,2.3973,,-0.190277778,-0.295833333,1,0,0,0,16,16,2,1,jaar,images/br_jaar.png,images/cb_jaar.png,0,,,,,,,,,,,,,,,,,,,,,,
,,,,,00114,2023-12-10_21h47.09.030,vbt_B2_day4,2022.2.4,Win32,48.11161896,,,,,,down,0,0.9828,,-0.190277778,-0.295833333,1,0,0,0,17,17,160,1,daarheen,images/br_daarheen.png,images/cb_daarheen.png,0,,,,,,,,,,,,,,,,,,,,,,
,,,,,00114,2023-12-10_21h47.09.030,vbt_B2_day4,2022.2.4,Win32,48.11161896,,,,,,down,0,0.0483,,-0.190277778,-0.295833333,1,0,0,0,18,18,74,1,graaf,images/br_graaf.png,images/cb_graaf.png,0,,,,,,,,,,,,,,,,,,,,,,
,,,,,00114,2023-12-10_21h47.09.030,vbt_B2_day4,2022.2.4,Win32,48.11161896,,,,,,down,0,0.0635,,-0.190277778,-0.295833333,1,0,0,0,19,19,132,1,grappen,images/br_grappen.png,images/cb_grappen.png,0,,,,,,,,,,,,,,,,,,,,,,
,,,,,00114,2023-12-10_21h47.09.030,vbt_B2_day4,2022.2.4,Win32,48.11161896,,,,,,down,0,0.4428,,-0.190277778,-0.295833333,1,0,0,0,20,20,16,1,ziek,images/br_ziek.png,images/cb_ziek.png,0,,,,,,,,,,,,,,,,,,,,,,
,,,,,00114,2023-12-10_21h47.09.030,vbt_B2_day4,2022.2.4,Win32,48.11161896,,,,,,down,0,0.7306,,-0.190277778,-0.295833333,1,0,0,0,21,21,76,1,afval,images/br_afval.png,images/cb_afval.png,0,,,,,,,,,,,,,,,,,,,,,,
,,,,,00114,2023-12-10_21h47.09.030,vbt_B2_day4,2022.2.4,Win32,48.11161896,,,,,,down,0,1.0843,,-0.190277778,-0.295833333,1,0,0,0,22,22,153,1,vervoer,images/br_vervoer.png,images/cb_vervoer.png,0,,,,,,,,,,,,,,,,,,,,,,
,,,,,00114,2023-12-10_21h47.09.030,vbt_B2_day4,2022.2.4,Win32,48.11161896,,,,,,down,0,0.1881,,-0.190277778,-0.295833333,1,0,0,0,23,23,114,1,vullen,images/br_vullen.png,images/cb_vullen.png,0,,,,,,,,,,,,,,,,,,,,,,
,,,,,00114,2023-12-10_21h47.09.030,vbt_B2_day4,2022.2.4,Win32,48.11161896,,,,,,down,0,0.0649,,-0.190277778,-0.295833333,1,0,0,0,24,24,177,1,maaltijd,images/br_maaltijd.png,images/cb_maaltijd.png,0,,,,,,,,,,,,,,,,,,,,,,
,,,,,00114,2023-12-10_21h47.09.030,vbt_B2_day4,2022.2.4,Win32,48.11161896,,,,,,down,0,3.2076,,-0.190277778,-0.295833333,1,0,0,0,25,25,170,1,schatten,images/br_schatten.png,images/cb_schatten.png,0,,,,,,,,,,,,,,,,,,,,,,
,,,,,00114,2023-12-10_21h47.09.030,vbt_B2_day4,2022.2.4,Win32,48.11161896,,,,,,down,0,0.4387,,-0.190277778,-0.295833333,1,0,0,0,26,26,7,1,geld,images/br_geld.png,images/cb_geld.png,0,,,,,,,,,,,,,,,,,,,,,,
,,,,,00114,2023-12-10_21h47.09.030,vbt_B2_day4,2022.2.4,Win32,48.11161896,,,,,,down,0,1.3555,,-0.190277778,-0.295833333,1,0,0,0,27,27,193,1,weeshuis,images/br_weeshuis.png,images/cb_weeshuis.png,0,,,,,,,,,,,,,,,,,,,,,,
,,,,,00114,2023-12-10_21h47.09.030,vbt_B2_day4,2022.2.4,Win32,48.11161896,,,,,,down,0,214.1357,,-0.190277778,-0.295833333,1,0,0,0,28,28,172,1,weigeren,images/br_weigeren.png,images/cb_weigeren.png,0,,,,,,,,,,,,,,,,,,,,,,
,,,,,00114,2023-12-10_21h47.09.030,vbt_B2_day4,2022.2.4,Win32,48.11161896,,,,,,down,0,0.7504,,-0.190277778,-0.295833333,1,0,0,0,29,29,107,1,maling,images/br_maling.png,images/cb_maling.png,1,maling,,,,,,,,,,,,,,,,,,,,,
,,,,,00114,2023-12-10_21h47.09.030,vbt_B2_day4,2022.2.4,Win32,48.11161896,,,,,,down,0,0.5294,,-0.190277778,-0.295833333,1,0,0,0,30,30,175,1,heengaan,images/br_heengaan.png,images/cb_heengaan.png,0,,,,,,,,,,,,,,,,,,,,,,
,,,,,00114,2023-12-10_21h47.09.030,vbt_B2_day4,2022.2.4,Win32,48.11161896,,,,,,down,0,3.2738,,-0.190277778,-0.295833333,1,0,0,0,31,31,60,1,jasje,images/br_jasje.png,images/cb_jasje.png,0,,,,,,,,,,,,,,,,,,,,,,
,,,,,00114,2023-12-10_21h47.09.030,vbt_B2_day4,2022.2.4,Win32,48.11161896,,,,,,down,0,13.9856,,-0.190277778,-0.295833333,1,0,0,0,32,32,119,1,liefje,images/br_liefje.png,images/cb_liefje.png,0,,,,,,,,,,,,,,,,,,,,,,
,,,,,00114,2023-12-10_21h47.09.030,vbt_B2_day4,2022.2.4,Win32,48.11161896,,,,,,down,0,0.901,,-0.190277778,-0.295833333,1,0,0,0,33,33,87,1,toeval,images/br_toeval.png,images/cb_toeval.png,0,,,,,,,,,,,,,,,,,,,,,,
,,,,,00114,2023-12-10_21h47.09.030,vbt_B2_day4,2022.2.4,Win32,48.11161896,,,,,,down,0,1.0844,,-0.190277778,-0.295833333,1,0,0,0,34,34,0,1,slak,images/br_slak.png,images/cb_slak.png,0,,,,,,,,,,,,,,,,,,,,,,
,,,,,00114,2023-12-10_21h47.09.030,vbt_B2_day4,2022.2.4,Win32,48.11161896,,,,,,down,0,3.3008,,-0.190277778,-0.295833333,1,0,0,0,35,35,145,1,invloed,images/br_invloed.png,images/cb_invloed.png,1,invloed,,,,,,,,,,,,,,,,,,,,,
,,,,,00114,2023-12-10_21h47.09.030,vbt_B2_day4,2022.2.4,Win32,48.11161896,,,,,,down,0,2.6064,,-0.190277778,-0.295833333,1,0,0,0,36,36,127,1,doodmoe,images/br_doodmoe.png,images/cb_doodmoe.png,0,,,,,,,,,,,,,,,,,,,,,,
,,,,,00114,2023-12-10_21h47.09.030,vbt_B2_day4,2022.2.4,Win32,48.11161896,,,,,,down,0,0.092,,-0.190277778,-0.295833333,1,0,0,0,37,37,111,1,ticket,images/br_ticket.png,images/cb_ticket.png,0,,,,,,,,,,,,,,,,,,,,,,
,,,,,00114,2023-12-10_21h47.09.030,vbt_B2_day4,2022.2.4,Win32,48.11161896,,,,,,down,0,1.4212,,-0.190277778,-0.295833333,1,0,0,0,38,38,147,1,komisch,images/br_komisch.png,images/cb_komisch.png,1,komisch,,,,,,,,,,,,,,,,,,,,,
,,,,,00114,2023-12-10_21h47.09.030,vbt_B2_day4,2022.2.4,Win32,48.11161896,,,,,,down,0,0.043,,-0.190277778,-0.295833333,1,0,0,0,39,39,10,1,leek,images/br_leek.png,images/cb_leek.png,0,,,,,,,,,,,,,,,,,,,,,,
,,,,,00114,2023-12-10_21h47.09.030,vbt_B2_day4,2022.2.4,Win32,48.11161896,,,,,,down,0,2.1902,,-0.190277778,-0.295833333,1,0,0,0,40,40,157,1,uitlaat,images/br_uitlaat.png,images/cb_uitlaat.png,0,,,,,,,,,,,,,,,,,,,,,,
,,,,,00114,2023-12-10_21h47.09.030,vbt_B2_day4,2022.2.4,Win32,48.11161896,,,,,,down,0,2.7387,,-0.190277778,-0.295833333,1,0,0,0,41,41,180,1,openbaar,images/br_openbaar.png,images/cb_openbaar.png,0,,,,,,,,,,,,,,,,,,,,,,
,,,,,00114,2023-12-10_21h47.09.030,vbt_B2_day4,2022.2.4,Win32,48.11161896,,,,,,down,0,0.2512,,-0.190277778,-0.295833333,1,0,0,0,42,42,120,1,klimmen,images/br_klimmen.png,images/cb_klimmen.png,0,,,,,,,,,,,,,,,,,,,,,,
,,,,,00114,2023-12-10_21h47.09.030,vbt_B2_day4,2022.2.4,Win32,48.11161896,,,,,,down,0,0.1905,,-0.190277778,-0.295833333,1,0,0,0,43,43,31,1,poes,images/br_poes.png,images/cb_poes.png,0,,,,,,,,,,,,,,,,,,,,,,
,,,,,00114,2023-12-10_21h47.09.030,vbt_B2_day4,2022.2.4,Win32,48.11161896,,,,,,down,0,0.0937,,-0.190277778,-0.295833333,1,0,0,0,44,44,102,1,legaal,images/br_legaal.png,images/cb_legaal.png,0,,,,,,,,,,,,,,,,,,,,,,
,,,,,00114,2023-12-10_21h47.09.030,vbt_B2_day4,2022.2.4,Win32,48.11161896,,,,,,down,0,0.7926,,-0.190277778,-0.295833333,1,0,0,0,45,45,182,1,bijkomen,images/br_bijkomen.png,images/cb_bijkomen.png,0,,,,,,,,,,,,,,,,,,,,,,
,,,,,00114,2023-12-10_21h47.09.030,vbt_B2_day4,2022.2.4,Win32,48.11161896,,,,,,down,0,0.7305,,-0.190277778,-0.295833333,1,0,0,0,46,46,32,1,palm,images/br_palm.png,images/cb_palm.png,0,,,,,,,,,,,,,,,,,,,,,,
,,,,,00114,2023-12-10_21h47.09.030,vbt_B2_day4,2022.2.4,Win32,48.11161896,,,,,,down,0,1.1471,,-0.190277778,-0.295833333,1,0,0,0,47,47,106,1,zingen,images/br_zingen.png,images/cb_zingen.png,1,,,,,,,,,,,,,,,,,,,,,,
,,,,,00114,2023-12-10_21h47.09.030,vbt_B2_day4,2022.2.4,Win32,48.11161896,,,,,,down,0,0.779,,-0.190277778,-0.295833333,1,0,0,0,48,48,66,1,lever,images/br_lever.png,images/cb_lever.png,1,lever,,,,,,,,,,,,,,,,,,,,,
,,,,,00114,2023-12-10_21h47.09.030,vbt_B2_day4,2022.2.4,Win32,48.11161896,,,,,,down,0,5.125,,-0.190277778,-0.295833333,1,0,0,0,49,49,135,1,gedicht,images/br_gedicht.png,images/cb_gedicht.png,0,,,,,,,,,,,,,,,,,,,,,,
,,,,,00114,2023-12-10_21h47.09.030,vbt_B2_day4,2022.2.4,Win32,48.11161896,,,,,,down,0,2.1055,,-0.190277778,-0.295833333,1,0,0,0,50,50,152,1,afnemen,images/br_afnemen.png,images/cb_afnemen.png,0,,,,,,,,,,,,,,,,,,,,,,
,,,,,00114,2023-12-10_21h47.09.030,vbt_B2_day4,2022.2.4,Win32,48.11161896,,,,,,down,0,1.3344,,-0.190277778,-0.295833333,1,0,0,0,51,51,187,1,opkijken,images/br_opkijken.png,images/cb_opkijken.png,1,opkijken,,,,,,,,,,,,,,,,,,,,,
,,,,,00114,2023-12-10_21h47.09.030,vbt_B2_day4,2022.2.4,Win32,48.11161896,,,,,,down,0,0.7359,,-0.190277778,-0.295833333,1,0,0,0,52,52,58,1,tekst,images/br_tekst.png,images/cb_tekst.png,0,,,,,,,,,,,,,,,,,,,,,,
,,,,,00114,2023-12-10_21h47.09.030,vbt_B2_day4,2022.2.4,Win32,48.11161896,,,,,,down,0,0.7381,,-0.190277778,-0.295833333,1,0,0,0,53,53,53,1,baron,images/br_baron.png,images/cb_baron.png,0,,,,,,,,,,,,,,,,,,,,,,
,,,,,00114,2023-12-10_21h47.09.030,vbt_B2_day4,2022.2.4,Win32,48.11161896,,,,,,down,0,0.8557,,-0.190277778,-0.295833333,1,0,0,0,54,54,105,1,wijlen,images/br_wijlen.png,images/cb_wijlen.png,1,wijlen,,,,,,,,,,,,,,,,,,,,,
,,,,,00114,2023-12-10_21h47.09.030,vbt_B2_day4,2022.2.4,Win32,48.11161896,,,,,,down,0,0.876,,-0.190277778,-0.295833333,1,0,0,0,55,55,113,1,koppen,images/br_koppen.png,images/cb_koppen.png,0,,,,,,,,,,,,,,,,,,,,,,
,,,,,00114,2023-12-10_21h47.09.030,vbt_B2_day4,2022.2.4,Win32,48.11161896,,,,,,down,0,0.7507,,-0.190277778,-0.295833333,1,0,0,0,56,56,82,1,muziek,images/br_muziek.png,images/cb_muziek.png,0,,,,,,,,,,,,,,,,,,,,,,
,,,,,00114,2023-12-10_21h47.09.030,vbt_B2_day4,2022.2.4,Win32,48.11161896,,,,,,down,0,2.8621,,-0.190277778,-0.295833333,1,0,0,0,57,57,156,1,rechten,images/br_rechten.png,images/cb_rechten.png,0,,,,,,,,,,,,,,,,,,,,,,
,,,,,00114,2023-12-10_21h47.09.030,vbt_B2_day4,2022.2.4,Win32,48.11161896,,,,,,down,0,0.5445,,-0.190277778,-0.295833333,1,0,0,0,58,58,179,1,woestijn,images/br_woestijn.png,images/cb_woestijn.png,0,,,,,,,,,,,,,,,,,,,,,,
,,,,,00114,2023-12-10_21h47.09.030,vbt_B2_day4,2022.2.4,Win32,48.11161896,,,,,,down,0,0.2004,,-0.190277778,-0.295833333,1,0,0,0,59,59,63,1,flirt,images/br_flirt.png,images/cb_flirt.png,0,,,,,,,,,,,,,,,,,,,,,,
,,,,,00114,2023-12-10_21h47.09.030,vbt_B2_day4,2022.2.4,Win32,48.11161896,,,,,,down,0,0.2344,,-0.190277778,-0.295833333,1,0,0,0,60,60,23,1,zout,images/br_zout.png,images/cb_zout.png,0,,,,,,,,,,,,,,,,,,,,,,
,,,,,00114,2023-12-10_21h47.09.030,vbt_B2_day4,2022.2.4,Win32,48.11161896,,,,,,down,0,0.3757,,-0.190277778,-0.295833333,1,0,0,0,61,61,20,1,site,images/br_site.png,images/cb_site.png,0,,,,,,,,,,,,,,,,,,,,,,
,,,,,00114,2023-12-10_21h47.09.030,vbt_B2_day4,2022.2.4,Win32,48.11161896,,,,,,down,0,0.7461,,-0.190277778,-0.295833333,1,0,0,0,62,62,150,1,gegeven,images/br_gegeven.png,images/cb_gegeven.png,0,,,,,,,,,,,,,,,,,,,,,,
,,,,,00114,2023-12-10_21h47.09.030,vbt_B2_day4,2022.2.4,Win32,48.11161896,,,,,,down,0,3.4697,,-0.190277778,-0.295833333,1,0,0,0,63,63,80,1,kanjer,images/br_kanjer.png,images/cb_kanjer.png,0,,,,,,,,,,,,,,,,,,,,,,
,,,,,00114,2023-12-10_21h47.09.030,vbt_B2_day4,2022.2.4,Win32,48.11161896,,,,,,down,0,0.441,,-0.190277778,-0.295833333,1,0,0,0,64,64,86,1,woning,images/br_woning.png,images/cb_woning.png,0,,,,,,,,,,,,,,,,,,,,,,
,,,,,00114,2023-12-10_21h47.09.030,vbt_B2_day4,2022.2.4,Win32,48.11161896,,,,,,down,0,3.793,,-0.190277778,-0.295833333,1,0,0,0,65,65,136,1,waarbij,images/br_waarbij.png,images/cb_waarbij.png,0,,,,,,,,,,,,,,,,,,,,,,
,,,,,00114,2023-12-10_21h47.09.030,vbt_B2_day4,2022.2.4,Win32,48.11161896,,,,,,down,0,0.1675,,-0.190277778,-0.295833333,1,0,0,0,66,66,85,1,heilig,images/br_heilig.png,images/cb_heilig.png,0,,,,,,,,,,,,,,,,,,,,,,
,,,,,00114,2023-12-10_21h47.09.030,vbt_B2_day4,2022.2.4,Win32,48.11161896,,,,,,down,0,0.4436,,-0.190277778,-0.295833333,1,0,0,0,67,67,108,1,excuus,images/br_excuus.png,images/cb_excuus.png,0,,,,,,,,,,,,,,,,,,,,,,
,,,,,00114,2023-12-10_21h47.09.030,vbt_B2_day4,2022.2.4,Win32,48.11161896,,,,,,down,0,0.6646,,-0.190277778,-0.295833333,1,0,0,0,68,68,167,1,eenhoorn,images/br_eenhoorn.png,images/cb_eenhoorn.png,0,,,,,,,,,,,,,,,,,,,,,,
,,,,,00114,2023-12-10_21h47.09.030,vbt_B2_day4,2022.2.4,Win32,48.11161896,,,,,,down,0,0.8757,,-0.190277778,-0.295833333,1,0,0,0,69,69,168,1,bisschop,images/br_bisschop.png,images/cb_bisschop.png,0,,,,,,,,,,,,,,,,,,,,,,
,,,,,00114,2023-12-10_21h47.09.030,vbt_B2_day4,2022.2.4,Win32,48.11161896,,,,,,down,0,0.7792,,-0.190277778,-0.295833333,1,0,0,0,70,70,123,1,hiervan,images/br_hiervan.png,images/cb_hiervan.png,0,,,,,,,,,,,,,,,,,,,,,,
,,,,,00114,2023-12-10_21h47.09.030,vbt_B2_day4,2022.2.4,Win32,48.11161896,,,,,,down,0,14.9177,,-0.190277778,-0.295833333,1,0,0,0,71,71,91,1,gezond,images/br_gezond.png,images/cb_gezond.png,0,,,,,,,,,,,,,,,,,,,,,,
,,,,,00114,2023-12-10_21h47.09.030,vbt_B2_day4,2022.2.4,Win32,48.11161896,,,,,,down,0,0.569,,-0.190277778,-0.295833333,1,0,0,0,72,72,140,1,blijven,images/br_blijven.png,images/cb_blijven.png,0,,,,,,,,,,,,,,,,,,,,,,
,,,,,00114,2023-12-10_21h47.09.030,vbt_B2_day4,2022.2.4,Win32,48.11161896,,,,,,down,0,0.2165,,-0.190277778,-0.295833333,1,0,0,0,73,73,22,1,stof,images/br_stof.png,images/cb_stof.png,0,,,,,,,,,,,,,,,,,,,,,,
,,,,,00114,2023-12-10_21h47.09.030,vbt_B2_day4,2022.2.4,Win32,48.11161896,,,,,,down,0,0.6186,,-0.190277778,-0.295833333,1,0,0,0,74,74,146,1,opkomen,images/br_opkomen.png,images/cb_opkomen.png,1,opkomen,,,,,,,,,,,,,,,,,,,,,
,,,,,00114,2023-12-10_21h47.09.030,vbt_B2_day4,2022.2.4,Win32,48.11161896,,,,,,down,0,0.526,,-0.190277778,-0.295833333,1,0,0,0,75,75,52,1,wagon,images/br_wagon.png,images/cb_wagon.png,0,,,,,,,,,,,,,,,,,,,,,,
,,,,,00114,2023-12-10_21h47.09.030,vbt_B2_day4,2022.2.4,Win32,48.11161896,,,,,,down,0,0.2395,,-0.190277778,-0.295833333,1,0,0,0,76,76,33,1,vlek,images/br_vlek.png,images/cb_vlek.png,0,,,,,,,,,,,,,,,,,,,,,,
,,,,,00114,2023-12-10_21h47.09.030,vbt_B2_day4,2022.2.4,Win32,48.11161896,,,,,,down,0,0.2754,,-0.190277778,-0.295833333,1,0,0,0,77,77,169,1,oprotten,images/br_oprotten.png,images/cb_oprotten.png,0,,,,,,,,,,,,,,,,,,,,,,
,,,,,00114,2023-12-10_21h47.09.030,vbt_B2_day4,2022.2.4,Win32,48.11161896,,,,,,down,0,0.2717,,-0.190277778,-0.295833333,1,0,0,0,78,78,36,1,vuur,images/br_vuur.png,images/cb_vuur.png,0,,,,,,,,,,,,,,,,,,,,,,
,,,,,00114,2023-12-10_21h47.09.030,vbt_B2_day4,2022.2.4,Win32,48.11161896,,,,,,down,0,0.3434,,-0.190277778,-0.295833333,1,0,0,0,79,79,129,1,verhaal,images/br_verhaal.png,images/cb_verhaal.png,0,,,,,,,,,,,,,,,,,,,,,,
,,,,,00114,2023-12-10_21h47.09.030,vbt_B2_day4,2022.2.4,Win32,48.11161896,,,,,,down,0,0.4116,,-0.190277778,-0.295833333,1,0,0,0,80,80,35,1,lust,images/br_lust.png,images/cb_lust.png,0,,,,,,,,,,,,,,,,,,,,,,
,,,,,00114,2023-12-10_21h47.09.030,vbt_B2_day4,2022.2.4,Win32,48.11161896,,,,,,down,0,0.6465,,-0.190277778,-0.295833333,1,0,0,0,81,81,3,1,mand,images/br_mand.png,images/cb_mand.png,0,,,,,,,,,,,,,,,,,,,,,,
,,,,,00114,2023-12-10_21h47.09.030,vbt_B2_day4,2022.2.4,Win32,48.11161896,,,,,,down,0,0.8186,,-0.190277778,-0.295833333,1,0,0,0,82,82,166,1,strikken,images/br_strikken.png,images/cb_strikken.png,0,,,,,,,,,,,,,,,,,,,,,,
,,,,,00114,2023-12-10_21h47.09.030,vbt_B2_day4,2022.2.4,Win32,48.11161896,,,,,,down,0,0.2924,,-0.190277778,-0.295833333,1,0,0,0,83,83,18,1,blik,images/br_blik.png,images/cb_blik.png,0,,,,,,,,,,,,,,,,,,,,,,
,,,,,00114,2023-12-10_21h47.09.030,vbt_B2_day4,2022.2.4,Win32,48.11161896,,,,,,down,0,0.6257,,-0.190277778,-0.295833333,1,0,0,0,84,84,65,1,parel,images/br_parel.png,images/cb_parel.png,1,parel,,,,,,,,,,,,,,,,,,,,,
,,,,,00114,2023-12-10_21h47.09.030,vbt_B2_day4,2022.2.4,Win32,48.11161896,,,,,,down,0,0.5851,,-0.190277778,-0.295833333,1,0,0,0,85,85,78,1,leren,images/br_leren.png,images/cb_leren.png,0,,,,,,,,,,,,,,,,,,,,,,
,,,,,00114,2023-12-10_21h47.09.030,vbt_B2_day4,2022.2.4,Win32,48.11161896,,,,,,down,0,0.299,,-0.190277778,-0.295833333,1,0,0,0,86,86,6,1,diep,images/br_diep.png,images/cb_diep.png,0,,,,,,,,,,,,,,,,,,,,,,
,,,,,00114,2023-12-10_21h47.09.030,vbt_B2_day4,2022.2.4,Win32,48.11161896,,,,,,down,0,0.2558,,-0.190277778,-0.295833333,1,0,0,0,87,87,159,1,sufferd,images/br_sufferd.png,images/cb_sufferd.png,0,,,,,,,,,,,,,,,,,,,,,,
,,,,,00114,2023-12-10_21h47.09.030,vbt_B2_day4,2022.2.4,Win32,48.11161896,,,,,,down,0,2.0847,,-0.190277778,-0.295833333,1,0,0,0,88,88,92,1,geheim,images/br_geheim.png,images/cb_geheim.png,0,,,,,,,,,,,,,,,,,,,,,,
,,,,,00114,2023-12-10_21h47.09.030,vbt_B2_day4,2022.2.4,Win32,48.11161896,,,,,,down,0,3.6508,,-0.190277778,-0.295833333,1,0,0,0,89,89,164,1,anarchie,images/br_anarchie.png,images/cb_anarchie.png,0,,,,,,,,,,,,,,,,,,,,,,
,,,,,00114,2023-12-10_21h47.09.030,vbt_B2_day4,2022.2.4,Win32,48.11161896,,,,,,down,0,4.051,,-0.190277778,-0.295833333,1,0,0,0,90,90,130,1,keihard,images/br_keihard.png,images/cb_keihard.png,0,,,,,,,,,,,,,,,,,,,,,,
,,,,,00114,2023-12-10_21h47.09.030,vbt_B2_day4,2022.2.4,Win32,48.11161896,,,,,,down,0,1.152,,-0.190277778,-0.295833333,1,0,0,0,91,91,149,1,redding,images/br_redding.png,images/cb_redding.png,0,,,,,,,,,,,,,,,,,,,,,,
,,,,,00114,2023-12-10_21h47.09.030,vbt_B2_day4,2022.2.4,Win32,48.11161896,,,,,,down,0,1.8347,,-0.190277778,-0.295833333,1,0,0,0,92,92,198,1,bedoelen,images/br_bedoelen.png,images/cb_bedoelen.png,0,,,,,,,,,,,,,,,,,,,,,,
,,,,,00114,2023-12-10_21h47.09.030,vbt_B2_day4,2022.2.4,Win32,48.11161896,,,,,,down,0,1.7841,,-0.190277778,-0.295833333,1,0,0,0,93,93,97,1,loyaal,images/br_loyaal.png,images/cb_loyaal.png,0,,,,,,,,,,,,,,,,,,,,,,
,,,,,00114,2023-12-10_21h47.09.030,vbt_B2_day4,2022.2.4,Win32,48.11161896,,,,,,down,0,0.319,,-0.190277778,-0.295833333,1,0,0,0,94,94,174,1,stemming,images/br_stemming.png,images/cb_stemming.png,0,,,,,,,,,,,,,,,,,,,,,,
,,,,,00114,2023-12-10_21h47.09.030,vbt_B2_day4,2022.2.4,Win32,48.11161896,,,,,,down,0,0.1052,,-0.190277778,-0.295833333,1,0,0,0,95,95,138,1,akkoord,images/br_akkoord.png,images/cb_akkoord.png,0,,,,,,,,,,,,,,,,,,,,,,
,,,,,00114,2023-12-10_21h47.09.030,vbt_B2_day4,2022.2.4,Win32,48.11161896,,,,,,down,0,0.5679,,-0.190277778,-0.295833333,1,0,0,0,96,96,73,1,volop,images/br_volop.png,images/cb_volop.png,0,,,,,,,,,,,,,,,,,,,,,,
,,,,,00114,2023-12-10_21h47.09.030,vbt_B2_day4,2022.2.4,Win32,48.11161896,,,,,,down,0,5.3841,,-0.190277778,-0.295833333,1,0,0,0,97,97,95,1,vreten,images/br_vreten.png,images/cb_vreten.png,0,,,,,,,,,,,,,,,,,,,,,,
,,,,,00114,2023-12-10_21h47.09.030,vbt_B2_day4,2022.2.4,Win32,48.11161896,,,,,,down,0,0.2161,,-0.190277778,-0.295833333,1,0,0,0,98,98,29,1,baas,images/br_baas.png,images/cb_baas.png,0,,,,,,,,,,,,,,,,,,,,,,
,,,,,00114,2023-12-10_21h47.09.030,vbt_B2_day4,2022.2.4,Win32,48.11161896,,,,,,down,0,7.1068,,-0.190277778,-0.295833333,1,0,0,0,99,99,103,1,joggen,images/br_joggen.png,images/cb_joggen.png,0,,,,,,,,,,,,,,,,,,,,,,
,,,,,00114,2023-12-10_21h47.09.030,vbt_B2_day4,2022.2.4,Win32,48.11161896,,,,,,down,0,1.754,,-0.190277778,-0.295833333,1,0,0,0,100,100,69,1,waken,images/br_waken.png,images/cb_waken.png,0,,,,,,,,,,,,,,,,,,,,,,
,,,,,00114,2023-12-10_21h47.09.030,vbt_B2_day4,2022.2.4,Win32,48.11161896,,,,,,down,0,4.1053,,-0.190277778,-0.295833333,1,0,0,0,101,101,165,1,feestdag,images/br_feestdag.png,images/cb_feestdag.png,0,,,,,,,,,,,,,,,,,,,,,,
,,,,,00114,2023-12-10_21h47.09.030,vbt_B2_day4,2022.2.4,Win32,48.11161896,,,,,,down,0,0.5426,,-0.190277778,-0.295833333,1,0,0,0,102,102,41,1,maken,images/br_maken.png,images/cb_maken.png,0,,,,,,,,,,,,,,,,,,,,,,
,,,,,00114,2023-12-10_21h47.09.030,vbt_B2_day4,2022.2.4,Win32,48.11161896,,,,,,down,0,0.2716,,-0.190277778,-0.295833333,1,0,0,0,103,103,100,1,geduld,images/br_geduld.png,images/cb_geduld.png,0,,,,,,,,,,,,,,,,,,,,,,
,,,,,00114,2023-12-10_21h47.09.030,vbt_B2_day4,2022.2.4,Win32,48.11161896,,,,,,down,0,0.3964,,-0.190277778,-0.295833333,1,0,0,0,104,104,154,1,aflopen,images/br_aflopen.png,images/cb_aflopen.png,0,,,,,,,,,,,,,,,,,,,,,,
,,,,,00114,2023-12-10_21h47.09.030,vbt_B2_day4,2022.2.4,Win32,48.11161896,,,,,,down,0,0.5299,,-0.190277778,-0.295833333,1,0,0,0,105,105,77,1,woede,images/br_woede.png,images/cb_woede.png,0,,,,,,,,,,,,,,,,,,,,,,
,,,,,00114,2023-12-10_21h47.09.030,vbt_B2_day4,2022.2.4,Win32,48.11161896,,,,,,down,0,0.1887,,-0.190277778,-0.295833333,1,0,0,0,106,106,48,1,steel,images/br_steel.png,images/cb_steel.png,0,,,,,,,,,,,,,,,,,,,,,,
,,,,,00114,2023-12-10_21h47.09.030,vbt_B2_day4,2022.2.4,Win32,48.11161896,,,,,,down,0,0.38,,-0.190277778,-0.295833333,1,0,0,0,107,107,50,1,stoom,images/br_stoom.png,images/cb_stoom.png,0,,,,,,,,,,,,,,,,,,,,,,
,,,,,00114,2023-12-10_21h47.09.030,vbt_B2_day4,2022.2.4,Win32,48.11161896,,,,,,down,0,0.253,,-0.190277778,-0.295833333,1,0,0,0,108,108,115,1,kleren,images/br_kleren.png,images/cb_kleren.png,0,,,,,,,,,,,,,,,,,,,,,,
,,,,,00114,2023-12-10_21h47.09.030,vbt_B2_day4,2022.2.4,Win32,48.11161896,,,,,,down,0,0.0055,,-0.190277778,-0.295833333,1,0,0,0,109,109,44,1,flits,images/br_flits.png,images/cb_flits.png,0,,,,,,,,,,,,,,,,,,,,,,
,,,,,00114,2023-12-10_21h47.09.030,vbt_B2_day4,2022.2.4,Win32,48.11161896,,,,,,down,0,0.1273,,-0.190277778,-0.295833333,1,0,0,0,110,110,112,1,lukken,images/br_lukken.png,images/cb_lukken.png,0,,,,,,,,,,,,,,,,,,,,,,
,,,,,00114,2023-12-10_21h47.09.030,vbt_B2_day4,2022.2.4,Win32,48.11161896,,,,,,down,0,0.3621,,-0.190277778,-0.295833333,1,0,0,0,111,111,124,1,bloeien,images/br_bloeien.png,images/cb_bloeien.png,0,,,,,,,,,,,,,,,,,,,,,,
,,,,,00114,2023-12-10_21h47.09.030,vbt_B2_day4,2022.2.4,Win32,48.11161896,,,,,,down,0,0.9305,,-0.190277778,-0.295833333,1,0,0,0,112,112,186,1,voorraad,images/br_voorraad.png,images/cb_voorraad.png,1,voorraad,,,,,,,,,,,,,,,,,,,,,
,,,,,00114,2023-12-10_21h47.09.030,vbt_B2_day4,2022.2.4,Win32,48.11161896,,,,,,down,0,0.2295,,-0.190277778,-0.295833333,1,0,0,0,113,113,43,1,klauw,images/br_klauw.png,images/cb_klauw.png,0,,,,,,,,,,,,,,,,,,,,,,
,,,,,00114,2023-12-10_21h47.09.030,vbt_B2_day4,2022.2.4,Win32,48.11161896,,,,,,down,0,5.1523,,-0.190277778,-0.295833333,1,0,0,0,114,114,137,1,trekker,images/br_trekker.png,images/cb_trekker.png,0,,,,,,,,,,,,,,,,,,,,,,
,,,,,00114,2023-12-10_21h47.09.030,vbt_B2_day4,2022.2.4,Win32,48.11161896,,,,,,down,0,3.2096,,-0.190277778,-0.295833333,1,0,0,0,115,115,99,1,koffie,images/br_koffie.png,images/cb_koffie.png,0,,,,,,,,,,,,,,,,,,,,,,
,,,,,00114,2023-12-10_21h47.09.030,vbt_B2_day4,2022.2.4,Win32,48.11161896,,,,,,down,0,0.4636,,-0.190277778,-0.295833333,1,0,0,0,116,116,34,1,vorm,images/br_vorm.png,images/cb_vorm.png,0,,,,,,,,,,,,,,,,,,,,,,
,,,,,00114,2023-12-10_21h47.09.030,vbt_B2_day4,2022.2.4,Win32,48.11161896,,,,,,down,0,0.5002,,-0.190277778,-0.295833333,1,0,0,0,117,117,188,1,strekken,images/br_strekken.png,images/cb_strekken.png,0,,,,,,,,,,,,,,,,,,,,,,
,,,,,00114,2023-12-10_21h47.09.030,vbt_B2_day4,2022.2.4,Win32,48.11161896,,,,,,down,0,3.7159,,-0.190277778,-0.295833333,1,0,0,0,118,118,121,1,twijfel,images/br_twijfel.png,images/cb_twijfel.png,0,,,,,,,,,,,,,,,,,,,,,,
,,,,,00114,2023-12-10_21h47.09.030,vbt_B2_day4,2022.2.4,Win32,48.11161896,,,,,,down,0,0.5641,,-0.190277778,-0.295833333,1,0,0,0,119,119,171,1,aarzelen,images/br_aarzelen.png,images/cb_aarzelen.png,0,,,,,,,,,,,,,,,,,,,,,,
,,,,,00114,2023-12-10_21h47.09.030,vbt_B2_day4,2022.2.4,Win32,48.11161896,,,,,,down,0,1.1378,,-0.190277778,-0.295833333,1,0,0,0,120,120,184,1,aandelen,images/br_aandelen.png,images/cb_aandelen.png,1,aandelen,,,,,,,,,,,,,,,,,,,,,
,,,,,00114,2023-12-10_21h47.09.030,vbt_B2_day4,2022.2.4,Win32,48.11161896,,,,,,down,0,6.2725,,-0.190277778,-0.295833333,1,0,0,0,121,121,84,1,lokken,images/br_lokken.png,images/cb_lokken.png,0,,,,,,,,,,,,,,,,,,,,,,
,,,,,00114,2023-12-10_21h47.09.030,vbt_B2_day4,2022.2.4,Win32,48.11161896,,,,,,down,0,0.0041,,-0.190277778,-0.295833333,1,0,0,0,122,122,56,1,traag,images/br_traag.png,images/cb_traag.png,0,,,,,,,,,,,,,,,,,,,,,,
,,,,,00114,2023-12-10_21h47.09.030,vbt_B2_day4,2022.2.4,Win32,48.11161896,,,,,,down,0,3.3999,,-0.190277778,-0.295833333,1,0,0,0,123,123,70,1,ijdel,images/br_ijdel.png,images/cb_ijdel.png,0,,,,,,,,,,,,,,,,,,,,,,
,,,,,00114,2023-12-10_21h47.09.030,vbt_B2_day4,2022.2.4,Win32,48.11161896,,,,,,down,0,2.2383,,-0.190277778,-0.295833333,1,0,0,0,124,124,40,1,schep,images/br_schep.png,images/cb_schep.png,0,,,,,,,,,,,,,,,,,,,,,,
,,,,,00114,2023-12-10_21h47.09.030,vbt_B2_day4,2022.2.4,Win32,48.11161896,,,,,,down,0,1.1406,,-0.190277778,-0.295833333,1,0,0,0,125,125,12,1,kust,images/br_kust.png,images/cb_kust.png,0,,,,,,,,,,,,,,,,,,,,,,
,,,,,00114,2023-12-10_21h47.09.030,vbt_B2_day4,2022.2.4,Win32,48.11161896,,,,,,down,0,1.5629,,-0.190277778,-0.295833333,1,0,0,0,126,126,104,1,zweven,images/br_zweven.png,images/cb_zweven.png,1,zweven,,,,,,,,,,,,,,,,,,,,,
,,,,,00114,2023-12-10_21h47.09.030,vbt_B2_day4,2022.2.4,Win32,48.11161896,,,,,,down,0,0.4804,,-0.190277778,-0.295833333,1,0,0,0,127,127,189,1,aanraden,images/br_aanraden.png,images/cb_aanraden.png,0,,,,,,,,,,,,,,,,,,,,,,
,,,,,00114,2023-12-10_21h47.09.030,vbt_B2_day4,2022.2.4,Win32,48.11161896,,,,,,down,0,1.1947,,-0.190277778,-0.295833333,1,0,0,0,128,128,178,1,huisdier,images/br_huisdier.png,images/cb_huisdier.png,0,,,,,,,,,,,,,,,,,,,,,,
,,,,,00114,2023-12-10_21h47.09.030,vbt_B2_day4,2022.2.4,Win32,48.11161896,,,,,,down,0,0.3135,,-0.190277778,-0.295833333,1,0,0,0,129,129,148,1,smullen,images/br_smullen.png,images/cb_smullen.png,0,,,,,,,,,,,,,,,,,,,,,,
,,,,,00114,2023-12-10_21h47.09.030,vbt_B2_day4,2022.2.4,Win32,48.11161896,,,,,,down,0,0.4594,,-0.190277778,-0.295833333,1,0,0,0,130,130,143,1,hechten,images/br_hechten.png,images/cb_hechten.png,0,,,,,,,,,,,,,,,,,,,,,,
,,,,,00114,2023-12-10_21h47.09.030,vbt_B2_day4,2022.2.4,Win32,48.11161896,,,,,,down,0,0.169,,-0.190277778,-0.295833333,1,0,0,0,131,131,5,1,blad,images/br_blad.png,images/cb_blad.png,0,,,,,,,,,,,,,,,,,,,,,,
,,,,,00114,2023-12-10_21h47.09.030,vbt_B2_day4,2022.2.4,Win32,48.11161896,,,,,,down,0,6.2529,,-0.190277778,-0.295833333,1,0,0,0,132,132,176,1,techniek,images/br_techniek.png,images/cb_techniek.png,0,,,,,,,,,,,,,,,,,,,,,,
,,,,,00114,2023-12-10_21h47.09.030,vbt_B2_day4,2022.2.4,Win32,48.11161896,,,,,,down,0,0.0217,,-0.190277778,-0.295833333,1,0,0,0,133,133,19,1,geit,images/br_geit.png,images/cb_geit.png,0,,,,,,,,,,,,,,,,,,,,,,
,,,,,00114,2023-12-10_21h47.09.030,vbt_B2_day4,2022.2.4,Win32,48.11161896,,,,,,down,0,0.7718,,-0.190277778,-0.295833333,1,0,0,0,134,134,13,1,kaal,images/br_kaal.png,images/cb_kaal.png,0,,,,,,,,,,,,,,,,,,,,,,
,,,,,00114,2023-12-10_21h47.09.030,vbt_B2_day4,2022.2.4,Win32,48.11161896,,,,,,down,0,0.5283,,-0.190277778,-0.295833333,1,0,0,0,135,135,17,1,taal,images/br_taal.png,images/cb_taal.png,0,,,,,,,,,,,,,,,,,,,,,,
,,,,,00114,2023-12-10_21h47.09.030,vbt_B2_day4,2022.2.4,Win32,48.11161896,,,,,,down,0,3.6673,,-0.190277778,-0.295833333,1,0,0,0,136,136,181,1,toegeven,images/br_toegeven.png,images/cb_toegeven.png,0,,,,,,,,,,,,,,,,,,,,,,
,,,,,00114,2023-12-10_21h47.09.030,vbt_B2_day4,2022.2.4,Win32,48.11161896,,,,,,down,0,1.1884,,-0.190277778,-0.295833333,1,0,0,0,137,137,183,1,getuigen,images/br_getuigen.png,images/cb_getuigen.png,0,,,,,,,,,,,,,,,,,,,,,,
,,,,,00114,2023-12-10_21h47.09.030,vbt_B2_day4,2022.2.4,Win32,48.11161896,,,,,,down,0,0.682,,-0.190277778,-0.295833333,1,0,0,0,138,138,51,1,samen,images/br_samen.png,images/cb_samen.png,0,,,,,,,,,,,,,,,,,,,,,,
,,,,,00114,2023-12-10_21h47.09.030,vbt_B2_day4,2022.2.4,Win32,48.11161896,,,,,,down,0,2.8245,,-0.190277778,-0.295833333,1,0,0,0,139,139,194,1,driemaal,images/br_driemaal.png,images/cb_driemaal.png,0,,,,,,,,,,,,,,,,,,,,,,
,,,,,00114,2023-12-10_21h47.09.030,vbt_B2_day4,2022.2.4,Win32,48.11161896,,,,,,down,0,0.1701,,-0.190277778,-0.295833333,1,0,0,0,140,140,21,1,mist,images/br_mist.png,images/cb_mist.png,0,,,,,,,,,,,,,,,,,,,,,,
,,,,,00114,2023-12-10_21h47.09.030,vbt_B2_day4,2022.2.4,Win32,48.11161896,,,,,,down,0,0.5024,,-0.190277778,-0.295833333,1,0,0,0,141,141,191,1,opheffen,images/br_opheffen.png,images/cb_opheffen.png,0,,,,,,,,,,,,,,,,,,,,,,
,,,,,00114,2023-12-10_21h47.09.030,vbt_B2_day4,2022.2.4,Win32,48.11161896,,,,,,down,0,0.9888,,-0.190277778,-0.295833333,1,0,0,0,142,142,131,1,opzicht,images/br_opzicht.png,images/cb_opzicht.png,0,,,,,,,,,,,,,,,,,,,,,,
,,,,,00114,2023-12-10_21h47.09.030,vbt_B2_day4,2022.2.4,Win32,48.11161896,,,,,,down,0,5.5049,,-0.190277778,-0.295833333,1,0,0,0,143,143,15,1,soda,images/br_soda.png,images/cb_soda.png,0,,,,,,,,,,,,,,,,,,,,,,
,,,,,00114,2023-12-10_21h47.09.030,vbt_B2_day4,2022.2.4,Win32,48.11161896,,,,,,down,0,1.2302,,-0.190277778,-0.295833333,1,0,0,0,144,144,139,1,stiekem,images/br_stiekem.png,images/cb_stiekem.png,0,,,,,,,,,,,,,,,,,,,,,,
,,,,,00114,2023-12-10_21h47.09.030,vbt_B2_day4,2022.2.4,Win32,48.11161896,,,,,,down,0,0.1755,,-0.190277778,-0.295833333,1,0,0,0,145,145,57,1,steek,images/br_steek.png,images/cb_steek.png,0,,,,,,,,,,,,,,,,,,,,,,
,,,,,00114,2023-12-10_21h47.09.030,vbt_B2_day4,2022.2.4,Win32,48.11161896,,,,,,down,0,0.0422,,-0.190277778,-0.295833333,1,0,0,0,146,146,158,1,innemen,images/br_innemen.png,images/cb_innemen.png,0,,,,,,,,,,,,,,,,,,,,,,
,,,,,00114,2023-12-10_21h47.09.030,vbt_B2_day4,2022.2.4,Win32,48.11161896,,,,,,down,0,0.9492,,-0.190277778,-0.295833333,1,0,0,0,147,147,83,1,mening,images/br_mening.png,images/cb_mening.png,0,,,,,,,,,,,,,,,,,,,,,,
,,,,,00114,2023-12-10_21h47.09.030,vbt_B2_day4,2022.2.4,Win32,48.11161896,,,,,,down,0,0.2552,,-0.190277778,-0.295833333,1,0,0,0,148,148,79,1,nodig,images/br_nodig.png,images/cb_nodig.png,0,,,,,,,,,,,,,,,,,,,,,,
,,,,,00114,2023-12-10_21h47.09.030,vbt_B2_day4,2022.2.4,Win32,48.11161896,,,,,,down,0,0.0842,,-0.190277778,-0.295833333,1,0,0,0,149,149,101,1,staren,images/br_staren.png,images/cb_staren.png,0,,,,,,,,,,,,,,,,,,,,,,
,,,,,00114,2023-12-10_21h47.09.030,vbt_B2_day4,2022.2.4,Win32,48.11161896,,,,,,down,0,5.1976,,-0.190277778,-0.295833333,1,0,0,0,150,150,133,1,seizoen,images/br_seizoen.png,images/cb_seizoen.png,0,,,,,,,,,,,,,,,,,,,,,,
,,,,,00114,2023-12-10_21h47.09.030,vbt_B2_day4,2022.2.4,Win32,48.11161896,,,,,,down,0,19.5259,,-0.190277778,-0.295833333,1,0,0,0,151,151,90,1,geluid,images/br_geluid.png,images/cb_geluid.png,0,,,,,,,,,,,,,,,,,,,,,,
,,,,,00114,2023-12-10_21h47.09.030,vbt_B2_day4,2022.2.4,Win32,48.11161896,,,,,,down,0,0.5009,,-0.190277778,-0.295833333,1,0,0,0,152,152,142,1,snuiven,images/br_snuiven.png,images/cb_snuiven.png,0,,,,,,,,,,,,,,,,,,,,,,
,,,,,00114,2023-12-10_21h47.09.030,vbt_B2_day4,2022.2.4,Win32,48.11161896,,,,,,down,0,0.0354,,-0.190277778,-0.295833333,1,0,0,0,153,153,68,1,schat,images/br_schat.png,images/cb_schat.png,0,,,,,,,,,,,,,,,,,,,,,,
,,,,,00114,2023-12-10_21h47.09.030,vbt_B2_day4,2022.2.4,Win32,48.11161896,,,,,,down,0,0.1502,,-0.190277778,-0.295833333,1,0,0,0,154,154,72,1,strak,images/br_strak.png,images/cb_strak.png,0,,,,,,,,,,,,,,,,,,,,,,
,,,,,00114,2023-12-10_21h47.09.030,vbt_B2_day4,2022.2.4,Win32,48.11161896,,,,,,down,0,2.5383,,-0.190277778,-0.295833333,1,0,0,0,155,155,197,1,spanning,images/br_spanning.png,images/cb_spanning.png,0,,,,,,,,,,,,,,,,,,,,,,
,,,,,00114,2023-12-10_21h47.09.030,vbt_B2_day4,2022.2.4,Win32,48.11161896,,,,,,down,0,4.1259,,-0.190277778,-0.295833333,1,0,0,0,156,156,94,1,oceaan,images/br_oceaan.png,images/cb_oceaan.png,0,,,,,,,,,,,,,,,,,,,,,,
,,,,,00114,2023-12-10_21h47.09.030,vbt_B2_day4,2022.2.4,Win32,48.11161896,,,,,,down,0,0.2594,,-0.190277778,-0.295833333,1,0,0,0,157,157,9,1,hier,images/br_hier.png,images/cb_hier.png,0,,,,,,,,,,,,,,,,,,,,,,
,,,,,00114,2023-12-10_21h47.09.030,vbt_B2_day4,2022.2.4,Win32,48.11161896,,,,,,down,0,0.8146,,-0.190277778,-0.295833333,1,0,0,0,158,158,199,1,beseffen,images/br_beseffen.png,images/cb_beseffen.png,0,,,,,,,,,,,,,,,,,,,,,,
,,,,,00114,2023-12-10_21h47.09.030,vbt_B2_day4,2022.2.4,Win32,48.11161896,,,,,,down,0,2.1678,,-0.190277778,-0.295833333,1,0,0,0,159,159,37,1,mijn,images/br_mijn.png,images/cb_mijn.png,0,,,,,,,,,,,,,,,,,,,,,,
,,,,,00114,2023-12-10_21h47.09.030,vbt_B2_day4,2022.2.4,Win32,48.11161896,,,,,,down,0,1.751,,-0.190277778,-0.295833333,1,0,0,0,160,160,195,1,middelen,images/br_middelen.png,images/cb_middelen.png,0,,,,,,,,,,,,,,,,,,,,,,
,,,,,00114,2023-12-10_21h47.09.030,vbt_B2_day4,2022.2.4,Win32,48.11161896,,,,,,down,0,0.3551,,-0.190277778,-0.295833333,1,0,0,0,161,161,192,1,schaamte,images/br_schaamte.png,images/cb_schaamte.png,0,,,,,,,,,,,,,,,,,,,,,,
,,,,,00114,2023-12-10_21h47.09.030,vbt_B2_day4,2022.2.4,Win32,48.11161896,,,,,,down,0,0.198,,-0.190277778,-0.295833333,1,0,0,0,162,162,45,1,piste,images/br_piste.png,images/cb_piste.png,0,,,,,,,,,,,,,,,,,,,,,,
,,,,,00114,2023-12-10_21h47.09.030,vbt_B2_day4,2022.2.4,Win32,48.11161896,,,,,,down,0,0.9,,-0.190277778,-0.295833333,1,0,0,0,163,163,81,1,dubbel,images/br_dubbel.png,images/cb_dubbel.png,0,,,,,,,,,,,,,,,,,,,,,,
,,,,,00114,2023-12-10_21h47.09.030,vbt_B2_day4,2022.2.4,Win32,48.11161896,,,,,,down,0,1.335,,-0.190277778,-0.295833333,1,0,0,0,164,164,151,1,aanzoek,images/br_aanzoek.png,images/cb_aanzoek.png,0,,,,,,,,,,,,,,,,,,,,,,
,,,,,00114,2023-12-10_21h47.09.030,vbt_B2_day4,2022.2.4,Win32,48.11161896,,,,,,down,0,0.0011,,-0.190277778,-0.295833333,1,0,0,0,165,165,134,1,geliefd,images/br_geliefd.png,images/cb_geliefd.png,0,,,,,,,,,,,,,,,,,,,,,,
,,,,,00114,2023-12-10_21h47.09.030,vbt_B2_day4,2022.2.4,Win32,48.11161896,,,,,,down,0,0.8349,,-0.190277778,-0.295833333,1,0,0,0,166,166,128,1,prikken,images/br_prikken.png,images/cb_prikken.png,0,,,,,,,,,,,,,,,,,,,,,,
,,,,,00114,2023-12-10_21h47.09.030,vbt_B2_day4,2022.2.4,Win32,48.11161896,,,,,,down,0,0.3758,,-0.190277778,-0.295833333,1,0,0,0,167,167,1,1,zaal,images/br_zaal.png,images/cb_zaal.png,0,,,,,,,,,,,,,,,,,,,,,,
,,,,,00114,2023-12-10_21h47.09.030,vbt_B2_day4,2022.2.4,Win32,48.11161896,,,,,,down,0,0.9388,,-0.190277778,-0.295833333,1,0,0,0,168,168,49,1,laken,images/br_laken.png,images/cb_laken.png,0,,,,,,,,,,,,,,,,,,,,,,
,,,,,00114,2023-12-10_21h47.09.030,vbt_B2_day4,2022.2.4,Win32,48.11161896,,,,,,down,0,0.0239,,-0.190277778,-0.295833333,1,0,0,0,169,169,39,1,laag,images/br_laag.png,images/cb_laag.png,0,,,,,,,,,,,,,,,,,,,,,,
,,,,,00114,2023-12-10_21h47.09.030,vbt_B2_day4,2022.2.4,Win32,48.11161896,,,,,,down,0,0.6554,,-0.190277778,-0.295833333,1,0,0,0,170,170,25,1,plek,images/br_plek.png,images/cb_plek.png,1,plek,,,,,,,,,,,,,,,,,,,,,
,,,,,00114,2023-12-10_21h47.09.030,vbt_B2_day4,2022.2.4,Win32,48.11161896,,,,,,down,0,1.9288,,-0.190277778,-0.295833333,1,0,0,0,171,171,67,1,zwart,images/br_zwart.png,images/cb_zwart.png,1,zwart,,,,,,,,,,,,,,,,,,,,,
,,,,,00114,2023-12-10_21h47.09.030,vbt_B2_day4,2022.2.4,Win32,48.11161896,,,,,,down,0,2.2434,,-0.190277778,-0.295833333,1,0,0,0,172,172,62,1,knaap,images/br_knaap.png,images/cb_knaap.png,0,,,,,,,,,,,,,,,,,,,,,,
,,,,,00114,2023-12-10_21h47.09.030,vbt_B2_day4,2022.2.4,Win32,48.11161896,,,,,,down,0,0.9582,,-0.190277778,-0.295833333,1,0,0,0,173,173,42,1,bleek,images/br_bleek.png,images/cb_bleek.png,0,,,,,,,,,,,,,,,,,,,,,,
,,,,,00114,2023-12-10_21h47.09.030,vbt_B2_day4,2022.2.4,Win32,48.11161896,,,,,,down,0,1.7312,,-0.190277778,-0.295833333,1,0,0,0,174,174,55,1,praat,images/br_praat.png,images/cb_praat.png,0,,,,,,,,,,,,,,,,,,,,,,
,,,,,00114,2023-12-10_21h47.09.030,vbt_B2_day4,2022.2.4,Win32,48.11161896,,,,,,down,0,1.1845,,-0.190277778,-0.295833333,1,0,0,0,175,175,118,1,vinger,images/br_vinger.png,images/cb_vinger.png,0,,,,,,,,,,,,,,,,,,,,,,
,,,,,00114,2023-12-10_21h47.09.030,vbt_B2_day4,2022.2.4,Win32,48.11161896,,,,,,down,0,0.3549,,-0.190277778,-0.295833333,1,0,0,0,176,176,144,1,eetlust,images/br_eetlust.png,images/cb_eetlust.png,1,eetlust,,,,,,,,,,,,,,,,,,,,,
,,,,,00114,2023-12-10_21h47.09.030,vbt_B2_day4,2022.2.4,Win32,48.11161896,,,,,,down,0,0.4022,,-0.190277778,-0.295833333,1,0,0,0,177,177,47,1,kabel,images/br_kabel.png,images/cb_kabel.png,0,,,,,,,,,,,,,,,,,,,,,,
,,,,,00114,2023-12-10_21h47.09.030,vbt_B2_day4,2022.2.4,Win32,48.11161896,,,,,,down,0,0.5633,,-0.190277778,-0.295833333,1,0,0,0,178,178,64,1,wegen,images/br_wegen.png,images/cb_wegen.png,1,wegen,,,,,,,,,,,,,,,,,,,,,
,,,,,00114,2023-12-10_21h47.09.030,vbt_B2_day4,2022.2.4,Win32,48.11161896,,,,,,down,0,0.0805,,-0.190277778,-0.295833333,1,0,0,0,179,179,96,1,slagen,images/br_slagen.png,images/cb_slagen.png,0,,,,,,,,,,,,,,,,,,,,,,
,,,,,00114,2023-12-10_21h47.09.030,vbt_B2_day4,2022.2.4,Win32,48.11161896,,,,,,down,0,0.3146,,-0.190277778,-0.295833333,1,0,0,0,180,180,30,1,uien,images/br_uien.png,images/cb_uien.png,0,,,,,,,,,,,,,,,,,,,,,,
,,,,,00114,2023-12-10_21h47.09.030,vbt_B2_day4,2022.2.4,Win32,48.11161896,,,,,,down,0,0.6544,,-0.190277778,-0.295833333,1,0,0,0,181,181,125,1,aanzien,images/br_aanzien.png,images/cb_aanzien.png,0,,,,,,,,,,,,,,,,,,,,,,
,,,,,00114,2023-12-10_21h47.09.030,vbt_B2_day4,2022.2.4,Win32,48.11161896,,,,,,down,0,6.2145,,-0.190277778,-0.295833333,1,0,0,0,182,182,117,1,kennis,images/br_kennis.png,images/cb_kennis.png,0,,,,,,,,,,,,,,,,,,,,,,
,,,,,00114,2023-12-10_21h47.09.030,vbt_B2_day4,2022.2.4,Win32,48.11161896,,,,,,down,0,0.3471,,-0.190277778,-0.295833333,1,0,0,0,183,183,26,1,leuk,images/br_leuk.png,images/cb_leuk.png,1,leuk,,,,,,,,,,,,,,,,,,,,,
,,,,,00114,2023-12-10_21h47.09.030,vbt_B2_day4,2022.2.4,Win32,48.11161896,,,,,,down,0,1.3564,,-0.190277778,-0.295833333,1,0,0,0,184,184,88,1,boeien,images/br_boeien.png,images/cb_boeien.png,0,,,,,,,,,,,,,,,,,,,,,,
,,,,,00114,2023-12-10_21h47.09.030,vbt_B2_day4,2022.2.4,Win32,48.11161896,,,,,,down,0,0.1342,,-0.190277778,-0.295833333,1,0,0,0,185,185,89,1,slapen,images/br_slapen.png,images/cb_slapen.png,0,,,,,,,,,,,,,,,,,,,,,,
,,,,,00114,2023-12-10_21h47.09.030,vbt_B2_day4,2022.2.4,Win32,48.11161896,,,,,,down,0,1.4639,,-0.190277778,-0.295833333,1,0,0,0,186,186,28,1,stal,images/br_stal.png,images/cb_stal.png,0,,,,,,,,,,,,,,,,,,,,,,
,,,,,00114,2023-12-10_21h47.09.030,vbt_B2_day4,2022.2.4,Win32,48.11161896,,,,,,down,0,0.2718,,-0.190277778,-0.295833333,1,0,0,0,187,187,54,1,gebit,images/br_gebit.png,images/cb_gebit.png,0,,,,,,,,,,,,,,,,,,,,,,
,,,,,00114,2023-12-10_21h47.09.030,vbt_B2_day4,2022.2.4,Win32,48.11161896,,,,,,down,0,0.6089,,-0.190277778,-0.295833333,1,0,0,0,188,188,141,1,knielen,images/br_knielen.png,images/cb_knielen.png,0,,,,,,,,,,,,,,,,,,,,,,
,,,,,00114,2023-12-10_21h47.09.030,vbt_B2_day4,2022.2.4,Win32,48.11161896,,,,,,down,0,0.6469,,-0.190277778,-0.295833333,1,0,0,0,189,189,173,1,apparaat,images/br_apparaat.png,images/cb_apparaat.png,0,,,,,,,,,,,,,,,,,,,,,,
,,,,,00114,2023-12-10_21h47.09.030,vbt_B2_day4,2022.2.4,Win32,48.11161896,,,,,,down,0,3.7006,,-0.190277778,-0.295833333,1,0,0,0,190,190,24,1,jurk,images/br_jurk.png,images/cb_jurk.png,1,jurk,,,,,,,,,,,,,,,,,,,,,
,,,,,00114,2023-12-10_21h47.09.030,vbt_B2_day4,2022.2.4,Win32,48.11161896,,,,,,down,0,0.5711,,-0.190277778,-0.295833333,1,0,0,0,191,191,116,1,besmet,images/br_besmet.png,images/cb_besmet.png,0,,,,,,,,,,,,,,,,,,,,,,
,,,,,00114,2023-12-10_21h47.09.030,vbt_B2_day4,2022.2.4,Win32,48.11161896,,,,,,down,0,0.7555,,-0.190277778,-0.295833333,1,0,0,0,192,192,4,1,moes,images/br_moes.png,images/cb_moes.png,0,,,,,,,,,,,,,,,,,,,,,,
,,,,,00114,2023-12-10_21h47.09.030,vbt_B2_day4,2022.2.4,Win32,48.11161896,,,,,,down,0,0.1924,,-0.190277778,-0.295833333,1,0,0,0,193,193,8,1,knie,images/br_knie.png,images/cb_knie.png,0,,,,,,,,,,,,,,,,,,,,,,
,,,,,00114,2023-12-10_21h47.09.030,vbt_B2_day4,2022.2.4,Win32,48.11161896,,,,,,down,0,1.1677,,-0.190277778,-0.295833333,1,0,0,0,194,194,109,1,totaal,images/br_totaal.png,images/cb_totaal.png,0,,,,,,,,,,,,,,,,,,,,,,
,,,,,00114,2023-12-10_21h47.09.030,vbt_B2_day4,2022.2.4,Win32,48.11161896,,,,,,down,0,1.3132,,-0.190277778,-0.295833333,1,0,0,0,195,195,110,1,zuster,images/br_zuster.png,images/cb_zuster.png,0,,,,,,,,,,,,,,,,,,,,,,
,,,,,00114,2023-12-10_21h47.09.030,vbt_B2_day4,2022.2.4,Win32,48.11161896,,,,,,down,0,3.2171,,-0.190277778,-0.295833333,1,0,0,0,196,196,162,1,uitdelen,images/br_uitdelen.png,images/cb_uitdelen.png,0,,,,,,,,,,,,,,,,,,,,,,
,,,,,00114,2023-12-10_21h47.09.030,vbt_B2_day4,2022.2.4,Win32,48.11161896,,,,,,down,0,0.0877,,-0.190277778,-0.295833333,1,0,0,0,197,197,38,1,baai,images/br_baai.png,images/cb_baai.png,0,,,,,,,,,,,,,,,,,,,,,,
,,,,,00114,2023-12-10_21h47.09.030,vbt_B2_day4,2022.2.4,Win32,48.11161896,,,,,,down,0,4.9738,,-0.190277778,-0.295833333,1,0,0,0,198,198,155,1,gerucht,images/br_gerucht.png,images/cb_gerucht.png,0,,,,,,,,,,,,,,,,,,,,,,
,,,,,00114,2023-12-10_21h47.09.030,vbt_B2_day4,2022.2.4,Win32,48.11161896,,,,,,down,0,0.6371,,-0.190277778,-0.295833333,1,0,0,0,199,199,75,1,snoep,images/br_snoep.png,images/cb_snoep.png,0,,,,,,,,,,,,,,,,,,,,,,
,,,,,00114,2023-12-10_21h47.09.030,vbt_B2_day4,2022.2.4,Win32,48.11161896,,,,,,,,,,,,,,,,,,,,,,,,,-0.190277778,-0.295833333,1,0,0,,,,,,,,,,,,,,,,
,,,,,00114,2023-12-10_21h47.09.030,vbt_B2_day4,2022.2.4,Win32,48.11161896,,,,,,,,,,,,,,,,,,,,,,,,,,,,,,-0.190277778,-0.295833333,1,0,0,,,,,,,,,,,
,,,,,00114,2023-12-10_21h47.09.030,vbt_B2_day4,2022.2.4,Win32,48.11161896,,,,,,,,,,,,,,,,,,,,eerst,images/br_eerst.png,images/cb_eerst.png,,eerst,,,,,,,,,,,-0.190277778,-0.295833333,1,0,0,eerst,0,0,0,47,1
,,,,,00114,2023-12-10_21h47.09.030,vbt_B2_day4,2022.2.4,Win32,48.11161896,,,,,,,,,,,,,,,,,,,,geheim,images/br_geheim.png,images/cb_geheim.png,,geheim,,,,,,,,,,,-0.190277778,-0.295833333,1,0,0,geheim,0,1,1,8,1
,,,,,00114,2023-12-10_21h47.09.030,vbt_B2_day4,2022.2.4,Win32,48.11161896,,,,,,,,,,,,,,,,,,,,drooien,images/br_drooien.png,images/cb_drooien.png,,drooien,,,,,,,,,,,-0.190277778,-0.295833333,1,0,0,drooien,0,2,2,32,1
,,,,,00114,2023-12-10_21h47.09.030,vbt_B2_day4,2022.2.4,Win32,48.11161896,,,,,,,,,,,,,,,,,,,,schenden,images/br_schenden.png,images/cb_schenden.png,,schenden,,,,,,,,,,,-0.190277778,-0.295833333,1,0,0,schenden,0,3,3,57,1
,,,,,00114,2023-12-10_21h47.09.030,vbt_B2_day4,2022.2.4,Win32,48.11161896,,,,,,,,,,,,,,,,,,,,schotel,images/br_schotel.png,images/cb_schotel.png,,schotel,,,,,,,,,,,-0.190277778,-0.295833333,1,0,0,schotel,0,4,4,52,1
,,,,,00114,2023-12-10_21h47.09.030,vbt_B2_day4,2022.2.4,Win32,48.11161896,,,,,,,,,,,,,,,,,,,,seizoen,images/br_seizoen.png,images/cb_seizoen.png,,seizoen,,,,,,,,,,,-0.190277778,-0.295833333,1,0,0,seizoen,0,5,5,13,1
,,,,,00114,2023-12-10_21h47.09.030,vbt_B2_day4,2022.2.4,Win32,48.11161896,,,,,,,,,,,,,,,,,,,,aanzwaag,images/br_aanzwaag.png,images/cb_aanzwaag.png,,aanzweeg,,,,,,,,,,,-0.190277778,-0.295833333,1,0,0,aanzweeg,0,6,6,38,1
,,,,,00114,2023-12-10_21h47.09.030,vbt_B2_day4,2022.2.4,Win32,48.11161896,,,,,,,,,,,,,,,,,,,,praat,images/br_praat.png,images/cb_praat.png,,praat,,,,,,,,,,,-0.190277778,-0.295833333,1,0,0,praat,0,7,7,7,1
,,,,,00114,2023-12-10_21h47.09.030,vbt_B2_day4,2022.2.4,Win32,48.11161896,,,,,,,,,,,,,,,,,,,,heengaan,images/br_heengaan.png,images/cb_heengaan.png,,heengaan,,,,,,,,,,,-0.190277778,-0.295833333,1,0,0,heengaan,0,8,8,19,1
,,,,,00114,2023-12-10_21h47.09.030,vbt_B2_day4,2022.2.4,Win32,48.11161896,,,,,,,,,,,,,,,,,,,,fran,images/br_fran.png,images/cb_fran.png,,fran,,,,,,,,,,,-0.190277778,-0.295833333,1,0,0,fran,0,9,9,22,1
,,,,,00114,2023-12-10_21h47.09.030,vbt_B2_day4,2022.2.4,Win32,48.11161896,,,,,,,,,,,,,,,,,,,,grappen,images/br_grappen.png,images/cb_grappen.png,,grappen,,,,,,,,,,,-0.190277778,-0.295833333,1,0,0,grappen,0,10,10,12,1
,,,,,00114,2023-12-10_21h47.09.030,vbt_B2_day4,2022.2.4,Win32,48.11161896,,,,,,,,,,,,,,,,,,,,bisschap,images/br_bisschap.png,images/cb_bisschap.png,,bisschop,,,,,,,,,,,-0.190277778,-0.295833333,1,0,0,bisschop,0,11,11,36,1
,,,,,00114,2023-12-10_21h47.09.030,vbt_B2_day4,2022.2.4,Win32,48.11161896,,,,,,,,,,,,,,,,,,,,oceaan,images/br_oceaan.png,images/cb_oceaan.png,,oceaan,,,,,,,,,,,-0.190277778,-0.295833333,1,0,0,oceaan,0,12,12,10,1
,,,,,00114,2023-12-10_21h47.09.030,vbt_B2_day4,2022.2.4,Win32,48.11161896,,,,,,,,,,,,,,,,,,,,paalbaak,images/br_paalbaak.png,images/cb_paalbaak.png,,paalbaak,,,,,,,,,,,-0.190277778,-0.295833333,1,0,0,paalbaak,0,13,13,39,1
,,,,,00114,2023-12-10_21h47.09.030,vbt_B2_day4,2022.2.4,Win32,48.11161896,,,,,,,,,,,,,,,,,,,,snee,images/br_snee.png,images/cb_snee.png,,snee,,,,,,,,,,,-0.190277778,-0.295833333,1,0,0,snee,0,14,14,40,1
,,,,,00114,2023-12-10_21h47.09.030,vbt_B2_day4,2022.2.4,Win32,48.11161896,,,,,,,,,,,,,,,,,,,,getucht,images/br_getucht.png,images/cb_getucht.png,,getucht,,,,,,,,,,,-0.190277778,-0.295833333,1,0,0,getucht,0,15,15,35,1
,,,,,00114,2023-12-10_21h47.09.030,vbt_B2_day4,2022.2.4,Win32,48.11161896,,,,,,,,,,,,,,,,,,,,ezel,images/br_ezel.png,images/cb_ezel.png,,ezel,,,,,,,,,,,-0.190277778,-0.295833333,1,0,0,ezel,0,16,16,42,1
,,,,,00114,2023-12-10_21h47.09.030,vbt_B2_day4,2022.2.4,Win32,48.11161896,,,,,,,,,,,,,,,,,,,,gedicht,images/br_gedicht.png,images/cb_gedicht.png,,gedicht,,,,,,,,,,,-0.190277778,-0.295833333,1,0,0,gedicht,0,17,17,15,1
,,,,,00114,2023-12-10_21h47.09.030,vbt_B2_day4,2022.2.4,Win32,48.11161896,,,,,,,,,,,,,,,,,,,,kust,images/br_kust.png,images/cb_kust.png,,kust,,,,,,,,,,,-0.190277778,-0.295833333,1,0,0,kust,0,18,18,0,1
,,,,,00114,2023-12-10_21h47.09.030,vbt_B2_day4,2022.2.4,Win32,48.11161896,,,,,,,,,,,,,,,,,,,,vreten,images/br_vreten.png,images/cb_vreten.png,,vreten,,,,,,,,,,,-0.190277778,-0.295833333,1,0,0,vreten,0,19,19,11,1
,,,,,00114,2023-12-10_21h47.09.030,vbt_B2_day4,2022.2.4,Win32,48.11161896,,,,,,,,,,,,,,,,,,,,haza,images/br_haza.png,images/cb_haza.png,,hana,,,,,,,,,,,-0.190277778,-0.295833333,1,0,0,hana,0,20,20,21,1
,,,,,00114,2023-12-10_21h47.09.030,vbt_B2_day4,2022.2.4,Win32,48.11161896,,,,,,,,,,,,,,,,,,,,lappen,images/br_lappen.png,images/cb_lappen.png,,lappen,,,,,,,,,,,-0.190277778,-0.295833333,1,0,0,lappen,0,21,21,49,1
,,,,,00114,2023-12-10_21h47.09.030,vbt_B2_day4,2022.2.4,Win32,48.11161896,,,,,,,,,,,,,,,,,,,,pittig,images/br_pittig.png,images/cb_pittig.png,,pittig,,,,,,,,,,,-0.190277778,-0.295833333,1,0,0,pittig,0,22,22,51,1
,,,,,00114,2023-12-10_21h47.09.030,vbt_B2_day4,2022.2.4,Win32,48.11161896,,,,,,,,,,,,,,,,,,,,stemming,images/br_stemming.png,images/cb_stemming.png,,stemming,,,,,,,,,,,-0.190277778,-0.295833333,1,0,0,stemming,0,23,23,18,1
,,,,,00114,2023-12-10_21h47.09.030,vbt_B2_day4,2022.2.4,Win32,48.11161896,,,,,,,,,,,,,,,,,,,,seizoon,images/br_seizoon.png,images/cb_seizoon.png,,seizoon,,,,,,,,,,,-0.190277778,-0.295833333,1,0,0,seizoon,0,24,24,33,1
,,,,,00114,2023-12-10_21h47.09.030,vbt_B2_day4,2022.2.4,Win32,48.11161896,,,,,,,,,,,,,,,,,,,,gebog,images/br_gebog.png,images/cb_gebog.png,,gebog,,,,,,,,,,,-0.190277778,-0.295833333,1,0,0,gebog,0,25,25,24,1
,,,,,00114,2023-12-10_21h47.09.030,vbt_B2_day4,2022.2.4,Win32,48.11161896,,,,,,,,,,,,,,,,,,,,rijp,images/br_rijp.png,images/cb_rijp.png,,rijp,,,,,,,,,,,-0.190277778,-0.295833333,1,0,0,rijp,0,26,26,2,1
,,,,,00114,2023-12-10_21h47.09.030,vbt_B2_day4,2022.2.4,Win32,48.11161896,,,,,,,,,,,,,,,,,,,,sulbon,images/br_sulbon.png,images/cb_sulbon.png,,sulban,,,,,,,,,,,-0.190277778,-0.295833333,1,0,0,sulban,0,27,27,31,1
,,,,,00114,2023-12-10_21h47.09.030,vbt_B2_day4,2022.2.4,Win32,48.11161896,,,,,,,,,,,,,,,,,,,,baron,images/br_baron.png,images/cb_baron.png,,baron,,,,,,,,,,,-0.190277778,-0.295833333,1,0,0,baron,0,28,28,5,1
,,,,,00114,2023-12-10_21h47.09.030,vbt_B2_day4,2022.2.4,Win32,48.11161896,,,,,,,,,,,,,,,,,,,,flippen,images/br_flippen.png,images/cb_flippen.png,,flippen,,,,,,,,,,,-0.190277778,-0.295833333,1,0,0,flippen,0,29,29,54,1
,,,,,00114,2023-12-10_21h47.09.030,vbt_B2_day4,2022.2.4,Win32,48.11161896,,,,,,,,,,,,,,,,,,,,gijf,images/br_gijf.png,images/cb_gijf.png,,gijf,,,,,,,,,,,-0.190277778,-0.295833333,1,0,0,gijf,0,30,30,23,1
,,,,,00114,2023-12-10_21h47.09.030,vbt_B2_day4,2022.2.4,Win32,48.11161896,,,,,,,,,,,,,,,,,,,,opkicht,images/br_opkicht.png,images/cb_opkicht.png,,opkicht,,,,,,,,,,,-0.190277778,-0.295833333,1,0,0,opkicht,0,31,31,34,1
,,,,,00114,2023-12-10_21h47.09.030,vbt_B2_day4,2022.2.4,Win32,48.11161896,,,,,,,,,,,,,,,,,,,,dozijn,images/br_dozijn.png,images/cb_dozijn.png,,odzijn,,,,,,,,,,,-0.190277778,-0.295833333,1,0,0,odzijn,0,32,32,48,1
,,,,,00114,2023-12-10_21h47.09.030,vbt_B2_day4,2022.2.4,Win32,48.11161896,,,,,,,,,,,,,,,,,,,,drummer,images/br_drummer.png,images/cb_drummer.png,,orummer,,,,,,,,,,,-0.190277778,-0.295833333,1,0,0,orummer,0,33,33,53,1
,,,,,00114,2023-12-10_21h47.09.030,vbt_B2_day4,2022.2.4,Win32,48.11161896,,,,,,,,,,,,,,,,,,,,kaal,images/br_kaal.png,images/cb_kaal.png,,kaal,,,,,,,,,,,-0.190277778,-0.295833333,1,0,0,kaal,0,34,34,1,1
,,,,,00114,2023-12-10_21h47.09.030,vbt_B2_day4,2022.2.4,Win32,48.11161896,,,,,,,,,,,,,,,,,,,,mekst,images/br_mekst.png,images/cb_mekst.png,,mekst,,,,,,,,,,,-0.190277778,-0.295833333,1,0,0,mekst,0,35,35,27,1
,,,,,00114,2023-12-10_21h47.09.030,vbt_B2_day4,2022.2.4,Win32,48.11161896,,,,,,,,,,,,,,,,,,,,gaan,images/br_gaan.png,images/cb_gaan.png,,gaan,,,,,,,,,,,-0.190277778,-0.295833333,1,0,0,gaan,0,36,36,41,1
,,,,,00114,2023-12-10_21h47.09.030,vbt_B2_day4,2022.2.4,Win32,48.11161896,,,,,,,,,,,,,,,,,,,,bruin,images/br_bruin.png,images/cb_bruin.png,,bruin,,,,,,,,,,,-0.190277778,-0.295833333,1,0,0,bruin,0,37,37,45,1
,,,,,00114,2023-12-10_21h47.09.030,vbt_B2_day4,2022.2.4,Win32,48.11161896,,,,,,,,,,,,,,,,,,,,strok,images/br_strok.png,images/cb_strok.png,,strok,,,,,,,,,,,-0.190277778,-0.295833333,1,0,0,strok,0,38,38,25,1
,,,,,00114,2023-12-10_21h47.09.030,vbt_B2_day4,2022.2.4,Win32,48.11161896,,,,,,,,,,,,,,,,,,,,midden,images/br_midden.png,images/cb_midden.png,,midden,,,,,,,,,,,-0.190277778,-0.295833333,1,0,0,midden,0,39,39,50,1
,,,,,00114,2023-12-10_21h47.09.030,vbt_B2_day4,2022.2.4,Win32,48.11161896,,,,,,,,,,,,,,,,,,,,weigeren,images/br_weigeren.png,images/cb_weigeren.png,,weigeren,,,,,,,,,,,-0.190277778,-0.295833333,1,0,0,weigeren,0,40,40,16,1
,,,,,00114,2023-12-10_21h47.09.030,vbt_B2_day4,2022.2.4,Win32,48.11161896,,,,,,,,,,,,,,,,,,,,wozing,images/br_wozing.png,images/cb_wozing.png,,wozing,,,,,,,,,,,-0.190277778,-0.295833333,1,0,0,wozing,0,41,41,28,1
,,,,,00114,2023-12-10_21h47.09.030,vbt_B2_day4,2022.2.4,Win32,48.11161896,,,,,,,,,,,,,,,,,,,,wagon,images/br_wagon.png,images/cb_wagon.png,,wagon,,,,,,,,,,,-0.190277778,-0.295833333,1,0,0,wagon,0,42,42,4,1
,,,,,00114,2023-12-10_21h47.09.030,vbt_B2_day4,2022.2.4,Win32,48.11161896,,,,,,,,,,,,,,,,,,,,noodzaak,images/br_noodzaak.png,images/cb_noodzaak.png,,noodzaak,,,,,,,,,,,-0.190277778,-0.295833333,1,0,0,noodzaak,0,43,43,56,1
,,,,,00114,2023-12-10_21h47.09.030,vbt_B2_day4,2022.2.4,Win32,48.11161896,,,,,,,,,,,,,,,,,,,,gebit,images/br_gebit.png,images/cb_gebit.png,,gebit,,,,,,,,,,,-0.190277778,-0.295833333,1,0,0,gebit,0,44,44,6,1
,,,,,00114,2023-12-10_21h47.09.030,vbt_B2_day4,2022.2.4,Win32,48.11161896,,,,,,,,,,,,,,,,,,,,pijnlijk,images/br_pijnlijk.png,images/cb_pijnlijk.png,,pijnlijk,,,,,,,,,,,-0.190277778,-0.295833333,1,0,0,pijnlijk,0,45,45,58,1
,,,,,00114,2023-12-10_21h47.09.030,vbt_B2_day4,2022.2.4,Win32,48.11161896,,,,,,,,,,,,,,,,,,,,waarop,images/br_waarop.png,images/cb_waarop.png,,waarop,,,,,,,,,,,-0.190277778,-0.295833333,1,0,0,waarop,0,46,46,9,1
,,,,,00114,2023-12-10_21h47.09.030,vbt_B2_day4,2022.2.4,Win32,48.11161896,,,,,,,,,,,,,,,,,,,,toevol,images/br_toevol.png,images/cb_toevol.png,,toeval,,,,,,,,,,,-0.190277778,-0.295833333,1,0,0,toeval,0,47,47,29,1
,,,,,00114,2023-12-10_21h47.09.030,vbt_B2_day4,2022.2.4,Win32,48.11161896,,,,,,,,,,,,,,,,,,,,steen,images/br_steen.png,images/cb_steen.png,,steen,,,,,,,,,,,-0.185416667,-0.25625,1,0,0,steen,0,48,48,44,1
,,,,,00114,2023-12-10_21h47.09.030,vbt_B2_day4,2022.2.4,Win32,48.11161896,,,,,,,,,,,,,,,,,,,,geliefd,images/br_geliefd.png,images/cb_geliefd.png,,geliefd,,,,,,,,,,,-0.184722222,-0.25625,1,0,0,geliefd,0,49,49,14,1
,,,,,00114,2023-12-10_21h47.09.030,vbt_B2_day4,2022.2.4,Win32,48.11161896,,,,,,,,,,,,,,,,,,,,dalen,images/br_dalen.png,images/cb_dalen.png,,dalen,,,,,,,,,,,-0.184722222,-0.25625,1,0,0,dalen,0,50,50,46,1
,,,,,00114,2023-12-10_21h47.09.030,vbt_B2_day4,2022.2.4,Win32,48.11161896,,,,,,,,,,,,,,,,,,,,zaalrijk,images/br_zaalrijk.png,images/cb_zaalrijk.png,,zaalrijk,,,,,,,,,,,-0.184722222,-0.25625,1,0,0,zaalrijk,0,51,51,37,1
,,,,,00114,2023-12-10_21h47.09.030,vbt_B2_day4,2022.2.4,Win32,48.11161896,,,,,,,,,,,,,,,,,,,,zwek,images/br_zwek.png,images/cb_zwek.png,,zwak,,,,,,,,,,,-0.184722222,-0.25625,1,0,0,zwak,0,52,52,20,1
,,,,,00114,2023-12-10_21h47.09.030,vbt_B2_day4,2022.2.4,Win32,48.11161896,,,,,,,,,,,,,,,,,,,,apparaat,images/br_apparaat.png,images/cb_apparaat.png,,apparaat,,,,,,,,,,,-0.184722222,-0.25625,1,0,0,apparaat,0,53,53,17,1
,,,,,00114,2023-12-10_21h47.09.030,vbt_B2_day4,2022.2.4,Win32,48.11161896,,,,,,,,,,,,,,,,,,,,soda,images/br_soda.png,images/cb_soda.png,,soda,,,,,,,,,,,-0.184722222,-0.25625,1,0,0,soda,0,54,54,3,1
,,,,,00114,2023-12-10_21h47.09.030,vbt_B2_day4,2022.2.4,Win32,48.11161896,,,,,,,,,,,,,,,,,,,,opruimen,images/br_opruimen.png,images/cb_opruimen.png,,opruimen,,,,,,,,,,,-0.184722222,-0.25625,1,0,0,opruimen,0,55,55,59,1
,,,,,00114,2023-12-10_21h47.09.030,vbt_B2_day4,2022.2.4,Win32,48.11161896,,,,,,,,,,,,,,,,,,,,warel,images/br_warel.png,images/cb_warel.png,,warel,,,,,,,,,,,-0.184722222,-0.25625,1,0,0,warel,0,56,56,26,1
,,,,,00114,2023-12-10_21h47.09.030,vbt_B2_day4,2022.2.4,Win32,48.11161896,,,,,,,,,,,,,,,,,,,,broodje,images/br_broodje.png,images/cb_broodje.png,,broodje,,,,,,,,,,,-0.184722222,-0.25625,1,0,0,broodje,0,57,57,55,1
,,,,,00114,2023-12-10_21h47.09.030,vbt_B2_day4,2022.2.4,Win32,48.11161896,,,,,,,,,,,,,,,,,,,,tucket,images/br_tucket.png,images/cb_tucket.png,,tucket,,,,,,,,,,,-0.184722222,-0.25625,1,0,0,tucket,0,58,58,30,1
,,,,,00114,2023-12-10_21h47.09.030,vbt_B2_day4,2022.2.4,Win32,48.11161896,,,,,,,,,,,,,,,,,,,,gaaf,images/br_gaaf.png,images/cb_gaaf.png,,gaaf,,,,,,,,,,,-0.184722222,-0.25625,1,0,0,gaaf,0,59,59,43,1
,,,,,00114,2023-12-10_21h47.09.030,vbt_B2_day4,2022.2.4,Win32,48.11161896,,,,,,,,,,,,,,,,,,,,,,,,,,,,,,,,,,,,,,,,,,,,,
