welcome_mouse.x,welcome_mouse.y,welcome_mouse.leftButton,welcome_mouse.midButton,welcome_mouse.rightButton,"ID",date,expName,psychopyVersion,OS,frameRate,trainInstr_mouse.x,trainInstr_mouse.y,trainInstr_mouse.leftButton,trainInstr_mouse.midButton,trainInstr_mouse.rightButton,translation_key.keys,translation_key.corr,translation_key.rt,testResp,word_rsp.text,trWrd_mouse.x,trWrd_mouse.y,trWrd_mouse.leftButton,trWrd_mouse.midButton,trWrd_mouse.rightButton,train_loop.thisRepN,train_loop.thisTrialN,train_loop.thisN,train_loop.thisIndex,train_loop.ran,nlWrd,brWrd,cbWrd,test,mouse.x,mouse.y,mouse.leftButton,mouse.midButton,mouse.rightButton,testInstr_mouse.x,testInstr_mouse.y,testInstr_mouse.leftButton,testInstr_mouse.midButton,testInstr_mouse.rightButton,test_mouse.x,test_mouse.y,test_mouse.leftButton,test_mouse.midButton,test_mouse.rightButton,test_response.text,test_loop.thisRepN,test_loop.thisTrialN,test_loop.thisN,test_loop.thisIndex,test_loop.ran
-0.2,-0.266666667,1,0,0,00036,2023-09-29_20h06.09.758,vbt_B2_day4,2022.2.4,Win32,60.54001695,,,,,,,,,,,,,,,,,,,,,,,,,,,,,,,,,,,,,,,,,,,,,
,,,,,00036,2023-09-29_20h06.09.758,vbt_B2_day4,2022.2.4,Win32,60.54001695,-0.2,-0.266666667,1,0,0,,,,,,,,,,,,,,,,,,,,,,,,,,,,,,,,,,,,,,,,
,,,,,00036,2023-09-29_20h06.09.758,vbt_B2_day4,2022.2.4,Win32,60.54001695,,,,,,down,0,3.5129,da,,0.508333333,-0.05,1,0,0,0,0,0,27,1,dans,images/br_dans.png,images/cb_dans.png,1,,,,,,,,,,,,,,,,,,,,,
,,,,,00036,2023-09-29_20h06.09.758,vbt_B2_day4,2022.2.4,Win32,60.54001695,,,,,,down,0,18.7029,,,0.009259288,-0.000925954,1,0,0,0,1,1,191,1,opheffen,images/br_opheffen.png,images/cb_opheffen.png,0,,,,,,,,,,,,,,,,,,,,,
,,,,,00036,2023-09-29_20h06.09.758,vbt_B2_day4,2022.2.4,Win32,60.54001695,,,,,,down,0,1.4174,,,0.009259288,-0.000925954,1,0,0,0,2,2,153,1,vervoer,images/br_vervoer.png,images/cb_vervoer.png,0,,,,,,,,,,,,,,,,,,,,,
,,,,,00036,2023-09-29_20h06.09.758,vbt_B2_day4,2022.2.4,Win32,60.54001695,,,,,,down,0,3.8332,,,0.138888889,0.037962935,1,0,0,0,3,3,53,1,baron,images/br_baron.png,images/cb_baron.png,0,,,,,,,,,,,,,,,,,,,,,
,,,,,00036,2023-09-29_20h06.09.758,vbt_B2_day4,2022.2.4,Win32,60.54001695,,,,,,down,0,3.3157,lever,,0.157407464,0.061111111,1,0,0,0,4,4,66,1,lever,images/br_lever.png,images/cb_lever.png,1,,,,,,,,,,,,,,,,,,,,,
,,,,,00036,2023-09-29_20h06.09.758,vbt_B2_day4,2022.2.4,Win32,60.54001695,,,,,,down,0,1.5361,,,0.157407464,0.061111111,1,0,0,0,5,5,195,1,middelen,images/br_middelen.png,images/cb_middelen.png,0,,,,,,,,,,,,,,,,,,,,,
,,,,,00036,2023-09-29_20h06.09.758,vbt_B2_day4,2022.2.4,Win32,60.54001695,,,,,,down,0,0.4538,,,0.157407464,0.061111111,1,0,0,0,6,6,158,1,innemen,images/br_innemen.png,images/cb_innemen.png,0,,,,,,,,,,,,,,,,,,,,,
,,,,,00036,2023-09-29_20h06.09.758,vbt_B2_day4,2022.2.4,Win32,60.54001695,,,,,,down,0,4.6674,,,0.157407464,0.061111111,1,0,0,0,7,7,130,1,keihard,images/br_keihard.png,images/cb_keihard.png,0,,,,,,,,,,,,,,,,,,,,,
,,,,,00036,2023-09-29_20h06.09.758,vbt_B2_day4,2022.2.4,Win32,60.54001695,,,,,,down,0,0.0065,,,0.157407464,0.061111111,1,0,0,0,8,8,40,1,schep,images/br_schep.png,images/cb_schep.png,0,,,,,,,,,,,,,,,,,,,,,
,,,,,00036,2023-09-29_20h06.09.758,vbt_B2_day4,2022.2.4,Win32,60.54001695,,,,,,down,0,2.8837,,,0.157407464,0.061111111,1,0,0,0,9,9,84,1,lokken,images/br_lokken.png,images/cb_lokken.png,0,,,,,,,,,,,,,,,,,,,,,
,,,,,00036,2023-09-29_20h06.09.758,vbt_B2_day4,2022.2.4,Win32,60.54001695,,,,,,down,0,3.1666,,,0.157407464,0.061111111,1,0,0,0,10,10,137,1,trekker,images/br_trekker.png,images/cb_trekker.png,0,,,,,,,,,,,,,,,,,,,,,
,,,,,00036,2023-09-29_20h06.09.758,vbt_B2_day4,2022.2.4,Win32,60.54001695,,,,,,down,0,0.9567,,,0.157407464,0.061111111,1,0,0,0,11,11,34,1,vorm,images/br_vorm.png,images/cb_vorm.png,0,,,,,,,,,,,,,,,,,,,,,
,,,,,00036,2023-09-29_20h06.09.758,vbt_B2_day4,2022.2.4,Win32,60.54001695,,,,,,down,0,0.7548,,,0.157407464,0.061111111,1,0,0,0,12,12,91,1,gezond,images/br_gezond.png,images/cb_gezond.png,0,,,,,,,,,,,,,,,,,,,,,
,,,,,00036,2023-09-29_20h06.09.758,vbt_B2_day4,2022.2.4,Win32,60.54001695,,,,,,down,0,0.0301,,,0.157407464,0.061111111,1,0,0,0,13,13,126,1,kasteel,images/br_kasteel.png,images/cb_kasteel.png,0,,,,,,,,,,,,,,,,,,,,,
,,,,,00036,2023-09-29_20h06.09.758,vbt_B2_day4,2022.2.4,Win32,60.54001695,,,,,,down,0,0.037,,,0.157407464,0.061111111,1,0,0,0,14,14,9,1,hier,images/br_hier.png,images/cb_hier.png,0,,,,,,,,,,,,,,,,,,,,,
,,,,,00036,2023-09-29_20h06.09.758,vbt_B2_day4,2022.2.4,Win32,60.54001695,,,,,,down,0,0.0888,,,0.157407464,0.061111111,1,0,0,0,15,15,87,1,toeval,images/br_toeval.png,images/cb_toeval.png,0,,,,,,,,,,,,,,,,,,,,,
,,,,,00036,2023-09-29_20h06.09.758,vbt_B2_day4,2022.2.4,Win32,60.54001695,,,,,,down,0,0.0425,,,0.157407464,0.061111111,1,0,0,0,16,16,141,1,knielen,images/br_knielen.png,images/cb_knielen.png,0,,,,,,,,,,,,,,,,,,,,,
,,,,,00036,2023-09-29_20h06.09.758,vbt_B2_day4,2022.2.4,Win32,60.54001695,,,,,,down,0,0.2672,,,0.157407464,0.061111111,1,0,0,0,17,17,8,1,knie,images/br_knie.png,images/cb_knie.png,0,,,,,,,,,,,,,,,,,,,,,
,,,,,00036,2023-09-29_20h06.09.758,vbt_B2_day4,2022.2.4,Win32,60.54001695,,,,,,down,0,0.0511,,,0.157407464,0.061111111,1,0,0,0,18,18,129,1,verhaal,images/br_verhaal.png,images/cb_verhaal.png,0,,,,,,,,,,,,,,,,,,,,,
,,,,,00036,2023-09-29_20h06.09.758,vbt_B2_day4,2022.2.4,Win32,60.54001695,,,,,,down,0,0.4757,,,0.157407464,0.061111111,1,0,0,0,19,19,167,1,eenhoorn,images/br_eenhoorn.png,images/cb_eenhoorn.png,0,,,,,,,,,,,,,,,,,,,,,
,,,,,00036,2023-09-29_20h06.09.758,vbt_B2_day4,2022.2.4,Win32,60.54001695,,,,,,down,0,7.1326,,,0.157407464,0.061111111,1,0,0,0,20,20,3,1,mand,images/br_mand.png,images/cb_mand.png,0,,,,,,,,,,,,,,,,,,,,,
,,,,,00036,2023-09-29_20h06.09.758,vbt_B2_day4,2022.2.4,Win32,60.54001695,,,,,,down,0,0.0808,,,0.157407464,0.061111111,1,0,0,0,21,21,52,1,wagon,images/br_wagon.png,images/cb_wagon.png,0,,,,,,,,,,,,,,,,,,,,,
,,,,,00036,2023-09-29_20h06.09.758,vbt_B2_day4,2022.2.4,Win32,60.54001695,,,,,,down,0,0.6971,,,0.157407464,0.061111111,1,0,0,0,22,22,155,1,gerucht,images/br_gerucht.png,images/cb_gerucht.png,0,,,,,,,,,,,,,,,,,,,,,
,,,,,00036,2023-09-29_20h06.09.758,vbt_B2_day4,2022.2.4,Win32,60.54001695,,,,,,down,0,21.8232,,,0.157407464,0.061111111,1,0,0,0,23,23,85,1,heilig,images/br_heilig.png,images/cb_heilig.png,0,,,,,,,,,,,,,,,,,,,,,
,,,,,00036,2023-09-29_20h06.09.758,vbt_B2_day4,2022.2.4,Win32,60.54001695,,,,,,down,0,0.4625,,,0.163888889,0.064814801,1,0,0,0,24,24,169,1,oprotten,images/br_oprotten.png,images/cb_oprotten.png,0,,,,,,,,,,,,,,,,,,,,,
,,,,,00036,2023-09-29_20h06.09.758,vbt_B2_day4,2022.2.4,Win32,60.54001695,,,,,,down,0,1.2704,,,0.163888889,0.064814801,1,0,0,0,25,25,94,1,oceaan,images/br_oceaan.png,images/cb_oceaan.png,0,,,,,,,,,,,,,,,,,,,,,
,,,,,00036,2023-09-29_20h06.09.758,vbt_B2_day4,2022.2.4,Win32,60.54001695,,,,,,down,0,2.5466,,,0.163888889,0.064814801,1,0,0,0,26,26,132,1,grappen,images/br_grappen.png,images/cb_grappen.png,0,,,,,,,,,,,,,,,,,,,,,
,,,,,00036,2023-09-29_20h06.09.758,vbt_B2_day4,2022.2.4,Win32,60.54001695,,,,,,down,0,8.3124,,,0.163888889,0.064814801,1,0,0,0,27,27,19,1,geit,images/br_geit.png,images/cb_geit.png,0,,,,,,,,,,,,,,,,,,,,,
,,,,,00036,2023-09-29_20h06.09.758,vbt_B2_day4,2022.2.4,Win32,60.54001695,,,,,,down,0,0.8491,,,0.163888889,0.064814801,1,0,0,0,28,28,115,1,kleren,images/br_kleren.png,images/cb_kleren.png,0,,,,,,,,,,,,,,,,,,,,,
,,,,,00036,2023-09-29_20h06.09.758,vbt_B2_day4,2022.2.4,Win32,60.54001695,,,,,,down,0,0.2066,,,0.163888889,0.064814801,1,0,0,0,29,29,63,1,flirt,images/br_flirt.png,images/cb_flirt.png,0,,,,,,,,,,,,,,,,,,,,,
,,,,,00036,2023-09-29_20h06.09.758,vbt_B2_day4,2022.2.4,Win32,60.54001695,,,,,,down,0,0.3496,,,0.163888889,0.064814801,1,0,0,0,30,30,59,1,kring,images/br_kring.png,images/cb_kring.png,0,,,,,,,,,,,,,,,,,,,,,
,,,,,00036,2023-09-29_20h06.09.758,vbt_B2_day4,2022.2.4,Win32,60.54001695,,,,,,down,0,0.2578,,,0.163888889,0.064814801,1,0,0,0,31,31,68,1,schat,images/br_schat.png,images/cb_schat.png,0,,,,,,,,,,,,,,,,,,,,,
,,,,,00036,2023-09-29_20h06.09.758,vbt_B2_day4,2022.2.4,Win32,60.54001695,,,,,,down,0,0.25,,,0.163888889,0.064814801,1,0,0,0,32,32,69,1,waken,images/br_waken.png,images/cb_waken.png,0,,,,,,,,,,,,,,,,,,,,,
,,,,,00036,2023-09-29_20h06.09.758,vbt_B2_day4,2022.2.4,Win32,60.54001695,,,,,,down,0,20.8485,mijnfeer,,0.163888889,0.064814801,1,0,0,0,33,33,185,1,mijnheer,images/br_mijnheer.png,images/cb_mijnheer.png,1,,,,,,,,,,,,,,,,,,,,,
,,,,,00036,2023-09-29_20h06.09.758,vbt_B2_day4,2022.2.4,Win32,60.54001695,,,,,,down,0,11.143,snart,,0.163888889,0.064814801,1,0,0,0,34,34,67,1,zwart,images/br_zwart.png,images/cb_zwart.png,1,,,,,,,,,,,,,,,,,,,,,
,,,,,00036,2023-09-29_20h06.09.758,vbt_B2_day4,2022.2.4,Win32,60.54001695,,,,,,down,0,4.1672,eetlust,,0.161111111,0.075925912,1,0,0,0,35,35,144,1,eetlust,images/br_eetlust.png,images/cb_eetlust.png,1,,,,,,,,,,,,,,,,,,,,,
,,,,,00036,2023-09-29_20h06.09.758,vbt_B2_day4,2022.2.4,Win32,60.54001695,,,,,,down,0,0.3438,,,0.161111111,0.075925912,1,0,0,0,36,36,56,1,traag,images/br_traag.png,images/cb_traag.png,0,,,,,,,,,,,,,,,,,,,,,
,,,,,00036,2023-09-29_20h06.09.758,vbt_B2_day4,2022.2.4,Win32,60.54001695,,,,,,down,0,1.2664,,,0.161111111,0.075925912,1,0,0,0,37,37,72,1,strak,images/br_strak.png,images/cb_strak.png,0,,,,,,,,,,,,,,,,,,,,,
,,,,,00036,2023-09-29_20h06.09.758,vbt_B2_day4,2022.2.4,Win32,60.54001695,,,,,,down,0,0.4499,,,0.161111111,0.075925912,1,0,0,0,38,38,152,1,afnemen,images/br_afnemen.png,images/cb_afnemen.png,0,,,,,,,,,,,,,,,,,,,,,
,,,,,00036,2023-09-29_20h06.09.758,vbt_B2_day4,2022.2.4,Win32,60.54001695,,,,,,down,0,0.2961,,,0.161111111,0.075925912,1,0,0,0,39,39,36,1,vuur,images/br_vuur.png,images/cb_vuur.png,0,,,,,,,,,,,,,,,,,,,,,
,,,,,00036,2023-09-29_20h06.09.758,vbt_B2_day4,2022.2.4,Win32,60.54001695,,,,,,down,0,0.6031,,,0.18148151,0.096296268,1,0,0,0,40,40,190,1,goedkoop,images/br_goedkoop.png,images/cb_goedkoop.png,0,,,,,,,,,,,,,,,,,,,,,
,,,,,00036,2023-09-29_20h06.09.758,vbt_B2_day4,2022.2.4,Win32,60.54001695,,,,,,down,0,0.3734,,,0.18148151,0.096296268,1,0,0,0,41,41,16,1,ziek,images/br_ziek.png,images/cb_ziek.png,0,,,,,,,,,,,,,,,,,,,,,
,,,,,00036,2023-09-29_20h06.09.758,vbt_B2_day4,2022.2.4,Win32,60.54001695,,,,,,down,0,0.4374,,,0.18148151,0.096296268,1,0,0,0,42,42,198,1,bedoelen,images/br_bedoelen.png,images/cb_bedoelen.png,0,,,,,,,,,,,,,,,,,,,,,
,,,,,00036,2023-09-29_20h06.09.758,vbt_B2_day4,2022.2.4,Win32,60.54001695,,,,,,down,0,3.3372,plek,,0.18148151,0.096296268,1,0,0,0,43,43,25,1,plek,images/br_plek.png,images/cb_plek.png,1,,,,,,,,,,,,,,,,,,,,,
,,,,,00036,2023-09-29_20h06.09.758,vbt_B2_day4,2022.2.4,Win32,60.54001695,,,,,,down,0,1.5136,,,0.18148151,0.096296268,1,0,0,0,44,44,2,1,jaar,images/br_jaar.png,images/cb_jaar.png,0,,,,,,,,,,,,,,,,,,,,,
,,,,,00036,2023-09-29_20h06.09.758,vbt_B2_day4,2022.2.4,Win32,60.54001695,,,,,,down,0,0.2678,,,0.18148151,0.096296268,1,0,0,0,45,45,109,1,totaal,images/br_totaal.png,images/cb_totaal.png,0,,,,,,,,,,,,,,,,,,,,,
,,,,,00036,2023-09-29_20h06.09.758,vbt_B2_day4,2022.2.4,Win32,60.54001695,,,,,,down,0,1.6043,,,0.18148151,0.096296268,1,0,0,0,46,46,38,1,baai,images/br_baai.png,images/cb_baai.png,0,,,,,,,,,,,,,,,,,,,,,
,,,,,00036,2023-09-29_20h06.09.758,vbt_B2_day4,2022.2.4,Win32,60.54001695,,,,,,down,0,0.5664,,,0.18148151,0.096296268,1,0,0,0,47,47,118,1,vinger,images/br_vinger.png,images/cb_vinger.png,0,,,,,,,,,,,,,,,,,,,,,
,,,,,00036,2023-09-29_20h06.09.758,vbt_B2_day4,2022.2.4,Win32,60.54001695,,,,,,down,0,1.0527,,,0.18148151,0.096296268,1,0,0,0,48,48,134,1,geliefd,images/br_geliefd.png,images/cb_geliefd.png,0,,,,,,,,,,,,,,,,,,,,,
,,,,,00036,2023-09-29_20h06.09.758,vbt_B2_day4,2022.2.4,Win32,60.54001695,,,,,,down,0,2.6537,,,0.18148151,0.096296268,1,0,0,0,49,49,71,1,bever,images/br_bever.png,images/cb_bever.png,0,,,,,,,,,,,,,,,,,,,,,
,,,,,00036,2023-09-29_20h06.09.758,vbt_B2_day4,2022.2.4,Win32,60.54001695,,,,,,down,0,1.9162,,,0.18148151,0.096296268,1,0,0,0,50,50,44,1,flits,images/br_flits.png,images/cb_flits.png,0,,,,,,,,,,,,,,,,,,,,,
,,,,,00036,2023-09-29_20h06.09.758,vbt_B2_day4,2022.2.4,Win32,60.54001695,,,,,,down,0,1.095,,,0.18148151,0.096296268,1,0,0,0,51,51,65,1,parel,images/br_parel.png,images/cb_parel.png,1,,,,,,,,,,,,,,,,,,,,,
,,,,,00036,2023-09-29_20h06.09.758,vbt_B2_day4,2022.2.4,Win32,60.54001695,,,,,,down,0,0.3505,,,0.18148151,0.096296268,1,0,0,0,52,52,168,1,bisschop,images/br_bisschop.png,images/cb_bisschop.png,0,,,,,,,,,,,,,,,,,,,,,
,,,,,00036,2023-09-29_20h06.09.758,vbt_B2_day4,2022.2.4,Win32,60.54001695,,,,,,down,0,0.7672,,,0.18148151,0.096296268,1,0,0,0,53,53,183,1,getuigen,images/br_getuigen.png,images/cb_getuigen.png,0,,,,,,,,,,,,,,,,,,,,,
,,,,,00036,2023-09-29_20h06.09.758,vbt_B2_day4,2022.2.4,Win32,60.54001695,,,,,,down,0,0.4052,,,0.18148151,0.096296268,1,0,0,0,54,54,112,1,lukken,images/br_lukken.png,images/cb_lukken.png,0,,,,,,,,,,,,,,,,,,,,,
,,,,,00036,2023-09-29_20h06.09.758,vbt_B2_day4,2022.2.4,Win32,60.54001695,,,,,,down,0,10.3379,,,0.18148151,0.096296268,1,0,0,0,55,55,100,1,geduld,images/br_geduld.png,images/cb_geduld.png,0,,,,,,,,,,,,,,,,,,,,,
,,,,,00036,2023-09-29_20h06.09.758,vbt_B2_day4,2022.2.4,Win32,60.54001695,,,,,,down,0,3.2821,,,0.18148151,0.096296268,1,0,0,0,56,56,189,1,aanraden,images/br_aanraden.png,images/cb_aanraden.png,0,,,,,,,,,,,,,,,,,,,,,
,,,,,00036,2023-09-29_20h06.09.758,vbt_B2_day4,2022.2.4,Win32,60.54001695,,,,,,down,0,5.1381,singel,,0.18148151,0.096296268,1,0,0,0,57,57,106,1,zingen,images/br_zingen.png,images/cb_zingen.png,1,,,,,,,,,,,,,,,,,,,,,
,,,,,00036,2023-09-29_20h06.09.758,vbt_B2_day4,2022.2.4,Win32,60.54001695,,,,,,down,0,0.3002,,,0.18148151,0.096296268,1,0,0,0,58,58,73,1,volop,images/br_volop.png,images/cb_volop.png,0,,,,,,,,,,,,,,,,,,,,,
,,,,,00036,2023-09-29_20h06.09.758,vbt_B2_day4,2022.2.4,Win32,60.54001695,,,,,,down,0,0.5182,leuk,,0.2,0.230555556,1,0,0,0,59,59,26,1,leuk,images/br_leuk.png,images/cb_leuk.png,1,,,,,,,,,,,,,,,,,,,,,
,,,,,00036,2023-09-29_20h06.09.758,vbt_B2_day4,2022.2.4,Win32,60.54001695,,,,,,down,0,9.2227,,,0.189814843,0.247222222,1,0,0,0,60,60,95,1,vreten,images/br_vreten.png,images/cb_vreten.png,0,,,,,,,,,,,,,,,,,,,,,
,,,,,00036,2023-09-29_20h06.09.758,vbt_B2_day4,2022.2.4,Win32,60.54001695,,,,,,down,0,2.4129,wegel,,0.189814843,0.247222222,1,0,0,0,61,61,64,1,wegen,images/br_wegen.png,images/cb_wegen.png,1,,,,,,,,,,,,,,,,,,,,,
,,,,,00036,2023-09-29_20h06.09.758,vbt_B2_day4,2022.2.4,Win32,60.54001695,,,,,,down,0,0.6843,,,0.189814843,0.247222222,1,0,0,0,62,62,122,1,waarvan,images/br_waarvan.png,images/cb_waarvan.png,0,,,,,,,,,,,,,,,,,,,,,
,,,,,00036,2023-09-29_20h06.09.758,vbt_B2_day4,2022.2.4,Win32,60.54001695,,,,,,down,0,0.2825,,,0.189814843,0.247222222,1,0,0,0,63,63,54,1,gebit,images/br_gebit.png,images/cb_gebit.png,0,,,,,,,,,,,,,,,,,,,,,
,,,,,00036,2023-09-29_20h06.09.758,vbt_B2_day4,2022.2.4,Win32,60.54001695,,,,,,down,0,0.6509,,,0.189814843,0.247222222,1,0,0,0,64,64,177,1,maaltijd,images/br_maaltijd.png,images/cb_maaltijd.png,0,,,,,,,,,,,,,,,,,,,,,
,,,,,00036,2023-09-29_20h06.09.758,vbt_B2_day4,2022.2.4,Win32,60.54001695,,,,,,down,0,0.4987,,,0.189814843,0.247222222,1,0,0,0,65,65,111,1,ticket,images/br_ticket.png,images/cb_ticket.png,0,,,,,,,,,,,,,,,,,,,,,
,,,,,00036,2023-09-29_20h06.09.758,vbt_B2_day4,2022.2.4,Win32,60.54001695,,,,,,down,0,62.5148,,,0.189814843,0.247222222,1,0,0,0,66,66,98,1,kreeft,images/br_kreeft.png,images/cb_kreeft.png,0,,,,,,,,,,,,,,,,,,,,,
,,,,,00036,2023-09-29_20h06.09.758,vbt_B2_day4,2022.2.4,Win32,60.54001695,,,,,,down,0,2.5239,,,0.189814843,0.247222222,1,0,0,0,67,67,23,1,zout,images/br_zout.png,images/cb_zout.png,0,,,,,,,,,,,,,,,,,,,,,
,,,,,00036,2023-09-29_20h06.09.758,vbt_B2_day4,2022.2.4,Win32,60.54001695,,,,,,down,0,0.1502,,,0.189814843,0.247222222,1,0,0,0,68,68,180,1,openbaar,images/br_openbaar.png,images/cb_openbaar.png,0,,,,,,,,,,,,,,,,,,,,,
,,,,,00036,2023-09-29_20h06.09.758,vbt_B2_day4,2022.2.4,Win32,60.54001695,,,,,,down,0,4.5762,,,0.189814843,0.247222222,1,0,0,0,69,69,121,1,twijfel,images/br_twijfel.png,images/cb_twijfel.png,0,,,,,,,,,,,,,,,,,,,,,
,,,,,00036,2023-09-29_20h06.09.758,vbt_B2_day4,2022.2.4,Win32,60.54001695,,,,,,down,0,6.7651,,,0.189814843,0.247222222,1,0,0,0,70,70,92,1,geheim,images/br_geheim.png,images/cb_geheim.png,0,,,,,,,,,,,,,,,,,,,,,
,,,,,00036,2023-09-29_20h06.09.758,vbt_B2_day4,2022.2.4,Win32,60.54001695,,,,,,down,0,2.7914,,,0.189814843,0.247222222,1,0,0,0,71,71,39,1,laag,images/br_laag.png,images/cb_laag.png,0,,,,,,,,,,,,,,,,,,,,,
,,,,,00036,2023-09-29_20h06.09.758,vbt_B2_day4,2022.2.4,Win32,60.54001695,,,,,,down,0,0.7712,,,0.189814843,0.247222222,1,0,0,0,72,72,114,1,vullen,images/br_vullen.png,images/cb_vullen.png,0,,,,,,,,,,,,,,,,,,,,,
,,,,,00036,2023-09-29_20h06.09.758,vbt_B2_day4,2022.2.4,Win32,60.54001695,,,,,,down,0,15.4312,,,0.189814843,0.247222222,1,0,0,0,73,73,124,1,bloeien,images/br_bloeien.png,images/cb_bloeien.png,0,,,,,,,,,,,,,,,,,,,,,
,,,,,00036,2023-09-29_20h06.09.758,vbt_B2_day4,2022.2.4,Win32,60.54001695,,,,,,down,0,78.0278,,,0.189814843,0.247222222,1,0,0,0,74,74,133,1,seizoen,images/br_seizoen.png,images/cb_seizoen.png,0,,,,,,,,,,,,,,,,,,,,,
,,,,,00036,2023-09-29_20h06.09.758,vbt_B2_day4,2022.2.4,Win32,60.54001695,,,,,,down,0,5.079,,,0.189814843,0.247222222,1,0,0,0,75,75,6,1,diep,images/br_diep.png,images/cb_diep.png,0,,,,,,,,,,,,,,,,,,,,,
,,,,,00036,2023-09-29_20h06.09.758,vbt_B2_day4,2022.2.4,Win32,60.54001695,,,,,,down,0,7.0672,,,0.189814843,0.247222222,1,0,0,0,76,76,192,1,schaamte,images/br_schaamte.png,images/cb_schaamte.png,0,,,,,,,,,,,,,,,,,,,,,
,,,,,00036,2023-09-29_20h06.09.758,vbt_B2_day4,2022.2.4,Win32,60.54001695,,,,,,down,0,21.0678,,,0.189814843,0.247222222,1,0,0,0,77,77,166,1,strikken,images/br_strikken.png,images/cb_strikken.png,0,,,,,,,,,,,,,,,,,,,,,
,,,,,00036,2023-09-29_20h06.09.758,vbt_B2_day4,2022.2.4,Win32,60.54001695,,,,,,down,0,2.4286,,,0.189814843,0.247222222,1,0,0,0,78,78,163,1,schuilen,images/br_schuilen.png,images/cb_schuilen.png,0,,,,,,,,,,,,,,,,,,,,,
,,,,,00036,2023-09-29_20h06.09.758,vbt_B2_day4,2022.2.4,Win32,60.54001695,,,,,,down,0,3.2491,,,0.189814843,0.247222222,1,0,0,0,79,79,21,1,mist,images/br_mist.png,images/cb_mist.png,0,,,,,,,,,,,,,,,,,,,,,
,,,,,00036,2023-09-29_20h06.09.758,vbt_B2_day4,2022.2.4,Win32,60.54001695,,,,,,down,0,3.9803,,,0.189814843,0.247222222,1,0,0,0,80,80,182,1,bijkomen,images/br_bijkomen.png,images/cb_bijkomen.png,0,,,,,,,,,,,,,,,,,,,,,
,,,,,00036,2023-09-29_20h06.09.758,vbt_B2_day4,2022.2.4,Win32,60.54001695,,,,,,down,0,0.3499,,,0.189814843,0.247222222,1,0,0,0,81,81,188,1,strekken,images/br_strekken.png,images/cb_strekken.png,0,,,,,,,,,,,,,,,,,,,,,
,,,,,00036,2023-09-29_20h06.09.758,vbt_B2_day4,2022.2.4,Win32,60.54001695,,,,,,down,0,0.3671,,,0.189814843,0.247222222,1,0,0,0,82,82,142,1,snuiven,images/br_snuiven.png,images/cb_snuiven.png,0,,,,,,,,,,,,,,,,,,,,,
,,,,,00036,2023-09-29_20h06.09.758,vbt_B2_day4,2022.2.4,Win32,60.54001695,,,,,,down,0,1.5825,,,0.189814843,0.247222222,1,0,0,0,83,83,62,1,knaap,images/br_knaap.png,images/cb_knaap.png,0,,,,,,,,,,,,,,,,,,,,,
,,,,,00036,2023-09-29_20h06.09.758,vbt_B2_day4,2022.2.4,Win32,60.54001695,,,,,,down,0,0.2563,,,0.189814843,0.247222222,1,0,0,0,84,84,31,1,poes,images/br_poes.png,images/cb_poes.png,0,,,,,,,,,,,,,,,,,,,,,
,,,,,00036,2023-09-29_20h06.09.758,vbt_B2_day4,2022.2.4,Win32,60.54001695,,,,,,down,0,0.2515,,,0.189814843,0.247222222,1,0,0,0,85,85,49,1,laken,images/br_laken.png,images/cb_laken.png,0,,,,,,,,,,,,,,,,,,,,,
,,,,,00036,2023-09-29_20h06.09.758,vbt_B2_day4,2022.2.4,Win32,60.54001695,,,,,,down,0,0.3002,,,0.189814843,0.247222222,1,0,0,0,86,86,176,1,techniek,images/br_techniek.png,images/cb_techniek.png,0,,,,,,,,,,,,,,,,,,,,,
,,,,,00036,2023-09-29_20h06.09.758,vbt_B2_day4,2022.2.4,Win32,60.54001695,,,,,,down,0,19.7812,komesf,,0.189814843,0.247222222,1,0,0,0,87,87,147,1,komisch,images/br_komisch.png,images/cb_komisch.png,1,,,,,,,,,,,,,,,,,,,,,
,,,,,00036,2023-09-29_20h06.09.758,vbt_B2_day4,2022.2.4,Win32,60.54001695,,,,,,down,0,1.1234,,,0.189814843,0.247222222,1,0,0,0,88,88,136,1,waarbij,images/br_waarbij.png,images/cb_waarbij.png,0,,,,,,,,,,,,,,,,,,,,,
,,,,,00036,2023-09-29_20h06.09.758,vbt_B2_day4,2022.2.4,Win32,60.54001695,,,,,,down,0,1.0152,,,0.189814843,0.247222222,1,0,0,0,89,89,20,1,site,images/br_site.png,images/cb_site.png,0,,,,,,,,,,,,,,,,,,,,,
,,,,,00036,2023-09-29_20h06.09.758,vbt_B2_day4,2022.2.4,Win32,60.54001695,,,,,,down,0,0.2622,,,0.189814843,0.247222222,1,0,0,0,90,90,28,1,stal,images/br_stal.png,images/cb_stal.png,0,,,,,,,,,,,,,,,,,,,,,
,,,,,00036,2023-09-29_20h06.09.758,vbt_B2_day4,2022.2.4,Win32,60.54001695,,,,,,down,0,0.2891,,,0.189814843,0.247222222,1,0,0,0,91,91,156,1,rechten,images/br_rechten.png,images/cb_rechten.png,0,,,,,,,,,,,,,,,,,,,,,
,,,,,00036,2023-09-29_20h06.09.758,vbt_B2_day4,2022.2.4,Win32,60.54001695,,,,,,down,0,2.6328,,,0.189814843,0.247222222,1,0,0,0,92,92,86,1,woning,images/br_woning.png,images/cb_woning.png,0,,,,,,,,,,,,,,,,,,,,,
,,,,,00036,2023-09-29_20h06.09.758,vbt_B2_day4,2022.2.4,Win32,60.54001695,,,,,,down,0,0.3882,,,0.189814843,0.247222222,1,0,0,0,93,93,13,1,kaal,images/br_kaal.png,images/cb_kaal.png,0,,,,,,,,,,,,,,,,,,,,,
,,,,,00036,2023-09-29_20h06.09.758,vbt_B2_day4,2022.2.4,Win32,60.54001695,,,,,,down,0,9.6303,jurk,,0.189814843,0.247222222,1,0,0,0,94,94,24,1,jurk,images/br_jurk.png,images/cb_jurk.png,1,,,,,,,,,,,,,,,,,,,,,
,,,,,00036,2023-09-29_20h06.09.758,vbt_B2_day4,2022.2.4,Win32,60.54001695,,,,,,down,0,0.3489,,,0.189814843,0.247222222,1,0,0,0,95,95,45,1,piste,images/br_piste.png,images/cb_piste.png,0,,,,,,,,,,,,,,,,,,,,,
,,,,,00036,2023-09-29_20h06.09.758,vbt_B2_day4,2022.2.4,Win32,60.54001695,,,,,,down,0,0.3868,,,0.189814843,0.247222222,1,0,0,0,96,96,0,1,slak,images/br_slak.png,images/cb_slak.png,0,,,,,,,,,,,,,,,,,,,,,
,,,,,00036,2023-09-29_20h06.09.758,vbt_B2_day4,2022.2.4,Win32,60.54001695,,,,,,down,0,4.7764,,,0.189814843,0.247222222,1,0,0,0,97,97,30,1,uien,images/br_uien.png,images/cb_uien.png,0,,,,,,,,,,,,,,,,,,,,,
,,,,,00036,2023-09-29_20h06.09.758,vbt_B2_day4,2022.2.4,Win32,60.54001695,,,,,,down,0,3.3339,,,0.189814843,0.247222222,1,0,0,0,98,98,131,1,opzicht,images/br_opzicht.png,images/cb_opzicht.png,0,,,,,,,,,,,,,,,,,,,,,
,,,,,00036,2023-09-29_20h06.09.758,vbt_B2_day4,2022.2.4,Win32,60.54001695,,,,,,down,0,0.7005,,,0.189814843,0.247222222,1,0,0,0,99,99,151,1,aanzoek,images/br_aanzoek.png,images/cb_aanzoek.png,0,,,,,,,,,,,,,,,,,,,,,
,,,,,00036,2023-09-29_20h06.09.758,vbt_B2_day4,2022.2.4,Win32,60.54001695,,,,,,down,0,0.4167,,,0.189814843,0.247222222,1,0,0,0,100,100,172,1,weigeren,images/br_weigeren.png,images/cb_weigeren.png,0,,,,,,,,,,,,,,,,,,,,,
,,,,,00036,2023-09-29_20h06.09.758,vbt_B2_day4,2022.2.4,Win32,60.54001695,,,,,,down,0,0.4631,,,0.189814843,0.247222222,1,0,0,0,101,101,11,1,mode,images/br_mode.png,images/cb_mode.png,0,,,,,,,,,,,,,,,,,,,,,
,,,,,00036,2023-09-29_20h06.09.758,vbt_B2_day4,2022.2.4,Win32,60.54001695,,,,,,down,0,10.9349,opkijken,,0.189814843,0.247222222,1,0,0,0,102,102,187,1,opkijken,images/br_opkijken.png,images/cb_opkijken.png,1,,,,,,,,,,,,,,,,,,,,,
,,,,,00036,2023-09-29_20h06.09.758,vbt_B2_day4,2022.2.4,Win32,60.54001695,,,,,,down,0,8.6486,wijlen,,0.189814843,0.247222222,1,0,0,0,103,103,105,1,wijlen,images/br_wijlen.png,images/cb_wijlen.png,1,,,,,,,,,,,,,,,,,,,,,
,,,,,00036,2023-09-29_20h06.09.758,vbt_B2_day4,2022.2.4,Win32,60.54001695,,,,,,down,0,7.1739,,,0.189814843,0.247222222,1,0,0,0,104,104,5,1,blad,images/br_blad.png,images/cb_blad.png,0,,,,,,,,,,,,,,,,,,,,,
,,,,,00036,2023-09-29_20h06.09.758,vbt_B2_day4,2022.2.4,Win32,60.54001695,,,,,,down,0,1.3034,,,0.189814843,0.247222222,1,0,0,0,105,105,140,1,blijven,images/br_blijven.png,images/cb_blijven.png,0,,,,,,,,,,,,,,,,,,,,,
,,,,,00036,2023-09-29_20h06.09.758,vbt_B2_day4,2022.2.4,Win32,60.54001695,,,,,,down,0,7.3822,,,0.189814843,0.247222222,1,0,0,0,106,106,196,1,nakijken,images/br_nakijken.png,images/cb_nakijken.png,0,,,,,,,,,,,,,,,,,,,,,
,,,,,00036,2023-09-29_20h06.09.758,vbt_B2_day4,2022.2.4,Win32,60.54001695,,,,,,down,0,1.3572,,,0.189814843,0.247222222,1,0,0,0,107,107,12,1,kust,images/br_kust.png,images/cb_kust.png,0,,,,,,,,,,,,,,,,,,,,,
,,,,,00036,2023-09-29_20h06.09.758,vbt_B2_day4,2022.2.4,Win32,60.54001695,,,,,,down,0,3.2037,,,0.189814843,0.247222222,1,0,0,0,108,108,120,1,klimmen,images/br_klimmen.png,images/cb_klimmen.png,0,,,,,,,,,,,,,,,,,,,,,
,,,,,00036,2023-09-29_20h06.09.758,vbt_B2_day4,2022.2.4,Win32,60.54001695,,,,,,down,0,2.8101,,,0.189814843,0.247222222,1,0,0,0,109,109,50,1,stoom,images/br_stoom.png,images/cb_stoom.png,0,,,,,,,,,,,,,,,,,,,,,
,,,,,00036,2023-09-29_20h06.09.758,vbt_B2_day4,2022.2.4,Win32,60.54001695,,,,,,down,0,10.5986,,,0.191666667,0.258333333,1,0,0,0,110,110,57,1,steek,images/br_steek.png,images/cb_steek.png,0,,,,,,,,,,,,,,,,,,,,,
,,,,,00036,2023-09-29_20h06.09.758,vbt_B2_day4,2022.2.4,Win32,60.54001695,,,,,,down,0,3.9159,,,0.191666667,0.258333333,1,0,0,0,111,111,90,1,geluid,images/br_geluid.png,images/cb_geluid.png,0,,,,,,,,,,,,,,,,,,,,,
,,,,,00036,2023-09-29_20h06.09.758,vbt_B2_day4,2022.2.4,Win32,60.54001695,,,,,,down,0,0.8334,,,0.191666667,0.258333333,1,0,0,0,112,112,127,1,doodmoe,images/br_doodmoe.png,images/cb_doodmoe.png,0,,,,,,,,,,,,,,,,,,,,,
,,,,,00036,2023-09-29_20h06.09.758,vbt_B2_day4,2022.2.4,Win32,60.54001695,,,,,,down,0,1.834,,,0.191666667,0.258333333,1,0,0,0,113,113,145,1,invloed,images/br_invloed.png,images/cb_invloed.png,1,,,,,,,,,,,,,,,,,,,,,
,,,,,00036,2023-09-29_20h06.09.758,vbt_B2_day4,2022.2.4,Win32,60.54001695,,,,,,down,0,5.1021,,,0.191666667,0.258333333,1,0,0,0,114,114,55,1,praat,images/br_praat.png,images/cb_praat.png,0,,,,,,,,,,,,,,,,,,,,,
,,,,,00036,2023-09-29_20h06.09.758,vbt_B2_day4,2022.2.4,Win32,60.54001695,,,,,,down,0,2.4998,,,0.191666667,0.258333333,1,0,0,0,115,115,199,1,beseffen,images/br_beseffen.png,images/cb_beseffen.png,0,,,,,,,,,,,,,,,,,,,,,
,,,,,00036,2023-09-29_20h06.09.758,vbt_B2_day4,2022.2.4,Win32,60.54001695,,,,,,down,0,1.4669,,,0.191666667,0.258333333,1,0,0,0,116,116,174,1,stemming,images/br_stemming.png,images/cb_stemming.png,0,,,,,,,,,,,,,,,,,,,,,
,,,,,00036,2023-09-29_20h06.09.758,vbt_B2_day4,2022.2.4,Win32,60.54001695,,,,,,down,0,2.4013,,,0.191666667,0.258333333,1,0,0,0,117,117,178,1,huisdier,images/br_huisdier.png,images/cb_huisdier.png,0,,,,,,,,,,,,,,,,,,,,,
,,,,,00036,2023-09-29_20h06.09.758,vbt_B2_day4,2022.2.4,Win32,60.54001695,,,,,,down,0,3.2358,,,0.191666667,0.258333333,1,0,0,0,118,118,17,1,taal,images/br_taal.png,images/cb_taal.png,0,,,,,,,,,,,,,,,,,,,,,
,,,,,00036,2023-09-29_20h06.09.758,vbt_B2_day4,2022.2.4,Win32,60.54001695,,,,,,down,0,2.3498,,,0.191666667,0.258333333,1,0,0,0,119,119,149,1,redding,images/br_redding.png,images/cb_redding.png,0,,,,,,,,,,,,,,,,,,,,,
,,,,,00036,2023-09-29_20h06.09.758,vbt_B2_day4,2022.2.4,Win32,60.54001695,,,,,,down,0,3.6718,,,0.191666667,0.258333333,1,0,0,0,120,120,43,1,klauw,images/br_klauw.png,images/cb_klauw.png,0,,,,,,,,,,,,,,,,,,,,,
,,,,,00036,2023-09-29_20h06.09.758,vbt_B2_day4,2022.2.4,Win32,60.54001695,,,,,,down,0,3.8387,,,0.191666667,0.258333333,1,0,0,0,121,121,70,1,ijdel,images/br_ijdel.png,images/cb_ijdel.png,0,,,,,,,,,,,,,,,,,,,,,
,,,,,00036,2023-09-29_20h06.09.758,vbt_B2_day4,2022.2.4,Win32,60.54001695,,,,,,down,0,5.6465,,,0.191666667,0.258333333,1,0,0,0,122,122,29,1,baas,images/br_baas.png,images/cb_baas.png,0,,,,,,,,,,,,,,,,,,,,,
,,,,,00036,2023-09-29_20h06.09.758,vbt_B2_day4,2022.2.4,Win32,60.54001695,,,,,,down,0,4.016,,,0.191666667,0.258333333,1,0,0,0,123,123,125,1,aanzien,images/br_aanzien.png,images/cb_aanzien.png,0,,,,,,,,,,,,,,,,,,,,,
,,,,,00036,2023-09-29_20h06.09.758,vbt_B2_day4,2022.2.4,Win32,60.54001695,,,,,,down,0,4.3872,,,0.191666667,0.258333333,1,0,0,0,124,124,161,1,attentie,images/br_attentie.png,images/cb_attentie.png,0,,,,,,,,,,,,,,,,,,,,,
,,,,,00036,2023-09-29_20h06.09.758,vbt_B2_day4,2022.2.4,Win32,60.54001695,,,,,,down,0,0.1086,,,0.191666667,0.258333333,1,0,0,0,125,125,58,1,tekst,images/br_tekst.png,images/cb_tekst.png,0,,,,,,,,,,,,,,,,,,,,,
,,,,,00036,2023-09-29_20h06.09.758,vbt_B2_day4,2022.2.4,Win32,60.54001695,,,,,,down,0,1.7816,,,0.191666667,0.258333333,1,0,0,0,126,126,194,1,driemaal,images/br_driemaal.png,images/cb_driemaal.png,0,,,,,,,,,,,,,,,,,,,,,
,,,,,00036,2023-09-29_20h06.09.758,vbt_B2_day4,2022.2.4,Win32,60.54001695,,,,,,down,0,5.8999,,,0.191666667,0.258333333,1,0,0,0,127,127,148,1,smullen,images/br_smullen.png,images/cb_smullen.png,0,,,,,,,,,,,,,,,,,,,,,
,,,,,00036,2023-09-29_20h06.09.758,vbt_B2_day4,2022.2.4,Win32,60.54001695,,,,,,down,0,5.8834,opkomen,,0.191666667,0.258333333,1,0,0,0,128,128,146,1,opkomen,images/br_opkomen.png,images/cb_opkomen.png,1,,,,,,,,,,,,,,,,,,,,,
,,,,,00036,2023-09-29_20h06.09.758,vbt_B2_day4,2022.2.4,Win32,60.54001695,,,,,,down,0,0.0004,,,0.191666667,0.258333333,1,0,0,0,129,129,32,1,palm,images/br_palm.png,images/cb_palm.png,0,,,,,,,,,,,,,,,,,,,,,
,,,,,00036,2023-09-29_20h06.09.758,vbt_B2_day4,2022.2.4,Win32,60.54001695,,,,,,down,0,0.4495,,,0.191666667,0.258333333,1,0,0,0,130,130,47,1,kabel,images/br_kabel.png,images/cb_kabel.png,0,,,,,,,,,,,,,,,,,,,,,
,,,,,00036,2023-09-29_20h06.09.758,vbt_B2_day4,2022.2.4,Win32,60.54001695,,,,,,down,0,1.5505,,,0.191666667,0.258333333,1,0,0,0,131,131,102,1,legaal,images/br_legaal.png,images/cb_legaal.png,0,,,,,,,,,,,,,,,,,,,,,
,,,,,00036,2023-09-29_20h06.09.758,vbt_B2_day4,2022.2.4,Win32,60.54001695,,,,,,down,0,0.2837,,,0.191666667,0.258333333,1,0,0,0,132,132,22,1,stof,images/br_stof.png,images/cb_stof.png,0,,,,,,,,,,,,,,,,,,,,,
,,,,,00036,2023-09-29_20h06.09.758,vbt_B2_day4,2022.2.4,Win32,60.54001695,,,,,,down,0,0.4836,,,0.191666667,0.258333333,1,0,0,0,133,133,193,1,weeshuis,images/br_weeshuis.png,images/cb_weeshuis.png,0,,,,,,,,,,,,,,,,,,,,,
,,,,,00036,2023-09-29_20h06.09.758,vbt_B2_day4,2022.2.4,Win32,60.54001695,,,,,,down,0,1.2004,,,0.191666667,0.258333333,1,0,0,0,134,134,159,1,sufferd,images/br_sufferd.png,images/cb_sufferd.png,0,,,,,,,,,,,,,,,,,,,,,
,,,,,00036,2023-09-29_20h06.09.758,vbt_B2_day4,2022.2.4,Win32,60.54001695,,,,,,down,0,8.0831,,,0.191666667,0.258333333,1,0,0,0,135,135,116,1,besmet,images/br_besmet.png,images/cb_besmet.png,0,,,,,,,,,,,,,,,,,,,,,
,,,,,00036,2023-09-29_20h06.09.758,vbt_B2_day4,2022.2.4,Win32,60.54001695,,,,,,down,0,0.5787,,,0.191666667,0.258333333,1,0,0,0,136,136,165,1,feestdag,images/br_feestdag.png,images/cb_feestdag.png,0,,,,,,,,,,,,,,,,,,,,,
,,,,,00036,2023-09-29_20h06.09.758,vbt_B2_day4,2022.2.4,Win32,60.54001695,,,,,,down,0,6.6502,,,0.191666667,0.258333333,1,0,0,0,137,137,170,1,schatten,images/br_schatten.png,images/cb_schatten.png,0,,,,,,,,,,,,,,,,,,,,,
,,,,,00036,2023-09-29_20h06.09.758,vbt_B2_day4,2022.2.4,Win32,60.54001695,,,,,,down,0,0.1293,,,0.191666667,0.258333333,1,0,0,0,138,138,175,1,heengaan,images/br_heengaan.png,images/cb_heengaan.png,0,,,,,,,,,,,,,,,,,,,,,
,,,,,00036,2023-09-29_20h06.09.758,vbt_B2_day4,2022.2.4,Win32,60.54001695,,,,,,down,0,5.0093,,,0.191666667,0.258333333,1,0,0,0,139,139,138,1,akkoord,images/br_akkoord.png,images/cb_akkoord.png,0,,,,,,,,,,,,,,,,,,,,,
,,,,,00036,2023-09-29_20h06.09.758,vbt_B2_day4,2022.2.4,Win32,60.54001695,,,,,,down,0,10.1317,skeven,,0.191666667,0.258333333,1,0,0,0,140,140,104,1,zweven,images/br_zweven.png,images/cb_zweven.png,1,,,,,,,,,,,,,,,,,,,,,
,,,,,00036,2023-09-29_20h06.09.758,vbt_B2_day4,2022.2.4,Win32,60.54001695,,,,,,down,0,0.5019,,,0.191666667,0.258333333,1,0,0,0,141,141,74,1,graaf,images/br_graaf.png,images/cb_graaf.png,0,,,,,,,,,,,,,,,,,,,,,
,,,,,00036,2023-09-29_20h06.09.758,vbt_B2_day4,2022.2.4,Win32,60.54001695,,,,,,down,0,5.4823,,,0.191666667,0.258333333,1,0,0,0,142,142,61,1,groen,images/br_groen.png,images/cb_groen.png,0,,,,,,,,,,,,,,,,,,,,,
,,,,,00036,2023-09-29_20h06.09.758,vbt_B2_day4,2022.2.4,Win32,60.54001695,,,,,,down,0,8.0931,,,0.191666667,0.258333333,1,0,0,0,143,143,135,1,gedicht,images/br_gedicht.png,images/cb_gedicht.png,0,,,,,,,,,,,,,,,,,,,,,
,,,,,00036,2023-09-29_20h06.09.758,vbt_B2_day4,2022.2.4,Win32,60.54001695,,,,,,down,0,9.6808,,,0.191666667,0.258333333,1,0,0,0,144,144,41,1,maken,images/br_maken.png,images/cb_maken.png,0,,,,,,,,,,,,,,,,,,,,,
,,,,,00036,2023-09-29_20h06.09.758,vbt_B2_day4,2022.2.4,Win32,60.54001695,,,,,,down,0,13.6276,,,0.191666667,0.258333333,1,0,0,0,145,145,10,1,leek,images/br_leek.png,images/cb_leek.png,0,,,,,,,,,,,,,,,,,,,,,
,,,,,00036,2023-09-29_20h06.09.758,vbt_B2_day4,2022.2.4,Win32,60.54001695,,,,,,down,0,1.529,,,0.191666667,0.258333333,1,0,0,0,146,146,80,1,kanjer,images/br_kanjer.png,images/cb_kanjer.png,0,,,,,,,,,,,,,,,,,,,,,
,,,,,00036,2023-09-29_20h06.09.758,vbt_B2_day4,2022.2.4,Win32,60.54001695,,,,,,down,0,1.9338,,,0.191666667,0.258333333,1,0,0,0,147,147,79,1,nodig,images/br_nodig.png,images/cb_nodig.png,0,,,,,,,,,,,,,,,,,,,,,
,,,,,00036,2023-09-29_20h06.09.758,vbt_B2_day4,2022.2.4,Win32,60.54001695,,,,,,down,0,9.012,,,0.191666667,0.258333333,1,0,0,0,148,148,99,1,koffie,images/br_koffie.png,images/cb_koffie.png,0,,,,,,,,,,,,,,,,,,,,,
,,,,,00036,2023-09-29_20h06.09.758,vbt_B2_day4,2022.2.4,Win32,60.54001695,,,,,,down,0,3.7,,,0.191666667,0.258333333,1,0,0,0,149,149,110,1,zuster,images/br_zuster.png,images/cb_zuster.png,0,,,,,,,,,,,,,,,,,,,,,
,,,,,00036,2023-09-29_20h06.09.758,vbt_B2_day4,2022.2.4,Win32,60.54001695,,,,,,down,0,2.2744,,,0.191666667,0.258333333,1,0,0,0,150,150,14,1,rijp,images/br_rijp.png,images/cb_rijp.png,0,,,,,,,,,,,,,,,,,,,,,
,,,,,00036,2023-09-29_20h06.09.758,vbt_B2_day4,2022.2.4,Win32,60.54001695,,,,,,down,0,2.05,,,0.191666667,0.258333333,1,0,0,0,151,151,7,1,geld,images/br_geld.png,images/cb_geld.png,0,,,,,,,,,,,,,,,,,,,,,
,,,,,00036,2023-09-29_20h06.09.758,vbt_B2_day4,2022.2.4,Win32,60.54001695,,,,,,down,0,0.7792,,,0.191666667,0.258333333,1,0,0,0,152,152,103,1,joggen,images/br_joggen.png,images/cb_joggen.png,0,,,,,,,,,,,,,,,,,,,,,
,,,,,00036,2023-09-29_20h06.09.758,vbt_B2_day4,2022.2.4,Win32,60.54001695,,,,,,down,0,0.2797,,,0.191666667,0.258333333,1,0,0,0,153,153,83,1,mening,images/br_mening.png,images/cb_mening.png,0,,,,,,,,,,,,,,,,,,,,,
,,,,,00036,2023-09-29_20h06.09.758,vbt_B2_day4,2022.2.4,Win32,60.54001695,,,,,,down,0,5,aanhelen,,0.191666667,0.258333333,1,0,0,0,154,154,184,1,aandelen,images/br_aandelen.png,images/cb_aandelen.png,1,,,,,,,,,,,,,,,,,,,,,
,,,,,00036,2023-09-29_20h06.09.758,vbt_B2_day4,2022.2.4,Win32,60.54001695,,,,,,down,0,1.7746,,,0.191666667,0.258333333,1,0,0,0,155,155,78,1,leren,images/br_leren.png,images/cb_leren.png,0,,,,,,,,,,,,,,,,,,,,,
,,,,,00036,2023-09-29_20h06.09.758,vbt_B2_day4,2022.2.4,Win32,60.54001695,,,,,,down,0,0.8052,,,0.191666667,0.258333333,1,0,0,0,156,156,108,1,excuus,images/br_excuus.png,images/cb_excuus.png,0,,,,,,,,,,,,,,,,,,,,,
,,,,,00036,2023-09-29_20h06.09.758,vbt_B2_day4,2022.2.4,Win32,60.54001695,,,,,,down,0,4.0327,,,0.191666667,0.258333333,1,0,0,0,157,157,157,1,uitlaat,images/br_uitlaat.png,images/cb_uitlaat.png,0,,,,,,,,,,,,,,,,,,,,,
,,,,,00036,2023-09-29_20h06.09.758,vbt_B2_day4,2022.2.4,Win32,60.54001695,,,,,,down,0,5.2945,voorraad,,0.191666667,0.258333333,1,0,0,0,158,158,186,1,voorraad,images/br_voorraad.png,images/cb_voorraad.png,1,,,,,,,,,,,,,,,,,,,,,
,,,,,00036,2023-09-29_20h06.09.758,vbt_B2_day4,2022.2.4,Win32,60.54001695,,,,,,down,0,0.5629,,,0.191666667,0.258333333,1,0,0,0,159,159,60,1,jasje,images/br_jasje.png,images/cb_jasje.png,0,,,,,,,,,,,,,,,,,,,,,
,,,,,00036,2023-09-29_20h06.09.758,vbt_B2_day4,2022.2.4,Win32,60.54001695,,,,,,down,0,0.989,,,0.191666667,0.258333333,1,0,0,0,160,160,81,1,dubbel,images/br_dubbel.png,images/cb_dubbel.png,0,,,,,,,,,,,,,,,,,,,,,
,,,,,00036,2023-09-29_20h06.09.758,vbt_B2_day4,2022.2.4,Win32,60.54001695,,,,,,down,0,0.4496,,,0.191666667,0.258333333,1,0,0,0,161,161,76,1,afval,images/br_afval.png,images/cb_afval.png,0,,,,,,,,,,,,,,,,,,,,,
,,,,,00036,2023-09-29_20h06.09.758,vbt_B2_day4,2022.2.4,Win32,60.54001695,,,,,,down,0,0.0003,,,0.191666667,0.258333333,1,0,0,0,162,162,128,1,prikken,images/br_prikken.png,images/cb_prikken.png,0,,,,,,,,,,,,,,,,,,,,,
,,,,,00036,2023-09-29_20h06.09.758,vbt_B2_day4,2022.2.4,Win32,60.54001695,,,,,,down,0,0.3006,,,0.191666667,0.258333333,1,0,0,0,163,163,197,1,spanning,images/br_spanning.png,images/cb_spanning.png,0,,,,,,,,,,,,,,,,,,,,,
,,,,,00036,2023-09-29_20h06.09.758,vbt_B2_day4,2022.2.4,Win32,60.54001695,,,,,,down,0,0.4632,,,0.191666667,0.258333333,1,0,0,0,164,164,15,1,soda,images/br_soda.png,images/cb_soda.png,0,,,,,,,,,,,,,,,,,,,,,
,,,,,00036,2023-09-29_20h06.09.758,vbt_B2_day4,2022.2.4,Win32,60.54001695,,,,,,down,0,0.2003,,,0.191666667,0.258333333,1,0,0,0,165,165,119,1,liefje,images/br_liefje.png,images/cb_liefje.png,0,,,,,,,,,,,,,,,,,,,,,
,,,,,00036,2023-09-29_20h06.09.758,vbt_B2_day4,2022.2.4,Win32,60.54001695,,,,,,down,0,0.2285,,,0.191666667,0.258333333,1,0,0,0,166,166,113,1,koppen,images/br_koppen.png,images/cb_koppen.png,0,,,,,,,,,,,,,,,,,,,,,
,,,,,00036,2023-09-29_20h06.09.758,vbt_B2_day4,2022.2.4,Win32,60.54001695,,,,,,down,0,0.3704,,,0.191666667,0.258333333,1,0,0,0,167,167,51,1,samen,images/br_samen.png,images/cb_samen.png,0,,,,,,,,,,,,,,,,,,,,,
,,,,,00036,2023-09-29_20h06.09.758,vbt_B2_day4,2022.2.4,Win32,60.54001695,,,,,,down,0,0.5959,,,0.191666667,0.258333333,1,0,0,0,168,168,96,1,slagen,images/br_slagen.png,images/cb_slagen.png,0,,,,,,,,,,,,,,,,,,,,,
,,,,,00036,2023-09-29_20h06.09.758,vbt_B2_day4,2022.2.4,Win32,60.54001695,,,,,,down,0,0.2934,,,0.191666667,0.258333333,1,0,0,0,169,169,154,1,aflopen,images/br_aflopen.png,images/cb_aflopen.png,0,,,,,,,,,,,,,,,,,,,,,
,,,,,00036,2023-09-29_20h06.09.758,vbt_B2_day4,2022.2.4,Win32,60.54001695,,,,,,down,0,5.6495,maling,,0.191666667,0.258333333,1,0,0,0,170,170,107,1,maling,images/br_maling.png,images/cb_maling.png,1,,,,,,,,,,,,,,,,,,,,,
,,,,,00036,2023-09-29_20h06.09.758,vbt_B2_day4,2022.2.4,Win32,60.54001695,,,,,,down,0,0.5164,,,0.191666667,0.258333333,1,0,0,0,171,171,46,1,jagen,images/br_jagen.png,images/cb_jagen.png,0,,,,,,,,,,,,,,,,,,,,,
,,,,,00036,2023-09-29_20h06.09.758,vbt_B2_day4,2022.2.4,Win32,60.54001695,,,,,,down,0,0.339,,,0.191666667,0.258333333,1,0,0,0,172,172,89,1,slapen,images/br_slapen.png,images/cb_slapen.png,0,,,,,,,,,,,,,,,,,,,,,
,,,,,00036,2023-09-29_20h06.09.758,vbt_B2_day4,2022.2.4,Win32,60.54001695,,,,,,down,0,0.4294,,,0.191666667,0.258333333,1,0,0,0,173,173,150,1,gegeven,images/br_gegeven.png,images/cb_gegeven.png,0,,,,,,,,,,,,,,,,,,,,,
,,,,,00036,2023-09-29_20h06.09.758,vbt_B2_day4,2022.2.4,Win32,60.54001695,,,,,,down,0,0.4842,,,0.191666667,0.258333333,1,0,0,0,174,174,37,1,mijn,images/br_mijn.png,images/cb_mijn.png,0,,,,,,,,,,,,,,,,,,,,,
,,,,,00036,2023-09-29_20h06.09.758,vbt_B2_day4,2022.2.4,Win32,60.54001695,,,,,,down,0,0.7164,,,0.191666667,0.258333333,1,0,0,0,175,175,173,1,apparaat,images/br_apparaat.png,images/cb_apparaat.png,0,,,,,,,,,,,,,,,,,,,,,
,,,,,00036,2023-09-29_20h06.09.758,vbt_B2_day4,2022.2.4,Win32,60.54001695,,,,,,down,0,4.5534,,,0.191666667,0.258333333,1,0,0,0,176,176,160,1,daarheen,images/br_daarheen.png,images/cb_daarheen.png,0,,,,,,,,,,,,,,,,,,,,,
,,,,,00036,2023-09-29_20h06.09.758,vbt_B2_day4,2022.2.4,Win32,60.54001695,,,,,,down,0,0.4836,,,0.191666667,0.258333333,1,0,0,0,177,177,35,1,lust,images/br_lust.png,images/cb_lust.png,0,,,,,,,,,,,,,,,,,,,,,
,,,,,00036,2023-09-29_20h06.09.758,vbt_B2_day4,2022.2.4,Win32,60.54001695,,,,,,down,0,0.3667,,,0.191666667,0.258333333,1,0,0,0,178,178,101,1,staren,images/br_staren.png,images/cb_staren.png,0,,,,,,,,,,,,,,,,,,,,,
,,,,,00036,2023-09-29_20h06.09.758,vbt_B2_day4,2022.2.4,Win32,60.54001695,,,,,,down,0,1.8503,,,0.191666667,0.258333333,1,0,0,0,179,179,18,1,blik,images/br_blik.png,images/cb_blik.png,0,,,,,,,,,,,,,,,,,,,,,
,,,,,00036,2023-09-29_20h06.09.758,vbt_B2_day4,2022.2.4,Win32,60.54001695,,,,,,down,0,0.7842,,,0.191666667,0.258333333,1,0,0,0,180,180,171,1,aarzelen,images/br_aarzelen.png,images/cb_aarzelen.png,0,,,,,,,,,,,,,,,,,,,,,
,,,,,00036,2023-09-29_20h06.09.758,vbt_B2_day4,2022.2.4,Win32,60.54001695,,,,,,down,0,2.9224,,,0.191666667,0.258333333,1,0,0,0,181,181,48,1,steel,images/br_steel.png,images/cb_steel.png,0,,,,,,,,,,,,,,,,,,,,,
,,,,,00036,2023-09-29_20h06.09.758,vbt_B2_day4,2022.2.4,Win32,60.54001695,,,,,,down,0,5.0183,,,0.191666667,0.258333333,1,0,0,0,182,182,93,1,waarop,images/br_waarop.png,images/cb_waarop.png,0,,,,,,,,,,,,,,,,,,,,,
,,,,,00036,2023-09-29_20h06.09.758,vbt_B2_day4,2022.2.4,Win32,60.54001695,,,,,,down,0,0.4521,,,0.191666667,0.258333333,1,0,0,0,183,183,179,1,woestijn,images/br_woestijn.png,images/cb_woestijn.png,0,,,,,,,,,,,,,,,,,,,,,
,,,,,00036,2023-09-29_20h06.09.758,vbt_B2_day4,2022.2.4,Win32,60.54001695,,,,,,down,0,2.0617,,,0.191666667,0.258333333,1,0,0,0,184,184,88,1,boeien,images/br_boeien.png,images/cb_boeien.png,0,,,,,,,,,,,,,,,,,,,,,
,,,,,00036,2023-09-29_20h06.09.758,vbt_B2_day4,2022.2.4,Win32,60.54001695,,,,,,down,0,9.882,,,0.191666667,0.258333333,1,0,0,0,185,185,139,1,stiekem,images/br_stiekem.png,images/cb_stiekem.png,0,,,,,,,,,,,,,,,,,,,,,
,,,,,00036,2023-09-29_20h06.09.758,vbt_B2_day4,2022.2.4,Win32,60.54001695,,,,,,down,0,5.5323,,,0.192592621,0.260185178,1,0,0,0,186,186,123,1,hiervan,images/br_hiervan.png,images/cb_hiervan.png,0,,,,,,,,,,,,,,,,,,,,,
,,,,,00036,2023-09-29_20h06.09.758,vbt_B2_day4,2022.2.4,Win32,60.54001695,,,,,,down,0,1.15,,,0.192592621,0.260185178,1,0,0,0,187,187,82,1,muziek,images/br_muziek.png,images/cb_muziek.png,0,,,,,,,,,,,,,,,,,,,,,
,,,,,00036,2023-09-29_20h06.09.758,vbt_B2_day4,2022.2.4,Win32,60.54001695,,,,,,down,0,0.4958,,,0.192592621,0.260185178,1,0,0,0,188,188,97,1,loyaal,images/br_loyaal.png,images/cb_loyaal.png,0,,,,,,,,,,,,,,,,,,,,,
,,,,,00036,2023-09-29_20h06.09.758,vbt_B2_day4,2022.2.4,Win32,60.54001695,,,,,,down,0,2.6787,,,0.192592621,0.260185178,1,0,0,0,189,189,117,1,kennis,images/br_kennis.png,images/cb_kennis.png,0,,,,,,,,,,,,,,,,,,,,,
,,,,,00036,2023-09-29_20h06.09.758,vbt_B2_day4,2022.2.4,Win32,60.54001695,,,,,,down,0,1.1035,,,0.192592621,0.260185178,1,0,0,0,190,190,143,1,hechten,images/br_hechten.png,images/cb_hechten.png,0,,,,,,,,,,,,,,,,,,,,,
,,,,,00036,2023-09-29_20h06.09.758,vbt_B2_day4,2022.2.4,Win32,60.54001695,,,,,,down,0,0.4051,,,0.192592621,0.260185178,1,0,0,0,191,191,181,1,toegeven,images/br_toegeven.png,images/cb_toegeven.png,0,,,,,,,,,,,,,,,,,,,,,
,,,,,00036,2023-09-29_20h06.09.758,vbt_B2_day4,2022.2.4,Win32,60.54001695,,,,,,down,0,2.956,,,0.192592621,0.260185178,1,0,0,0,192,192,75,1,snoep,images/br_snoep.png,images/cb_snoep.png,0,,,,,,,,,,,,,,,,,,,,,
,,,,,00036,2023-09-29_20h06.09.758,vbt_B2_day4,2022.2.4,Win32,60.54001695,,,,,,down,0,3.9988,,,0.192592621,0.260185178,1,0,0,0,193,193,164,1,anarchie,images/br_anarchie.png,images/cb_anarchie.png,0,,,,,,,,,,,,,,,,,,,,,
,,,,,00036,2023-09-29_20h06.09.758,vbt_B2_day4,2022.2.4,Win32,60.54001695,,,,,,down,0,6.3053,,,0.192592621,0.260185178,1,0,0,0,194,194,77,1,woede,images/br_woede.png,images/cb_woede.png,0,,,,,,,,,,,,,,,,,,,,,
,,,,,00036,2023-09-29_20h06.09.758,vbt_B2_day4,2022.2.4,Win32,60.54001695,,,,,,down,0,7.1824,,,0.192592621,0.260185178,1,0,0,0,195,195,42,1,bleek,images/br_bleek.png,images/cb_bleek.png,0,,,,,,,,,,,,,,,,,,,,,
,,,,,00036,2023-09-29_20h06.09.758,vbt_B2_day4,2022.2.4,Win32,60.54001695,,,,,,down,0,0.4494,,,0.192592621,0.260185178,1,0,0,0,196,196,4,1,moes,images/br_moes.png,images/cb_moes.png,0,,,,,,,,,,,,,,,,,,,,,
,,,,,00036,2023-09-29_20h06.09.758,vbt_B2_day4,2022.2.4,Win32,60.54001695,,,,,,down,0,0.116,,,0.192592621,0.260185178,1,0,0,0,197,197,33,1,vlek,images/br_vlek.png,images/cb_vlek.png,0,,,,,,,,,,,,,,,,,,,,,
,,,,,00036,2023-09-29_20h06.09.758,vbt_B2_day4,2022.2.4,Win32,60.54001695,,,,,,down,0,0.3706,,,0.192592621,0.260185178,1,0,0,0,198,198,162,1,uitdelen,images/br_uitdelen.png,images/cb_uitdelen.png,0,,,,,,,,,,,,,,,,,,,,,
,,,,,00036,2023-09-29_20h06.09.758,vbt_B2_day4,2022.2.4,Win32,60.54001695,,,,,,down,0,0.067,,,0.192592621,0.260185178,1,0,0,0,199,199,1,1,zaal,images/br_zaal.png,images/cb_zaal.png,0,,,,,,,,,,,,,,,,,,,,,
,,,,,00036,2023-09-29_20h06.09.758,vbt_B2_day4,2022.2.4,Win32,60.54001695,,,,,,,,,,,,,,,,,,,,,,,,,0.192592621,0.260185178,1,0,0,,,,,,,,,,,,,,,,
,,,,,00036,2023-09-29_20h06.09.758,vbt_B2_day4,2022.2.4,Win32,60.54001695,,,,,,,,,,,,,,,,,,,,,,,,,,,,,,0.192592621,0.260185178,1,0,0,,,,,,,,,,,
,,,,,00036,2023-09-29_20h06.09.758,vbt_B2_day4,2022.2.4,Win32,60.54001695,,,,,,,,,f,,,,,,,,,,,,fran,images/br_fran.png,images/cb_fran.png,,,,,,,,,,,,0.192592621,0.260185178,1,0,0,f,0,0,0,22,1
,,,,,00036,2023-09-29_20h06.09.758,vbt_B2_day4,2022.2.4,Win32,60.54001695,,,,,,,,,sremm,,,,,,,,,,,,stemming,images/br_stemming.png,images/cb_stemming.png,,,,,,,,,,,,0.192592621,0.260185178,1,0,0,sremm,0,1,1,18,1
,,,,,00036,2023-09-29_20h06.09.758,vbt_B2_day4,2022.2.4,Win32,60.54001695,,,,,,,,,middel,,,,,,,,,,,,midden,images/br_midden.png,images/cb_midden.png,,,,,,,,,,,,0.192592621,0.260185178,1,0,0,middel,0,2,2,50,1
,,,,,00036,2023-09-29_20h06.09.758,vbt_B2_day4,2022.2.4,Win32,60.54001695,,,,,,,,,warel,,,,,,,,,,,,warel,images/br_warel.png,images/cb_warel.png,,,,,,,,,,,,0.192592621,0.260185178,1,0,0,warel,0,3,3,26,1
,,,,,00036,2023-09-29_20h06.09.758,vbt_B2_day4,2022.2.4,Win32,60.54001695,,,,,,,,,gedicht,,,,,,,,,,,,gedicht,images/br_gedicht.png,images/cb_gedicht.png,,,,,,,,,,,,0.192592621,0.260185178,1,0,0,gedicht,0,4,4,15,1
,,,,,00036,2023-09-29_20h06.09.758,vbt_B2_day4,2022.2.4,Win32,60.54001695,,,,,,,,,engel,,,,,,,,,,,,ezel,images/br_ezel.png,images/cb_ezel.png,,,,,,,,,,,,0.264814843,0.297222222,1,0,0,engel,0,5,5,42,1
,,,,,00036,2023-09-29_20h06.09.758,vbt_B2_day4,2022.2.4,Win32,60.54001695,,,,,,,,,pij,,,,,,,,,,,,pijnlijk,images/br_pijnlijk.png,images/cb_pijnlijk.png,,,,,,,,,,,,0.264814843,0.297222222,1,0,0,pij,0,6,6,58,1
,,,,,00036,2023-09-29_20h06.09.758,vbt_B2_day4,2022.2.4,Win32,60.54001695,,,,,,,,,dalen,,,,,,,,,,,,dalen,images/br_dalen.png,images/cb_dalen.png,,,,,,,,,,,,0.264814843,0.297222222,1,0,0,dalen,0,7,7,46,1
,,,,,00036,2023-09-29_20h06.09.758,vbt_B2_day4,2022.2.4,Win32,60.54001695,,,,,,,,,drooien,,,,,,,,,,,,drooien,images/br_drooien.png,images/cb_drooien.png,,,,,,,,,,,,0.264814843,0.297222222,1,0,0,drooien,0,8,8,32,1
,,,,,00036,2023-09-29_20h06.09.758,vbt_B2_day4,2022.2.4,Win32,60.54001695,,,,,,,,,oceaan,,,,,,,,,,,,oceaan,images/br_oceaan.png,images/cb_oceaan.png,,,,,,,,,,,,0.264814843,0.297222222,1,0,0,oceaan,0,9,9,10,1
,,,,,00036,2023-09-29_20h06.09.758,vbt_B2_day4,2022.2.4,Win32,60.54001695,,,,,,,,,nwek,,,,,,,,,,,,zwek,images/br_zwek.png,images/cb_zwek.png,,,,,,,,,,,,0.264814843,0.297222222,1,0,0,nwek,0,10,10,20,1
,,,,,00036,2023-09-29_20h06.09.758,vbt_B2_day4,2022.2.4,Win32,60.54001695,,,,,,,,,drummen,,,,,,,,,,,,drummer,images/br_drummer.png,images/cb_drummer.png,,,,,,,,,,,,0.264814843,0.297222222,1,0,0,drummen,0,11,11,53,1
,,,,,00036,2023-09-29_20h06.09.758,vbt_B2_day4,2022.2.4,Win32,60.54001695,,,,,,,,,wagon,,,,,,,,,,,,wagon,images/br_wagon.png,images/cb_wagon.png,,,,,,,,,,,,0.264814843,0.297222222,1,0,0,wagon,0,12,12,4,1
,,,,,00036,2023-09-29_20h06.09.758,vbt_B2_day4,2022.2.4,Win32,60.54001695,,,,,,,,,wegpo,,,,,,,,,,,,gebit,images/br_gebit.png,images/cb_gebit.png,,,,,,,,,,,,0.264814843,0.297222222,1,0,0,wegpo,0,13,13,6,1
,,,,,00036,2023-09-29_20h06.09.758,vbt_B2_day4,2022.2.4,Win32,60.54001695,,,,,,,,,snee,,,,,,,,,,,,snee,images/br_snee.png,images/cb_snee.png,,,,,,,,,,,,0.264814843,0.297222222,1,0,0,snee,0,14,14,40,1
,,,,,00036,2023-09-29_20h06.09.758,vbt_B2_day4,2022.2.4,Win32,60.54001695,,,,,,,,,weieg,,,,,,,,,,,,weigeren,images/br_weigeren.png,images/cb_weigeren.png,,,,,,,,,,,,0.264814843,0.297222222,1,0,0,weieg,0,15,15,16,1
,,,,,00036,2023-09-29_20h06.09.758,vbt_B2_day4,2022.2.4,Win32,60.54001695,,,,,,,,,toevol,,,,,,,,,,,,toevol,images/br_toevol.png,images/cb_toevol.png,,,,,,,,,,,,0.264814843,0.297222222,1,0,0,toevol,0,16,16,29,1
,,,,,00036,2023-09-29_20h06.09.758,vbt_B2_day4,2022.2.4,Win32,60.54001695,,,,,,,,,meks,,,,,,,,,,,,mekst,images/br_mekst.png,images/cb_mekst.png,,,,,,,,,,,,0.264814843,0.297222222,1,0,0,meks,0,17,17,27,1
,,,,,00036,2023-09-29_20h06.09.758,vbt_B2_day4,2022.2.4,Win32,60.54001695,,,,,,,,,opkec,,,,,,,,,,,,opkicht,images/br_opkicht.png,images/cb_opkicht.png,,,,,,,,,,,,0.264814843,0.297222222,1,0,0,opkec,0,18,18,34,1
,,,,,00036,2023-09-29_20h06.09.758,vbt_B2_day4,2022.2.4,Win32,60.54001695,,,,,,,,,lappen,,,,,,,,,,,,lappen,images/br_lappen.png,images/cb_lappen.png,,,,,,,,,,,,0.264814843,0.297222222,1,0,0,lappen,0,19,19,49,1
,,,,,00036,2023-09-29_20h06.09.758,vbt_B2_day4,2022.2.4,Win32,60.54001695,,,,,,,,,noodn,,,,,,,,,,,,noodzaak,images/br_noodzaak.png,images/cb_noodzaak.png,,,,,,,,,,,,0.275925954,0.306481467,1,0,0,noodn,0,20,20,56,1
,,,,,00036,2023-09-29_20h06.09.758,vbt_B2_day4,2022.2.4,Win32,60.54001695,,,,,,,,,wonen,,,,,,,,,,,,wozing,images/br_wozing.png,images/cb_wozing.png,,,,,,,,,,,,0.275925954,0.306481467,1,0,0,wonen,0,21,21,28,1
,,,,,00036,2023-09-29_20h06.09.758,vbt_B2_day4,2022.2.4,Win32,60.54001695,,,,,,,,,eerst,,,,,,,,,,,,eerst,images/br_eerst.png,images/cb_eerst.png,,,,,,,,,,,,0.275925954,0.306481467,1,0,0,eerst,0,22,22,47,1
,,,,,00036,2023-09-29_20h06.09.758,vbt_B2_day4,2022.2.4,Win32,60.54001695,,,,,,,,,paalb,,,,,,,,,,,,paalbaak,images/br_paalbaak.png,images/cb_paalbaak.png,,,,,,,,,,,,0.275925954,0.306481467,1,0,0,paalb,0,23,23,39,1
,,,,,00036,2023-09-29_20h06.09.758,vbt_B2_day4,2022.2.4,Win32,60.54001695,,,,,,,,,flippen,,,,,,,,,,,,flippen,images/br_flippen.png,images/cb_flippen.png,,,,,,,,,,,,0.275925954,0.306481467,1,0,0,flippen,0,24,24,54,1
,,,,,00036,2023-09-29_20h06.09.758,vbt_B2_day4,2022.2.4,Win32,60.54001695,,,,,,,,,prood,,,,,,,,,,,,broodje,images/br_broodje.png,images/cb_broodje.png,,,,,,,,,,,,0.275925954,0.306481467,1,0,0,prood,0,25,25,55,1
,,,,,00036,2023-09-29_20h06.09.758,vbt_B2_day4,2022.2.4,Win32,60.54001695,,,,,,,,,praat,,,,,,,,,,,,praat,images/br_praat.png,images/cb_praat.png,,,,,,,,,,,,0.275925954,0.306481467,1,0,0,praat,0,26,26,7,1
,,,,,00036,2023-09-29_20h06.09.758,vbt_B2_day4,2022.2.4,Win32,60.54001695,,,,,,,,,grappen,,,,,,,,,,,,grappen,images/br_grappen.png,images/cb_grappen.png,,,,,,,,,,,,0.275925954,0.306481467,1,0,0,grappen,0,27,27,12,1
,,,,,00036,2023-09-29_20h06.09.758,vbt_B2_day4,2022.2.4,Win32,60.54001695,,,,,,,,,,,,,,,,,,,,,gebog,images/br_gebog.png,images/cb_gebog.png,,,,,,,,,,,,0.275925954,0.306481467,1,0,0,,0,28,28,24,1
,,,,,00036,2023-09-29_20h06.09.758,vbt_B2_day4,2022.2.4,Win32,60.54001695,,,,,,,,,,,,,,,,,,,,,kust,images/br_kust.png,images/cb_kust.png,,,,,,,,,,,,0.304629686,0.323148145,1,0,0,,0,29,29,0,1
,,,,,00036,2023-09-29_20h06.09.758,vbt_B2_day4,2022.2.4,Win32,60.54001695,,,,,,,,,,,,,,,,,,,,,getucht,images/br_getucht.png,images/cb_getucht.png,,,,,,,,,,,,0.304629686,0.323148145,1,0,0,,0,30,30,35,1
,,,,,00036,2023-09-29_20h06.09.758,vbt_B2_day4,2022.2.4,Win32,60.54001695,,,,,,,,,,,,,,,,,,,,,gaaf,images/br_gaaf.png,images/cb_gaaf.png,,,,,,,,,,,,0.304629686,0.323148145,1,0,0,,0,31,31,43,1
,,,,,00036,2023-09-29_20h06.09.758,vbt_B2_day4,2022.2.4,Win32,60.54001695,,,,,,,,,,,,,,,,,,,,,dozijn,images/br_dozijn.png,images/cb_dozijn.png,,,,,,,,,,,,0.304629686,0.323148145,1,0,0,,0,32,32,48,1
,,,,,00036,2023-09-29_20h06.09.758,vbt_B2_day4,2022.2.4,Win32,60.54001695,,,,,,,,,gaan,,,,,,,,,,,,gaan,images/br_gaan.png,images/cb_gaan.png,,,,,,,,,,,,0.304629686,0.323148145,1,0,0,gaan,0,33,33,41,1
,,,,,00036,2023-09-29_20h06.09.758,vbt_B2_day4,2022.2.4,Win32,60.54001695,,,,,,,,,sulpon,,,,,,,,,,,,sulbon,images/br_sulbon.png,images/cb_sulbon.png,,,,,,,,,,,,0.304629686,0.323148145,1,0,0,sulpon,0,34,34,31,1
,,,,,00036,2023-09-29_20h06.09.758,vbt_B2_day4,2022.2.4,Win32,60.54001695,,,,,,,,,tucken,,,,,,,,,,,,tucket,images/br_tucket.png,images/cb_tucket.png,,,,,,,,,,,,0.304629686,0.323148145,1,0,0,tucken,0,35,35,30,1
,,,,,00036,2023-09-29_20h06.09.758,vbt_B2_day4,2022.2.4,Win32,60.54001695,,,,,,,,,soda,,,,,,,,,,,,soda,images/br_soda.png,images/cb_soda.png,,,,,,,,,,,,0.304629686,0.323148145,1,0,0,soda,0,36,36,3,1
,,,,,00036,2023-09-29_20h06.09.758,vbt_B2_day4,2022.2.4,Win32,60.54001695,,,,,,,,,opruimen,,,,,,,,,,,,opruimen,images/br_opruimen.png,images/cb_opruimen.png,,,,,,,,,,,,0.304629686,0.323148145,1,0,0,opruimen,0,37,37,59,1
,,,,,00036,2023-09-29_20h06.09.758,vbt_B2_day4,2022.2.4,Win32,60.54001695,,,,,,,,,geheim,,,,,,,,,,,,geheim,images/br_geheim.png,images/cb_geheim.png,,,,,,,,,,,,0.304629686,0.323148145,1,0,0,geheim,0,38,38,8,1
,,,,,00036,2023-09-29_20h06.09.758,vbt_B2_day4,2022.2.4,Win32,60.54001695,,,,,,,,,hand,,,,,,,,,,,,haza,images/br_haza.png,images/cb_haza.png,,,,,,,,,,,,0.304629686,0.323148145,1,0,0,hand,0,39,39,21,1
,,,,,00036,2023-09-29_20h06.09.758,vbt_B2_day4,2022.2.4,Win32,60.54001695,,,,,,,,,pittig,,,,,,,,,,,,pittig,images/br_pittig.png,images/cb_pittig.png,,,,,,,,,,,,0.304629686,0.323148145,1,0,0,pittig,0,40,40,51,1
,,,,,00036,2023-09-29_20h06.09.758,vbt_B2_day4,2022.2.4,Win32,60.54001695,,,,,,,,,rijk,,,,,,,,,,,,rijp,images/br_rijp.png,images/cb_rijp.png,,,,,,,,,,,,0.304629686,0.323148145,1,0,0,rijk,0,41,41,2,1
,,,,,00036,2023-09-29_20h06.09.758,vbt_B2_day4,2022.2.4,Win32,60.54001695,,,,,,,,,aan,,,,,,,,,,,,aanzwaag,images/br_aanzwaag.png,images/cb_aanzwaag.png,,,,,,,,,,,,0.304629686,0.323148145,1,0,0,aan,0,42,42,38,1
,,,,,00036,2023-09-29_20h06.09.758,vbt_B2_day4,2022.2.4,Win32,60.54001695,,,,,,,,,gijk,,,,,,,,,,,,gijf,images/br_gijf.png,images/cb_gijf.png,,,,,,,,,,,,0.304629686,0.323148145,1,0,0,gijk,0,43,43,23,1
,,,,,00036,2023-09-29_20h06.09.758,vbt_B2_day4,2022.2.4,Win32,60.54001695,,,,,,,,,vre,,,,,,,,,,,,vreten,images/br_vreten.png,images/cb_vreten.png,,,,,,,,,,,,0.304629686,0.323148145,1,0,0,vre,0,44,44,11,1
,,,,,00036,2023-09-29_20h06.09.758,vbt_B2_day4,2022.2.4,Win32,60.54001695,,,,,,,,,aalri,,,,,,,,,,,,zaalrijk,images/br_zaalrijk.png,images/cb_zaalrijk.png,,,,,,,,,,,,0.322222222,0.323148145,1,0,0,aalri,0,45,45,37,1
,,,,,00036,2023-09-29_20h06.09.758,vbt_B2_day4,2022.2.4,Win32,60.54001695,,,,,,,,,pissc,,,,,,,,,,,,bisschap,images/br_bisschap.png,images/cb_bisschap.png,,,,,,,,,,,,0.322222222,0.323148145,1,0,0,pissc,0,46,46,36,1
,,,,,00036,2023-09-29_20h06.09.758,vbt_B2_day4,2022.2.4,Win32,60.54001695,,,,,,,,,kaal,,,,,,,,,,,,kaal,images/br_kaal.png,images/cb_kaal.png,,,,,,,,,,,,0.322222222,0.323148145,1,0,0,kaal,0,47,47,1,1
,,,,,00036,2023-09-29_20h06.09.758,vbt_B2_day4,2022.2.4,Win32,60.54001695,,,,,,,,,sein,,,,,,,,,,,,seizoon,images/br_seizoon.png,images/cb_seizoon.png,,,,,,,,,,,,0.322222222,0.323148145,1,0,0,sein,0,48,48,33,1
,,,,,00036,2023-09-29_20h06.09.758,vbt_B2_day4,2022.2.4,Win32,60.54001695,,,,,,,,,sein,,,,,,,,,,,,seizoen,images/br_seizoen.png,images/cb_seizoen.png,,,,,,,,,,,,0.322222222,0.323148145,1,0,0,sein,0,49,49,13,1
,,,,,00036,2023-09-29_20h06.09.758,vbt_B2_day4,2022.2.4,Win32,60.54001695,,,,,,,,,apparaat,,,,,,,,,,,,apparaat,images/br_apparaat.png,images/cb_apparaat.png,,,,,,,,,,,,0.322222222,0.323148145,1,0,0,apparaat,0,50,50,17,1
,,,,,00036,2023-09-29_20h06.09.758,vbt_B2_day4,2022.2.4,Win32,60.54001695,,,,,,,,,bru,,,,,,,,,,,,bruin,images/br_bruin.png,images/cb_bruin.png,,,,,,,,,,,,0.322222222,0.323148145,1,0,0,bru,0,51,51,45,1
,,,,,00036,2023-09-29_20h06.09.758,vbt_B2_day4,2022.2.4,Win32,60.54001695,,,,,,,,,waarop,,,,,,,,,,,,waarop,images/br_waarop.png,images/cb_waarop.png,,,,,,,,,,,,0.322222222,0.323148145,1,0,0,waarop,0,52,52,9,1
,,,,,00036,2023-09-29_20h06.09.758,vbt_B2_day4,2022.2.4,Win32,60.54001695,,,,,,,,,stiin,,,,,,,,,,,,steen,images/br_steen.png,images/cb_steen.png,,,,,,,,,,,,0.322222222,0.323148145,1,0,0,stiin,0,53,53,44,1
,,,,,00036,2023-09-29_20h06.09.758,vbt_B2_day4,2022.2.4,Win32,60.54001695,,,,,,,,,gilei,,,,,,,,,,,,geliefd,images/br_geliefd.png,images/cb_geliefd.png,,,,,,,,,,,,0.322222222,0.323148145,1,0,0,gilei,0,54,54,14,1
,,,,,00036,2023-09-29_20h06.09.758,vbt_B2_day4,2022.2.4,Win32,60.54001695,,,,,,,,,baton,,,,,,,,,,,,baron,images/br_baron.png,images/cb_baron.png,,,,,,,,,,,,0.322222222,0.323148145,1,0,0,baton,0,55,55,5,1
,,,,,00036,2023-09-29_20h06.09.758,vbt_B2_day4,2022.2.4,Win32,60.54001695,,,,,,,,,heen,,,,,,,,,,,,heengaan,images/br_heengaan.png,images/cb_heengaan.png,,,,,,,,,,,,0.322222222,0.323148145,1,0,0,heen,0,56,56,19,1
,,,,,00036,2023-09-29_20h06.09.758,vbt_B2_day4,2022.2.4,Win32,60.54001695,,,,,,,,,sceeh,,,,,,,,,,,,schotel,images/br_schotel.png,images/cb_schotel.png,,,,,,,,,,,,0.322222222,0.323148145,1,0,0,sceeh,0,57,57,52,1
,,,,,00036,2023-09-29_20h06.09.758,vbt_B2_day4,2022.2.4,Win32,60.54001695,,,,,,,,,str,,,,,,,,,,,,strok,images/br_strok.png,images/cb_strok.png,,,,,,,,,,,,0.322222222,0.323148145,1,0,0,str,0,58,58,25,1
,,,,,00036,2023-09-29_20h06.09.758,vbt_B2_day4,2022.2.4,Win32,60.54001695,,,,,,,,,sch,,,,,,,,,,,,schenden,images/br_schenden.png,images/cb_schenden.png,,,,,,,,,,,,0.322222222,0.323148145,1,0,0,sch,0,59,59,57,1
,,,,,00036,2023-09-29_20h06.09.758,vbt_B2_day4,2022.2.4,Win32,60.54001695,,,,,,,,,,,,,,,,,,,,,,,,,,,,,,,,,,,,,,,,,,,,,
