welcome_mouse.x,welcome_mouse.y,welcome_mouse.leftButton,welcome_mouse.midButton,welcome_mouse.rightButton,"ID",date,expName,psychopyVersion,OS,frameRate,trainInstr_mouse.x,trainInstr_mouse.y,trainInstr_mouse.leftButton,trainInstr_mouse.midButton,trainInstr_mouse.rightButton,translation_key.keys,translation_key.corr,translation_key.rt,word_rsp.text,trWrd_mouse.x,trWrd_mouse.y,trWrd_mouse.leftButton,trWrd_mouse.midButton,trWrd_mouse.rightButton,train_loop.thisRepN,train_loop.thisTrialN,train_loop.thisN,train_loop.thisIndex,train_loop.ran,nlWrd,brWrd,cbWrd,test,testResp,mouse.x,mouse.y,mouse.leftButton,mouse.midButton,mouse.rightButton,testInstr_mouse.x,testInstr_mouse.y,testInstr_mouse.leftButton,testInstr_mouse.midButton,testInstr_mouse.rightButton,test_mouse.x,test_mouse.y,test_mouse.leftButton,test_mouse.midButton,test_mouse.rightButton,test_response.text,test_loop.thisRepN,test_loop.thisTrialN,test_loop.thisN,test_loop.thisIndex,test_loop.ran
-0.185185185,-0.250925912,1,0,0,00024,2023-09-28_14h59.09.599,vbt_B2_day4,2022.2.4,Win32,59.15409642,,,,,,,,,,,,,,,,,,,,,,,,,,,,,,,,,,,,,,,,,,,,,
,,,,,00024,2023-09-28_14h59.09.599,vbt_B2_day4,2022.2.4,Win32,59.15409642,-0.185185185,-0.250925912,1,0,0,,,,,,,,,,,,,,,,,,,,,,,,,,,,,,,,,,,,,,,,
,,,,,00024,2023-09-28_14h59.09.599,vbt_B2_day4,2022.2.4,Win32,59.15409642,,,,,,down,0,1.161900002,,-0.185185185,-0.250925912,1,0,0,0,0,0,138,1,akkoord,images/br_akkoord.png,images/cb_akkoord.png,0,,,,,,,,,,,,,,,,,,,,,,
,,,,,00024,2023-09-28_14h59.09.599,vbt_B2_day4,2022.2.4,Win32,59.15409642,,,,,,down,0,0.3009,,-0.185185185,-0.250925912,1,0,0,0,1,1,96,1,slagen,images/br_slagen.png,images/cb_slagen.png,0,,,,,,,,,,,,,,,,,,,,,,
,,,,,00024,2023-09-28_14h59.09.599,vbt_B2_day4,2022.2.4,Win32,59.15409642,,,,,,down,0,1.805200001,,-0.185185185,-0.250925912,1,0,0,0,2,2,132,1,grappen,images/br_grappen.png,images/cb_grappen.png,0,,,,,,,,,,,,,,,,,,,,,,
,,,,,00024,2023-09-28_14h59.09.599,vbt_B2_day4,2022.2.4,Win32,59.15409642,,,,,,down,0,2.351300001,,-0.185185185,-0.250925912,1,0,0,0,3,3,14,1,rijp,images/br_rijp.png,images/cb_rijp.png,0,,,,,,,,,,,,,,,,,,,,,,
,,,,,00024,2023-09-28_14h59.09.599,vbt_B2_day4,2022.2.4,Win32,59.15409642,,,,,,down,0,2.3684,,-0.185185185,-0.250925912,1,0,0,0,4,4,186,1,voorraad,images/br_voorraad.png,images/cb_voorraad.png,1,voorraad,,,,,,,,,,,,,,,,,,,,,
,,,,,00024,2023-09-28_14h59.09.599,vbt_B2_day4,2022.2.4,Win32,59.15409642,,,,,,down,0,0.7656,,-0.185185185,-0.250925912,1,0,0,0,5,5,57,1,steek,images/br_steek.png,images/cb_steek.png,0,,,,,,,,,,,,,,,,,,,,,,
,,,,,00024,2023-09-28_14h59.09.599,vbt_B2_day4,2022.2.4,Win32,59.15409642,,,,,,down,0,2.751800001,,-0.185185185,-0.250925912,1,0,0,0,6,6,16,1,ziek,images/br_ziek.png,images/cb_ziek.png,0,,,,,,,,,,,,,,,,,,,,,,
,,,,,00024,2023-09-28_14h59.09.599,vbt_B2_day4,2022.2.4,Win32,59.15409642,,,,,,down,0,9.135300001,,-0.185185185,-0.250925912,1,0,0,0,7,7,15,1,soda,images/br_soda.png,images/cb_soda.png,0,,,,,,,,,,,,,,,,,,,,,,
,,,,,00024,2023-09-28_14h59.09.599,vbt_B2_day4,2022.2.4,Win32,59.15409642,,,,,,down,0,3.284200001,,-0.185185185,-0.250925912,1,0,0,0,8,8,174,1,stemming,images/br_stemming.png,images/cb_stemming.png,0,,,,,,,,,,,,,,,,,,,,,,
,,,,,00024,2023-09-28_14h59.09.599,vbt_B2_day4,2022.2.4,Win32,59.15409642,,,,,,down,0,0.0511,,-0.185185185,-0.250925912,1,0,0,0,9,9,55,1,praat,images/br_praat.png,images/cb_praat.png,0,,,,,,,,,,,,,,,,,,,,,,
,,,,,00024,2023-09-28_14h59.09.599,vbt_B2_day4,2022.2.4,Win32,59.15409642,,,,,,down,0,3.179900002,,-0.185185185,-0.250925912,1,0,0,0,10,10,86,1,woning,images/br_woning.png,images/cb_woning.png,0,,,,,,,,,,,,,,,,,,,,,,
,,,,,00024,2023-09-28_14h59.09.599,vbt_B2_day4,2022.2.4,Win32,59.15409642,,,,,,down,0,0.5174,,-0.185185185,-0.250925912,1,0,0,0,11,11,73,1,volop,images/br_volop.png,images/cb_volop.png,0,,,,,,,,,,,,,,,,,,,,,,
,,,,,00024,2023-09-28_14h59.09.599,vbt_B2_day4,2022.2.4,Win32,59.15409642,,,,,,down,0,0.574200001,,-0.185185185,-0.250925912,1,0,0,0,12,12,114,1,vullen,images/br_vullen.png,images/cb_vullen.png,0,,,,,,,,,,,,,,,,,,,,,,
,,,,,00024,2023-09-28_14h59.09.599,vbt_B2_day4,2022.2.4,Win32,59.15409642,,,,,,down,0,0.1475,,-0.185185185,-0.250925912,1,0,0,0,13,13,75,1,snoep,images/br_snoep.png,images/cb_snoep.png,0,,,,,,,,,,,,,,,,,,,,,,
,,,,,00024,2023-09-28_14h59.09.599,vbt_B2_day4,2022.2.4,Win32,59.15409642,,,,,,down,0,0.444700001,,-0.185185185,-0.250925912,1,0,0,0,14,14,150,1,gegeven,images/br_gegeven.png,images/cb_gegeven.png,0,,,,,,,,,,,,,,,,,,,,,,
,,,,,00024,2023-09-28_14h59.09.599,vbt_B2_day4,2022.2.4,Win32,59.15409642,,,,,,down,0,0.5521,,-0.185185185,-0.250925912,1,0,0,0,15,15,43,1,klauw,images/br_klauw.png,images/cb_klauw.png,0,,,,,,,,,,,,,,,,,,,,,,
,,,,,00024,2023-09-28_14h59.09.599,vbt_B2_day4,2022.2.4,Win32,59.15409642,,,,,,down,0,2.834,,-0.183333291,-0.250925912,1,0,0,0,16,16,95,1,vreten,images/br_vreten.png,images/cb_vreten.png,0,,,,,,,,,,,,,,,,,,,,,,
,,,,,00024,2023-09-28_14h59.09.599,vbt_B2_day4,2022.2.4,Win32,59.15409642,,,,,,down,0,7.535,,-0.183333291,-0.250925912,1,0,0,0,17,17,32,1,palm,images/br_palm.png,images/cb_palm.png,0,,,,,,,,,,,,,,,,,,,,,,
,,,,,00024,2023-09-28_14h59.09.599,vbt_B2_day4,2022.2.4,Win32,59.15409642,,,,,,down,0,0.2519,,-0.183333291,-0.250925912,1,0,0,0,18,18,91,1,gezond,images/br_gezond.png,images/cb_gezond.png,0,,,,,,,,,,,,,,,,,,,,,,
,,,,,00024,2023-09-28_14h59.09.599,vbt_B2_day4,2022.2.4,Win32,59.15409642,,,,,,down,0,0.4715,,-0.183333291,-0.250925912,1,0,0,0,19,19,9,1,hier,images/br_hier.png,images/cb_hier.png,0,,,,,,,,,,,,,,,,,,,,,,
,,,,,00024,2023-09-28_14h59.09.599,vbt_B2_day4,2022.2.4,Win32,59.15409642,,,,,,down,0,0.056699999,,-0.183333291,-0.250925912,1,0,0,0,20,20,5,1,blad,images/br_blad.png,images/cb_blad.png,0,,,,,,,,,,,,,,,,,,,,,,
,,,,,00024,2023-09-28_14h59.09.599,vbt_B2_day4,2022.2.4,Win32,59.15409642,,,,,,down,0,0.3825,,-0.183333291,-0.250925912,1,0,0,0,21,21,10,1,leek,images/br_leek.png,images/cb_leek.png,0,,,,,,,,,,,,,,,,,,,,,,
,,,,,00024,2023-09-28_14h59.09.599,vbt_B2_day4,2022.2.4,Win32,59.15409642,,,,,,down,0,0.3365,,-0.183333291,-0.250925912,1,0,0,0,22,22,8,1,knie,images/br_knie.png,images/cb_knie.png,0,,,,,,,,,,,,,,,,,,,,,,
,,,,,00024,2023-09-28_14h59.09.599,vbt_B2_day4,2022.2.4,Win32,59.15409642,,,,,,down,0,1.5544,,-0.183333291,-0.250925912,1,0,0,0,23,23,24,1,jurk,images/br_jurk.png,images/cb_jurk.png,1,jurk,,,,,,,,,,,,,,,,,,,,,
,,,,,00024,2023-09-28_14h59.09.599,vbt_B2_day4,2022.2.4,Win32,59.15409642,,,,,,down,0,2.8359,,-0.183333291,-0.250925912,1,0,0,0,24,24,59,1,kring,images/br_kring.png,images/cb_kring.png,0,,,,,,,,,,,,,,,,,,,,,,
,,,,,00024,2023-09-28_14h59.09.599,vbt_B2_day4,2022.2.4,Win32,59.15409642,,,,,,down,0,1.250700001,,-0.183333291,-0.250925912,1,0,0,0,25,25,83,1,mening,images/br_mening.png,images/cb_mening.png,0,,,,,,,,,,,,,,,,,,,,,,
,,,,,00024,2023-09-28_14h59.09.599,vbt_B2_day4,2022.2.4,Win32,59.15409642,,,,,,down,0,0.168200001,,-0.183333291,-0.250925912,1,0,0,0,26,26,13,1,kaal,images/br_kaal.png,images/cb_kaal.png,0,,,,,,,,,,,,,,,,,,,,,,
,,,,,00024,2023-09-28_14h59.09.599,vbt_B2_day4,2022.2.4,Win32,59.15409642,,,,,,down,0,3.570099998,,-0.183333291,-0.250925912,1,0,0,0,27,27,143,1,hechten,images/br_hechten.png,images/cb_hechten.png,0,,,,,,,,,,,,,,,,,,,,,,
,,,,,00024,2023-09-28_14h59.09.599,vbt_B2_day4,2022.2.4,Win32,59.15409642,,,,,,down,0,12.2662,,-0.183333291,-0.250925912,1,0,0,0,28,28,190,1,goedkoop,images/br_goedkoop.png,images/cb_goedkoop.png,0,,,,,,,,,,,,,,,,,,,,,,
,,,,,00024,2023-09-28_14h59.09.599,vbt_B2_day4,2022.2.4,Win32,59.15409642,,,,,,down,0,0.834700001,,-0.183333291,-0.250925912,1,0,0,0,29,29,133,1,seizoen,images/br_seizoen.png,images/cb_seizoen.png,0,,,,,,,,,,,,,,,,,,,,,,
,,,,,00024,2023-09-28_14h59.09.599,vbt_B2_day4,2022.2.4,Win32,59.15409642,,,,,,down,0,7.6515,,-0.183333291,-0.250925912,1,0,0,0,30,30,81,1,dubbel,images/br_dubbel.png,images/cb_dubbel.png,0,,,,,,,,,,,,,,,,,,,,,,
,,,,,00024,2023-09-28_14h59.09.599,vbt_B2_day4,2022.2.4,Win32,59.15409642,,,,,,down,0,3.0019,,-0.174074032,-0.271296325,1,0,0,0,31,31,162,1,uitdelen,images/br_uitdelen.png,images/cb_uitdelen.png,0,,,,,,,,,,,,,,,,,,,,,,
,,,,,00024,2023-09-28_14h59.09.599,vbt_B2_day4,2022.2.4,Win32,59.15409642,,,,,,down,0,0.1544,,-0.162962949,-0.262037065,1,0,0,0,32,32,87,1,toeval,images/br_toeval.png,images/cb_toeval.png,0,,,,,,,,,,,,,,,,,,,,,,
,,,,,00024,2023-09-28_14h59.09.599,vbt_B2_day4,2022.2.4,Win32,59.15409642,,,,,,down,0,5.9349,,-0.162962949,-0.260185171,1,0,0,0,33,33,26,1,leuk,images/br_leuk.png,images/cb_leuk.png,1,leuk,,,,,,,,,,,,,,,,,,,,,
,,,,,00024,2023-09-28_14h59.09.599,vbt_B2_day4,2022.2.4,Win32,59.15409642,,,,,,down,0,2.1346,,-0.156481496,-0.258333347,1,0,0,0,34,34,82,1,muziek,images/br_muziek.png,images/cb_muziek.png,0,,,,,,,,,,,,,,,,,,,,,,
,,,,,00024,2023-09-28_14h59.09.599,vbt_B2_day4,2022.2.4,Win32,59.15409642,,,,,,down,0,2.474,,-0.14907406,-0.258333347,1,0,0,0,35,35,163,1,schuilen,images/br_schuilen.png,images/cb_schuilen.png,0,,,,,,,,,,,,,,,,,,,,,,
,,,,,00024,2023-09-28_14h59.09.599,vbt_B2_day4,2022.2.4,Win32,59.15409642,,,,,,down,0,3.2505,,-0.14444443,-0.257407436,1,0,0,0,36,36,156,1,rechten,images/br_rechten.png,images/cb_rechten.png,0,,,,,,,,,,,,,,,,,,,,,,
,,,,,00024,2023-09-28_14h59.09.599,vbt_B2_day4,2022.2.4,Win32,59.15409642,,,,,,down,0,0.073799999,,-0.125925912,-0.261111153,1,0,0,0,37,37,116,1,besmet,images/br_besmet.png,images/cb_besmet.png,0,,,,,,,,,,,,,,,,,,,,,,
,,,,,00024,2023-09-28_14h59.09.599,vbt_B2_day4,2022.2.4,Win32,59.15409642,,,,,,down,0,0.7051,,-0.118518476,-0.263888889,1,0,0,0,38,38,129,1,verhaal,images/br_verhaal.png,images/cb_verhaal.png,0,,,,,,,,,,,,,,,,,,,,,,
,,,,,00024,2023-09-28_14h59.09.599,vbt_B2_day4,2022.2.4,Win32,59.15409642,,,,,,down,0,0.072400002,,-0.10092594,-0.264814801,1,0,0,0,39,39,137,1,trekker,images/br_trekker.png,images/cb_trekker.png,0,,,,,,,,,,,,,,,,,,,,,,
,,,,,00024,2023-09-28_14h59.09.599,vbt_B2_day4,2022.2.4,Win32,59.15409642,,,,,,down,0,8.351200001,,-0.086111069,-0.268518519,1,0,0,0,40,40,199,1,beseffen,images/br_beseffen.png,images/cb_beseffen.png,0,,,,,,,,,,,,,,,,,,,,,,
,,,,,00024,2023-09-28_14h59.09.599,vbt_B2_day4,2022.2.4,Win32,59.15409642,,,,,,down,0,11.2645,,-0.086111069,-0.277777778,1,0,0,0,41,41,125,1,aanzien,images/br_aanzien.png,images/cb_aanzien.png,0,,,,,,,,,,,,,,,,,,,,,,
,,,,,00024,2023-09-28_14h59.09.599,vbt_B2_day4,2022.2.4,Win32,59.15409642,,,,,,down,0,3.6514,,-0.086111069,-0.277777778,1,0,0,0,42,42,144,1,eetlust,images/br_eetlust.png,images/cb_eetlust.png,1,eetlust,,,,,,,,,,,,,,,,,,,,,
,,,,,00024,2023-09-28_14h59.09.599,vbt_B2_day4,2022.2.4,Win32,59.15409642,,,,,,down,0,4.383,,-0.092592593,-0.270370413,1,0,0,0,43,43,112,1,lukken,images/br_lukken.png,images/cb_lukken.png,0,,,,,,,,,,,,,,,,,,,,,,
,,,,,00024,2023-09-28_14h59.09.599,vbt_B2_day4,2022.2.4,Win32,59.15409642,,,,,,down,0,1.236900002,,-0.075925898,-0.27407406,1,0,0,0,44,44,3,1,mand,images/br_mand.png,images/cb_mand.png,0,,,,,,,,,,,,,,,,,,,,,,
,,,,,00024,2023-09-28_14h59.09.599,vbt_B2_day4,2022.2.4,Win32,59.15409642,,,,,,down,0,0.044099998,,-0.076851809,-0.27407406,1,0,0,0,45,45,102,1,legaal,images/br_legaal.png,images/cb_legaal.png,0,,,,,,,,,,,,,,,,,,,,,,
,,,,,00024,2023-09-28_14h59.09.599,vbt_B2_day4,2022.2.4,Win32,59.15409642,,,,,,down,0,0.5745,,-0.121296282,-0.285185213,1,0,0,0,46,46,62,1,knaap,images/br_knaap.png,images/cb_knaap.png,0,,,,,,,,,,,,,,,,,,,,,,
,,,,,00024,2023-09-28_14h59.09.599,vbt_B2_day4,2022.2.4,Win32,59.15409642,,,,,,down,0,3.3854,,-0.121296282,-0.292592578,1,0,0,0,47,47,103,1,joggen,images/br_joggen.png,images/cb_joggen.png,0,,,,,,,,,,,,,,,,,,,,,,
,,,,,00024,2023-09-28_14h59.09.599,vbt_B2_day4,2022.2.4,Win32,59.15409642,,,,,,down,0,4.5505,,-0.108333305,-0.284259302,1,0,0,0,48,48,80,1,kanjer,images/br_kanjer.png,images/cb_kanjer.png,0,,,,,,,,,,,,,,,,,,,,,,
,,,,,00024,2023-09-28_14h59.09.599,vbt_B2_day4,2022.2.4,Win32,59.15409642,,,,,,down,0,3.9279,,-0.108333305,-0.284259302,1,0,0,0,49,49,123,1,hiervan,images/br_hiervan.png,images/cb_hiervan.png,0,,,,,,,,,,,,,,,,,,,,,,
,,,,,00024,2023-09-28_14h59.09.599,vbt_B2_day4,2022.2.4,Win32,59.15409642,,,,,,down,0,5.118700001,,-0.085185157,-0.335185228,1,0,0,0,50,50,25,1,plek,images/br_plek.png,images/cb_plek.png,1,plek,,,,,,,,,,,,,,,,,,,,,
,,,,,00024,2023-09-28_14h59.09.599,vbt_B2_day4,2022.2.4,Win32,59.15409642,,,,,,down,0,0.0011,,-0.085185157,-0.335185228,1,0,0,0,51,51,88,1,boeien,images/br_boeien.png,images/cb_boeien.png,0,,,,,,,,,,,,,,,,,,,,,,
,,,,,00024,2023-09-28_14h59.09.599,vbt_B2_day4,2022.2.4,Win32,59.15409642,,,,,,down,0,7.951,,-0.085185157,-0.335185228,1,0,0,0,52,52,135,1,gedicht,images/br_gedicht.png,images/cb_gedicht.png,0,,,,,,,,,,,,,,,,,,,,,,
,,,,,00024,2023-09-28_14h59.09.599,vbt_B2_day4,2022.2.4,Win32,59.15409642,,,,,,down,0,4.816599998,,-0.085185157,-0.335185228,1,0,0,0,53,53,176,1,techniek,images/br_techniek.png,images/cb_techniek.png,0,,,,,,,,,,,,,,,,,,,,,,
,,,,,00024,2023-09-28_14h59.09.599,vbt_B2_day4,2022.2.4,Win32,59.15409642,,,,,,down,0,5.853199999,,-0.085185157,-0.335185228,1,0,0,0,54,54,136,1,waarbij,images/br_waarbij.png,images/cb_waarbij.png,0,,,,,,,,,,,,,,,,,,,,,,
,,,,,00024,2023-09-28_14h59.09.599,vbt_B2_day4,2022.2.4,Win32,59.15409642,,,,,,down,0,13.8663,,-0.085185157,-0.335185228,1,0,0,0,55,55,145,1,invloed,images/br_invloed.png,images/cb_invloed.png,1,invloedinvloed,,,,,,,,,,,,,,,,,,,,,
,,,,,00024,2023-09-28_14h59.09.599,vbt_B2_day4,2022.2.4,Win32,59.15409642,,,,,,down,0,4.351700001,,-0.131481453,-0.295370384,1,0,0,0,56,56,18,1,blik,images/br_blik.png,images/cb_blik.png,0,,,,,,,,,,,,,,,,,,,,,,
,,,,,00024,2023-09-28_14h59.09.599,vbt_B2_day4,2022.2.4,Win32,59.15409642,,,,,,down,0,0.852700001,,-0.131481453,-0.295370384,1,0,0,0,57,57,23,1,zout,images/br_zout.png,images/cb_zout.png,0,,,,,,,,,,,,,,,,,,,,,,
,,,,,00024,2023-09-28_14h59.09.599,vbt_B2_day4,2022.2.4,Win32,59.15409642,,,,,,down,0,1.4191,,-0.140740712,-0.284259302,1,0,0,0,58,58,60,1,jasje,images/br_jasje.png,images/cb_jasje.png,0,,,,,,,,,,,,,,,,,,,,,,
,,,,,00024,2023-09-28_14h59.09.599,vbt_B2_day4,2022.2.4,Win32,59.15409642,,,,,,down,0,3.317900002,,-0.140740712,-0.284259302,1,0,0,0,59,59,160,1,daarheen,images/br_daarheen.png,images/cb_daarheen.png,0,,,,,,,,,,,,,,,,,,,,,,
,,,,,00024,2023-09-28_14h59.09.599,vbt_B2_day4,2022.2.4,Win32,59.15409642,,,,,,down,0,1.458800001,,-0.140740712,-0.284259302,1,0,0,0,60,60,169,1,oprotten,images/br_oprotten.png,images/cb_oprotten.png,0,,,,,,,,,,,,,,,,,,,,,,
,,,,,00024,2023-09-28_14h59.09.599,vbt_B2_day4,2022.2.4,Win32,59.15409642,,,,,,down,0,19.9176,,-0.140740712,-0.284259302,1,0,0,0,61,61,195,1,middelen,images/br_middelen.png,images/cb_middelen.png,0,,,,,,,,,,,,,,,,,,,,,,
,,,,,00024,2023-09-28_14h59.09.599,vbt_B2_day4,2022.2.4,Win32,59.15409642,,,,,,down,0,7.902699999,,-0.162037037,-0.285185213,1,0,0,0,62,62,139,1,stiekem,images/br_stiekem.png,images/cb_stiekem.png,0,,,,,,,,,,,,,,,,,,,,,,
,,,,,00024,2023-09-28_14h59.09.599,vbt_B2_day4,2022.2.4,Win32,59.15409642,,,,,,down,0,6.5829,,-0.162037037,-0.285185213,1,0,0,0,63,63,79,1,nodig,images/br_nodig.png,images/cb_nodig.png,0,,,,,,,,,,,,,,,,,,,,,,
,,,,,00024,2023-09-28_14h59.09.599,vbt_B2_day4,2022.2.4,Win32,59.15409642,,,,,,down,0,1.771200001,,-0.162037037,-0.285185213,1,0,0,0,64,64,120,1,klimmen,images/br_klimmen.png,images/cb_klimmen.png,0,,,,,,,,,,,,,,,,,,,,,,
,,,,,00024,2023-09-28_14h59.09.599,vbt_B2_day4,2022.2.4,Win32,59.15409642,,,,,,down,0,2.568199999,,-0.175000014,-0.319444444,1,0,0,0,65,65,166,1,strikken,images/br_strikken.png,images/cb_strikken.png,0,,,,,,,,,,,,,,,,,,,,,,
,,,,,00024,2023-09-28_14h59.09.599,vbt_B2_day4,2022.2.4,Win32,59.15409642,,,,,,down,0,0.308099998,,-0.175000014,-0.319444444,1,0,0,0,66,66,56,1,traag,images/br_traag.png,images/cb_traag.png,0,,,,,,,,,,,,,,,,,,,,,,
,,,,,00024,2023-09-28_14h59.09.599,vbt_B2_day4,2022.2.4,Win32,59.15409642,,,,,,down,0,3.967799999,,-0.175000014,-0.319444444,1,0,0,0,67,67,134,1,geliefd,images/br_geliefd.png,images/cb_geliefd.png,0,,,,,,,,,,,,,,,,,,,,,,
,,,,,00024,2023-09-28_14h59.09.599,vbt_B2_day4,2022.2.4,Win32,59.15409642,,,,,,down,0,0.8185,,-0.175000014,-0.319444444,1,0,0,0,68,68,29,1,baas,images/br_baas.png,images/cb_baas.png,0,,,,,,,,,,,,,,,,,,,,,,
,,,,,00024,2023-09-28_14h59.09.599,vbt_B2_day4,2022.2.4,Win32,59.15409642,,,,,,down,0,2.2506,,-0.175000014,-0.319444444,1,0,0,0,69,69,170,1,schatten,images/br_schatten.png,images/cb_schatten.png,0,,,,,,,,,,,,,,,,,,,,,,
,,,,,00024,2023-09-28_14h59.09.599,vbt_B2_day4,2022.2.4,Win32,59.15409642,,,,,,down,0,2.066699999,,-0.175000014,-0.319444444,1,0,0,0,70,70,66,1,lever,images/br_lever.png,images/cb_lever.png,1,lever,,,,,,,,,,,,,,,,,,,,,
,,,,,00024,2023-09-28_14h59.09.599,vbt_B2_day4,2022.2.4,Win32,59.15409642,,,,,,down,0,15.9007,,-0.175000014,-0.319444444,1,0,0,0,71,71,147,1,komisch,images/br_komisch.png,images/cb_komisch.png,1,komisch,,,,,,,,,,,,,,,,,,,,,
,,,,,00024,2023-09-28_14h59.09.599,vbt_B2_day4,2022.2.4,Win32,59.15409642,,,,,,down,0,0.521,,-0.175000014,-0.319444444,1,0,0,0,72,72,46,1,jagen,images/br_jagen.png,images/cb_jagen.png,0,,,,,,,,,,,,,,,,,,,,,,
,,,,,00024,2023-09-28_14h59.09.599,vbt_B2_day4,2022.2.4,Win32,59.15409642,,,,,,down,0,0.1205,,-0.175000014,-0.319444444,1,0,0,0,73,73,142,1,snuiven,images/br_snuiven.png,images/cb_snuiven.png,0,,,,,,,,,,,,,,,,,,,,,,
,,,,,00024,2023-09-28_14h59.09.599,vbt_B2_day4,2022.2.4,Win32,59.15409642,,,,,,down,0,2.4914,,-0.175000014,-0.319444444,1,0,0,0,74,74,122,1,waarvan,images/br_waarvan.png,images/cb_waarvan.png,0,,,,,,,,,,,,,,,,,,,,,,
,,,,,00024,2023-09-28_14h59.09.599,vbt_B2_day4,2022.2.4,Win32,59.15409642,,,,,,down,0,1.8059,,-0.175000014,-0.319444444,1,0,0,0,75,75,69,1,waken,images/br_waken.png,images/cb_waken.png,0,,,,,,,,,,,,,,,,,,,,,,
,,,,,00024,2023-09-28_14h59.09.599,vbt_B2_day4,2022.2.4,Win32,59.15409642,,,,,,down,0,8.766700001,,-0.175000014,-0.319444444,1,0,0,0,76,76,149,1,redding,images/br_redding.png,images/cb_redding.png,0,,,,,,,,,,,,,,,,,,,,,,
,,,,,00024,2023-09-28_14h59.09.599,vbt_B2_day4,2022.2.4,Win32,59.15409642,,,,,,down,0,7.717,,-0.175000014,-0.319444444,1,0,0,0,77,77,67,1,zwart,images/br_zwart.png,images/cb_zwart.png,1,zwart,,,,,,,,,,,,,,,,,,,,,
,,,,,00024,2023-09-28_14h59.09.599,vbt_B2_day4,2022.2.4,Win32,59.15409642,,,,,,down,0,0.824,,-0.175000014,-0.319444444,1,0,0,0,78,78,2,1,jaar,images/br_jaar.png,images/cb_jaar.png,0,,,,,,,,,,,,,,,,,,,,,,
,,,,,00024,2023-09-28_14h59.09.599,vbt_B2_day4,2022.2.4,Win32,59.15409642,,,,,,down,0,0.41,,-0.175000014,-0.319444444,1,0,0,0,79,79,47,1,kabel,images/br_kabel.png,images/cb_kabel.png,0,,,,,,,,,,,,,,,,,,,,,,
,,,,,00024,2023-09-28_14h59.09.599,vbt_B2_day4,2022.2.4,Win32,59.15409642,,,,,,down,0,1.102300001,,-0.175000014,-0.319444444,1,0,0,0,80,80,100,1,geduld,images/br_geduld.png,images/cb_geduld.png,0,,,,,,,,,,,,,,,,,,,,,,
,,,,,00024,2023-09-28_14h59.09.599,vbt_B2_day4,2022.2.4,Win32,59.15409642,,,,,,down,0,5.036799999,,-0.175000014,-0.319444444,1,0,0,0,81,81,76,1,afval,images/br_afval.png,images/cb_afval.png,0,,,,,,,,,,,,,,,,,,,,,,
,,,,,00024,2023-09-28_14h59.09.599,vbt_B2_day4,2022.2.4,Win32,59.15409642,,,,,,down,0,1.784300001,,-0.175000014,-0.319444444,1,0,0,0,82,82,72,1,strak,images/br_strak.png,images/cb_strak.png,0,,,,,,,,,,,,,,,,,,,,,,
,,,,,00024,2023-09-28_14h59.09.599,vbt_B2_day4,2022.2.4,Win32,59.15409642,,,,,,down,0,0.4064,,-0.175000014,-0.319444444,1,0,0,0,83,83,50,1,stoom,images/br_stoom.png,images/cb_stoom.png,0,,,,,,,,,,,,,,,,,,,,,,
,,,,,00024,2023-09-28_14h59.09.599,vbt_B2_day4,2022.2.4,Win32,59.15409642,,,,,,down,0,3.268300001,,-0.175000014,-0.319444444,1,0,0,0,84,84,191,1,opheffen,images/br_opheffen.png,images/cb_opheffen.png,0,,,,,,,,,,,,,,,,,,,,,,
,,,,,00024,2023-09-28_14h59.09.599,vbt_B2_day4,2022.2.4,Win32,59.15409642,,,,,,down,0,1.723,,-0.175000014,-0.319444444,1,0,0,0,85,85,68,1,schat,images/br_schat.png,images/cb_schat.png,0,,,,,,,,,,,,,,,,,,,,,,
,,,,,00024,2023-09-28_14h59.09.599,vbt_B2_day4,2022.2.4,Win32,59.15409642,,,,,,down,0,9.3354,,-0.175000014,-0.319444444,1,0,0,0,86,86,180,1,openbaar,images/br_openbaar.png,images/cb_openbaar.png,0,,,,,,,,,,,,,,,,,,,,,,
,,,,,00024,2023-09-28_14h59.09.599,vbt_B2_day4,2022.2.4,Win32,59.15409642,,,,,,down,0,2.8165,,-0.175000014,-0.319444444,1,0,0,0,87,87,178,1,huisdier,images/br_huisdier.png,images/cb_huisdier.png,0,,,,,,,,,,,,,,,,,,,,,,
,,,,,00024,2023-09-28_14h59.09.599,vbt_B2_day4,2022.2.4,Win32,59.15409642,,,,,,down,0,10.7671,,-0.175000014,-0.319444444,1,0,0,0,88,88,194,1,driemaal,images/br_driemaal.png,images/cb_driemaal.png,0,,,,,,,,,,,,,,,,,,,,,,
,,,,,00024,2023-09-28_14h59.09.599,vbt_B2_day4,2022.2.4,Win32,59.15409642,,,,,,down,0,4.2685,,-0.175000014,-0.319444444,1,0,0,0,89,89,185,1,mijnheer,images/br_mijnheer.png,images/cb_mijnheer.png,1,mijnheer,,,,,,,,,,,,,,,,,,,,,
,,,,,00024,2023-09-28_14h59.09.599,vbt_B2_day4,2022.2.4,Win32,59.15409642,,,,,,down,0,0.200099998,,-0.175000014,-0.319444444,1,0,0,0,90,90,97,1,loyaal,images/br_loyaal.png,images/cb_loyaal.png,0,,,,,,,,,,,,,,,,,,,,,,
,,,,,00024,2023-09-28_14h59.09.599,vbt_B2_day4,2022.2.4,Win32,59.15409642,,,,,,down,0,0.138700001,,-0.175000014,-0.319444444,0,0,1,0,91,91,40,1,schep,images/br_schep.png,images/cb_schep.png,0,,,,,,,,,,,,,,,,,,,,,,
,,,,,00024,2023-09-28_14h59.09.599,vbt_B2_day4,2022.2.4,Win32,59.15409642,,,,,,down,0,6.8489,,-0.298148155,-0.166666667,1,0,0,0,92,92,157,1,uitlaat,images/br_uitlaat.png,images/cb_uitlaat.png,0,,,,,,,,,,,,,,,,,,,,,,
,,,,,00024,2023-09-28_14h59.09.599,vbt_B2_day4,2022.2.4,Win32,59.15409642,,,,,,down,0,0.4236,,-0.298148155,-0.166666667,1,0,0,0,93,93,148,1,smullen,images/br_smullen.png,images/cb_smullen.png,0,,,,,,,,,,,,,,,,,,,,,,
,,,,,00024,2023-09-28_14h59.09.599,vbt_B2_day4,2022.2.4,Win32,59.15409642,,,,,,down,0,7.867799999,,-0.298148155,-0.166666667,1,0,0,0,94,94,177,1,maaltijd,images/br_maaltijd.png,images/cb_maaltijd.png,0,,,,,,,,,,,,,,,,,,,,,,
,,,,,00024,2023-09-28_14h59.09.599,vbt_B2_day4,2022.2.4,Win32,59.15409642,,,,,,down,0,1.4346,,-0.298148155,-0.166666667,1,0,0,0,95,95,111,1,ticket,images/br_ticket.png,images/cb_ticket.png,0,,,,,,,,,,,,,,,,,,,,,,
,,,,,00024,2023-09-28_14h59.09.599,vbt_B2_day4,2022.2.4,Win32,59.15409642,,,,,,down,0,0.000799999,,-0.298148155,-0.166666667,1,0,0,0,96,96,31,1,poes,images/br_poes.png,images/cb_poes.png,0,,,,,,,,,,,,,,,,,,,,,,
,,,,,00024,2023-09-28_14h59.09.599,vbt_B2_day4,2022.2.4,Win32,59.15409642,,,,,,down,0,5.9476,,-0.298148155,-0.166666667,1,0,0,0,97,97,161,1,attentie,images/br_attentie.png,images/cb_attentie.png,0,,,,,,,,,,,,,,,,,,,,,,
,,,,,00024,2023-09-28_14h59.09.599,vbt_B2_day4,2022.2.4,Win32,59.15409642,,,,,,down,0,1.966800001,,-0.298148155,-0.166666667,1,0,0,0,98,98,189,1,aanraden,images/br_aanraden.png,images/cb_aanraden.png,0,,,,,,,,,,,,,,,,,,,,,,
,,,,,00024,2023-09-28_14h59.09.599,vbt_B2_day4,2022.2.4,Win32,59.15409642,,,,,,down,0,1.044799999,,-0.298148155,-0.166666667,1,0,0,0,99,99,101,1,staren,images/br_staren.png,images/cb_staren.png,0,,,,,,,,,,,,,,,,,,,,,,
,,,,,00024,2023-09-28_14h59.09.599,vbt_B2_day4,2022.2.4,Win32,59.15409642,,,,,,down,0,3.9385,,-0.298148155,-0.166666667,1,0,0,0,100,100,154,1,aflopen,images/br_aflopen.png,images/cb_aflopen.png,0,,,,,,,,,,,,,,,,,,,,,,
,,,,,00024,2023-09-28_14h59.09.599,vbt_B2_day4,2022.2.4,Win32,59.15409642,,,,,,down,0,0.0011,,-0.298148155,-0.166666667,1,0,0,0,101,101,42,1,bleek,images/br_bleek.png,images/cb_bleek.png,0,,,,,,,,,,,,,,,,,,,,,,
,,,,,00024,2023-09-28_14h59.09.599,vbt_B2_day4,2022.2.4,Win32,59.15409642,,,,,,down,0,0.438300001,,-0.298148155,-0.166666667,1,0,0,0,102,102,74,1,graaf,images/br_graaf.png,images/cb_graaf.png,0,,,,,,,,,,,,,,,,,,,,,,
,,,,,00024,2023-09-28_14h59.09.599,vbt_B2_day4,2022.2.4,Win32,59.15409642,,,,,,down,0,12.5654,,-0.304629608,-0.166666667,1,0,0,0,103,103,172,1,weigeren,images/br_weigeren.png,images/cb_weigeren.png,0,,,,,,,,,,,,,,,,,,,,,,
,,,,,00024,2023-09-28_14h59.09.599,vbt_B2_day4,2022.2.4,Win32,59.15409642,,,,,,down,0,3.5504,,-0.304629608,-0.166666667,1,0,0,0,104,104,117,1,kennis,images/br_kennis.png,images/cb_kennis.png,0,,,,,,,,,,,,,,,,,,,,,,
,,,,,00024,2023-09-28_14h59.09.599,vbt_B2_day4,2022.2.4,Win32,59.15409642,,,,,,down,0,1.5744,,-0.304629608,-0.166666667,1,0,0,0,105,105,119,1,liefje,images/br_liefje.png,images/cb_liefje.png,0,,,,,,,,,,,,,,,,,,,,,,
,,,,,00024,2023-09-28_14h59.09.599,vbt_B2_day4,2022.2.4,Win32,59.15409642,,,,,,down,0,1.008,,-0.304629608,-0.166666667,1,0,0,0,106,106,20,1,site,images/br_site.png,images/cb_site.png,0,,,,,,,,,,,,,,,,,,,,,,
,,,,,00024,2023-09-28_14h59.09.599,vbt_B2_day4,2022.2.4,Win32,59.15409642,,,,,,down,0,1.2681,,-0.304629608,-0.166666667,1,0,0,0,107,107,84,1,lokken,images/br_lokken.png,images/cb_lokken.png,0,,,,,,,,,,,,,,,,,,,,,,
,,,,,00024,2023-09-28_14h59.09.599,vbt_B2_day4,2022.2.4,Win32,59.15409642,,,,,,down,0,1.1829,,-0.304629608,-0.166666667,1,0,0,0,108,108,106,1,zingen,images/br_zingen.png,images/cb_zingen.png,1,zenden,,,,,,,,,,,,,,,,,,,,,
,,,,,00024,2023-09-28_14h59.09.599,vbt_B2_day4,2022.2.4,Win32,59.15409642,,,,,,down,0,11.8997,,-0.304629608,-0.166666667,1,0,0,0,109,109,30,1,uien,images/br_uien.png,images/cb_uien.png,0,,,,,,,,,,,,,,,,,,,,,,
,,,,,00024,2023-09-28_14h59.09.599,vbt_B2_day4,2022.2.4,Win32,59.15409642,,,,,,down,0,1.0714,,-0.304629608,-0.166666667,1,0,0,0,110,110,33,1,vlek,images/br_vlek.png,images/cb_vlek.png,0,,,,,,,,,,,,,,,,,,,,,,
,,,,,00024,2023-09-28_14h59.09.599,vbt_B2_day4,2022.2.4,Win32,59.15409642,,,,,,down,0,0.0359,,-0.304629608,-0.163888931,1,0,0,0,111,111,168,1,bisschop,images/br_bisschop.png,images/cb_bisschop.png,0,,,,,,,,,,,,,,,,,,,,,,
,,,,,00024,2023-09-28_14h59.09.599,vbt_B2_day4,2022.2.4,Win32,59.15409642,,,,,,down,0,1.0179,,-0.304629608,-0.163888931,1,0,0,0,112,112,41,1,maken,images/br_maken.png,images/cb_maken.png,0,,,,,,,,,,,,,,,,,,,,,,
,,,,,00024,2023-09-28_14h59.09.599,vbt_B2_day4,2022.2.4,Win32,59.15409642,,,,,,down,0,0.622300001,,-0.304629608,-0.163888931,1,0,0,0,113,113,22,1,stof,images/br_stof.png,images/cb_stof.png,0,,,,,,,,,,,,,,,,,,,,,,
,,,,,00024,2023-09-28_14h59.09.599,vbt_B2_day4,2022.2.4,Win32,59.15409642,,,,,,down,0,1.45,,-0.304629608,-0.163888931,1,0,0,0,114,114,152,1,afnemen,images/br_afnemen.png,images/cb_afnemen.png,0,,,,,,,,,,,,,,,,,,,,,,
,,,,,00024,2023-09-28_14h59.09.599,vbt_B2_day4,2022.2.4,Win32,59.15409642,,,,,,down,0,1.732,,-0.304629608,-0.163888931,1,0,0,0,115,115,127,1,doodmoe,images/br_doodmoe.png,images/cb_doodmoe.png,0,,,,,,,,,,,,,,,,,,,,,,
,,,,,00024,2023-09-28_14h59.09.599,vbt_B2_day4,2022.2.4,Win32,59.15409642,,,,,,down,0,2.9621,,-0.304629608,-0.163888931,1,0,0,0,116,116,52,1,wagon,images/br_wagon.png,images/cb_wagon.png,0,,,,,,,,,,,,,,,,,,,,,,
,,,,,00024,2023-09-28_14h59.09.599,vbt_B2_day4,2022.2.4,Win32,59.15409642,,,,,,down,0,0.282799999,,-0.304629608,-0.163888931,1,0,0,0,117,117,171,1,aarzelen,images/br_aarzelen.png,images/cb_aarzelen.png,0,,,,,,,,,,,,,,,,,,,,,,
,,,,,00024,2023-09-28_14h59.09.599,vbt_B2_day4,2022.2.4,Win32,59.15409642,,,,,,down,0,2.1884,,-0.304629608,-0.163888931,1,0,0,0,118,118,98,1,kreeft,images/br_kreeft.png,images/cb_kreeft.png,0,,,,,,,,,,,,,,,,,,,,,,
,,,,,00024,2023-09-28_14h59.09.599,vbt_B2_day4,2022.2.4,Win32,59.15409642,,,,,,down,0,7.874700001,,-0.304629608,-0.163888931,1,0,0,0,119,119,27,1,dans,images/br_dans.png,images/cb_dans.png,1,dans,,,,,,,,,,,,,,,,,,,,,
,,,,,00024,2023-09-28_14h59.09.599,vbt_B2_day4,2022.2.4,Win32,59.15409642,,,,,,down,0,1.452200001,,-0.304629608,-0.163888931,1,0,0,0,120,120,63,1,flirt,images/br_flirt.png,images/cb_flirt.png,0,,,,,,,,,,,,,,,,,,,,,,
,,,,,00024,2023-09-28_14h59.09.599,vbt_B2_day4,2022.2.4,Win32,59.15409642,,,,,,down,0,9.665,,-0.304629608,-0.163888931,1,0,0,0,121,121,167,1,eenhoorn,images/br_eenhoorn.png,images/cb_eenhoorn.png,0,,,,,,,,,,,,,,,,,,,,,,
,,,,,00024,2023-09-28_14h59.09.599,vbt_B2_day4,2022.2.4,Win32,59.15409642,,,,,,down,0,1.1689,,-0.304629608,-0.163888931,1,0,0,0,122,122,65,1,parel,images/br_parel.png,images/cb_parel.png,1,parel,,,,,,,,,,,,,,,,,,,,,
,,,,,00024,2023-09-28_14h59.09.599,vbt_B2_day4,2022.2.4,Win32,59.15409642,,,,,,down,0,3.267300001,,-0.304629608,-0.163888931,1,0,0,0,123,123,153,1,vervoer,images/br_vervoer.png,images/cb_vervoer.png,0,,,,,,,,,,,,,,,,,,,,,,
,,,,,00024,2023-09-28_14h59.09.599,vbt_B2_day4,2022.2.4,Win32,59.15409642,,,,,,down,0,1.168,,-0.304629608,-0.163888931,1,0,0,0,124,124,53,1,baron,images/br_baron.png,images/cb_baron.png,0,,,,,,,,,,,,,,,,,,,,,,
,,,,,00024,2023-09-28_14h59.09.599,vbt_B2_day4,2022.2.4,Win32,59.15409642,,,,,,down,0,2.8169,,-0.304629608,-0.163888931,1,0,0,0,125,125,184,1,aandelen,images/br_aandelen.png,images/cb_aandelen.png,1,aandelen,,,,,,,,,,,,,,,,,,,,,
,,,,,00024,2023-09-28_14h59.09.599,vbt_B2_day4,2022.2.4,Win32,59.15409642,,,,,,down,0,2.9359,,-0.307407414,-0.172222208,1,0,0,0,126,126,187,1,opkijken,images/br_opkijken.png,images/cb_opkijken.png,1,opkijken,,,,,,,,,,,,,,,,,,,,,
,,,,,00024,2023-09-28_14h59.09.599,vbt_B2_day4,2022.2.4,Win32,59.15409642,,,,,,down,0,0.568199999,,-0.307407414,-0.172222208,1,0,0,0,127,127,141,1,knielen,images/br_knielen.png,images/cb_knielen.png,0,,,,,,,,,,,,,,,,,,,,,,
,,,,,00024,2023-09-28_14h59.09.599,vbt_B2_day4,2022.2.4,Win32,59.15409642,,,,,,down,0,0.023299999,,-0.307407414,-0.172222208,1,0,0,0,128,128,11,1,mode,images/br_mode.png,images/cb_mode.png,0,,,,,,,,,,,,,,,,,,,,,,
,,,,,00024,2023-09-28_14h59.09.599,vbt_B2_day4,2022.2.4,Win32,59.15409642,,,,,,down,0,0.796700001,,-0.307407414,-0.172222208,1,0,0,0,129,129,49,1,laken,images/br_laken.png,images/cb_laken.png,0,,,,,,,,,,,,,,,,,,,,,,
,,,,,00024,2023-09-28_14h59.09.599,vbt_B2_day4,2022.2.4,Win32,59.15409642,,,,,,down,0,1.750700001,,-0.306481467,-0.161111125,1,0,0,0,130,130,6,1,diep,images/br_diep.png,images/cb_diep.png,0,,,,,,,,,,,,,,,,,,,,,,
,,,,,00024,2023-09-28_14h59.09.599,vbt_B2_day4,2022.2.4,Win32,59.15409642,,,,,,down,0,0.0064,,-0.300925926,-0.150000042,1,0,0,0,131,131,21,1,mist,images/br_mist.png,images/cb_mist.png,0,,,,,,,,,,,,,,,,,,,,,,
,,,,,00024,2023-09-28_14h59.09.599,vbt_B2_day4,2022.2.4,Win32,59.15409642,,,,,,down,0,3.9734,,-0.291666667,-0.137962977,1,0,0,0,132,132,108,1,excuus,images/br_excuus.png,images/cb_excuus.png,0,,,,,,,,,,,,,,,,,,,,,,
,,,,,00024,2023-09-28_14h59.09.599,vbt_B2_day4,2022.2.4,Win32,59.15409642,,,,,,down,0,3.4911,,-0.291666667,-0.137962977,1,0,0,0,133,133,140,1,blijven,images/br_blijven.png,images/cb_blijven.png,0,,,,,,,,,,,,,,,,,,,,,,
,,,,,00024,2023-09-28_14h59.09.599,vbt_B2_day4,2022.2.4,Win32,59.15409642,,,,,,down,0,1.168200001,,-0.291666667,-0.137962977,1,0,0,0,134,134,99,1,koffie,images/br_koffie.png,images/cb_koffie.png,0,,,,,,,,,,,,,,,,,,,,,,
,,,,,00024,2023-09-28_14h59.09.599,vbt_B2_day4,2022.2.4,Win32,59.15409642,,,,,,down,0,1.2524,,-0.291666667,-0.137962977,1,0,0,0,135,135,48,1,steel,images/br_steel.png,images/cb_steel.png,0,,,,,,,,,,,,,,,,,,,,,,
,,,,,00024,2023-09-28_14h59.09.599,vbt_B2_day4,2022.2.4,Win32,59.15409642,,,,,,down,0,5.3015,,-0.291666667,-0.137962977,1,0,0,0,136,136,198,1,bedoelen,images/br_bedoelen.png,images/cb_bedoelen.png,0,,,,,,,,,,,,,,,,,,,,,,
,,,,,00024,2023-09-28_14h59.09.599,vbt_B2_day4,2022.2.4,Win32,59.15409642,,,,,,down,0,0.151200001,,-0.291666667,-0.137962977,1,0,0,0,137,137,159,1,sufferd,images/br_sufferd.png,images/cb_sufferd.png,0,,,,,,,,,,,,,,,,,,,,,,
,,,,,00024,2023-09-28_14h59.09.599,vbt_B2_day4,2022.2.4,Win32,59.15409642,,,,,,down,0,3.423300001,,-0.291666667,-0.137962977,1,0,0,0,138,138,131,1,opzicht,images/br_opzicht.png,images/cb_opzicht.png,0,,,,,,,,,,,,,,,,,,,,,,
,,,,,00024,2023-09-28_14h59.09.599,vbt_B2_day4,2022.2.4,Win32,59.15409642,,,,,,down,0,4.2059,,-0.291666667,-0.137962977,1,0,0,0,139,139,188,1,strekken,images/br_strekken.png,images/cb_strekken.png,0,,,,,,,,,,,,,,,,,,,,,,
,,,,,00024,2023-09-28_14h59.09.599,vbt_B2_day4,2022.2.4,Win32,59.15409642,,,,,,down,0,2.400699999,,-0.291666667,-0.137962977,1,0,0,0,140,140,118,1,vinger,images/br_vinger.png,images/cb_vinger.png,0,,,,,,,,,,,,,,,,,,,,,,
,,,,,00024,2023-09-28_14h59.09.599,vbt_B2_day4,2022.2.4,Win32,59.15409642,,,,,,down,0,0.417299999,,-0.291666667,-0.137962977,1,0,0,0,141,141,45,1,piste,images/br_piste.png,images/cb_piste.png,0,,,,,,,,,,,,,,,,,,,,,,
,,,,,00024,2023-09-28_14h59.09.599,vbt_B2_day4,2022.2.4,Win32,59.15409642,,,,,,down,0,0.001700001,,-0.291666667,-0.137962977,1,0,0,0,142,142,39,1,laag,images/br_laag.png,images/cb_laag.png,0,,,,,,,,,,,,,,,,,,,,,,
,,,,,00024,2023-09-28_14h59.09.599,vbt_B2_day4,2022.2.4,Win32,59.15409642,,,,,,down,0,13.523,,-0.291666667,-0.137962977,1,0,0,0,143,143,105,1,wijlen,images/br_wijlen.png,images/cb_wijlen.png,1,wijlen,,,,,,,,,,,,,,,,,,,,,
,,,,,00024,2023-09-28_14h59.09.599,vbt_B2_day4,2022.2.4,Win32,59.15409642,,,,,,down,0,0.360200001,,-0.291666667,-0.137962977,1,0,0,0,144,144,94,1,oceaan,images/br_oceaan.png,images/cb_oceaan.png,0,,,,,,,,,,,,,,,,,,,,,,
,,,,,00024,2023-09-28_14h59.09.599,vbt_B2_day4,2022.2.4,Win32,59.15409642,,,,,,down,0,0.901099998,,-0.291666667,-0.137962977,1,0,0,0,145,145,164,1,anarchie,images/br_anarchie.png,images/cb_anarchie.png,0,,,,,,,,,,,,,,,,,,,,,,
,,,,,00024,2023-09-28_14h59.09.599,vbt_B2_day4,2022.2.4,Win32,59.15409642,,,,,,down,0,1.8174,,-0.291666667,-0.137962977,1,0,0,0,146,146,128,1,prikken,images/br_prikken.png,images/cb_prikken.png,0,,,,,,,,,,,,,,,,,,,,,,
,,,,,00024,2023-09-28_14h59.09.599,vbt_B2_day4,2022.2.4,Win32,59.15409642,,,,,,down,0,6.059700001,,-0.291666667,-0.137962977,1,0,0,0,147,147,182,1,bijkomen,images/br_bijkomen.png,images/cb_bijkomen.png,0,,,,,,,,,,,,,,,,,,,,,,
,,,,,00024,2023-09-28_14h59.09.599,vbt_B2_day4,2022.2.4,Win32,59.15409642,,,,,,down,0,10.5328,,-0.291666667,-0.137962977,1,0,0,0,148,148,115,1,kleren,images/br_kleren.png,images/cb_kleren.png,0,,,,,,,,,,,,,,,,,,,,,,
,,,,,00024,2023-09-28_14h59.09.599,vbt_B2_day4,2022.2.4,Win32,59.15409642,,,,,,down,0,2.483800001,,-0.291666667,-0.137962977,1,0,0,0,149,149,7,1,geld,images/br_geld.png,images/cb_geld.png,0,,,,,,,,,,,,,,,,,,,,,,
,,,,,00024,2023-09-28_14h59.09.599,vbt_B2_day4,2022.2.4,Win32,59.15409642,,,,,,down,0,1.898299999,,-0.295370384,-0.137962977,1,0,0,0,150,150,192,1,schaamte,images/br_schaamte.png,images/cb_schaamte.png,0,,,,,,,,,,,,,,,,,,,,,,
,,,,,00024,2023-09-28_14h59.09.599,vbt_B2_day4,2022.2.4,Win32,59.15409642,,,,,,down,0,1.386799999,,-0.295370384,-0.137962977,1,0,0,0,151,151,71,1,bever,images/br_bever.png,images/cb_bever.png,0,,,,,,,,,,,,,,,,,,,,,,
,,,,,00024,2023-09-28_14h59.09.599,vbt_B2_day4,2022.2.4,Win32,59.15409642,,,,,,down,0,13.1856,,-0.295370384,-0.137962977,1,0,0,0,152,152,181,1,toegeven,images/br_toegeven.png,images/cb_toegeven.png,0,,,,,,,,,,,,,,,,,,,,,,
,,,,,00024,2023-09-28_14h59.09.599,vbt_B2_day4,2022.2.4,Win32,59.15409642,,,,,,down,0,13.7856,,-0.295370384,-0.133333347,1,0,0,0,153,153,58,1,tekst,images/br_tekst.png,images/cb_tekst.png,0,,,,,,,,,,,,,,,,,,,,,,
,,,,,00024,2023-09-28_14h59.09.599,vbt_B2_day4,2022.2.4,Win32,59.15409642,,,,,,down,0,6.836200001,,-0.295370384,-0.133333347,1,0,0,0,154,154,89,1,slapen,images/br_slapen.png,images/cb_slapen.png,0,,,,,,,,,,,,,,,,,,,,,,
,,,,,00024,2023-09-28_14h59.09.599,vbt_B2_day4,2022.2.4,Win32,59.15409642,,,,,,down,0,1.268,,-0.29351849,-0.131481524,1,0,0,0,155,155,158,1,innemen,images/br_innemen.png,images/cb_innemen.png,0,,,,,,,,,,,,,,,,,,,,,,
,,,,,00024,2023-09-28_14h59.09.599,vbt_B2_day4,2022.2.4,Win32,59.15409642,,,,,,down,0,10.5666,,-0.292592578,-0.125,1,0,0,0,156,156,165,1,feestdag,images/br_feestdag.png,images/cb_feestdag.png,0,,,,,,,,,,,,,,,,,,,,,,
,,,,,00024,2023-09-28_14h59.09.599,vbt_B2_day4,2022.2.4,Win32,59.15409642,,,,,,down,0,0.200800001,,-0.290740755,-0.125,1,0,0,0,157,157,1,1,zaal,images/br_zaal.png,images/cb_zaal.png,0,,,,,,,,,,,,,,,,,,,,,,
,,,,,00024,2023-09-28_14h59.09.599,vbt_B2_day4,2022.2.4,Win32,59.15409642,,,,,,down,0,0.164700001,,-0.287037037,-0.125,1,0,0,0,158,158,35,1,lust,images/br_lust.png,images/cb_lust.png,0,,,,,,,,,,,,,,,,,,,,,,
,,,,,00024,2023-09-28_14h59.09.599,vbt_B2_day4,2022.2.4,Win32,59.15409642,,,,,,down,0,1.245700001,,-0.270370342,-0.135185171,1,0,0,0,159,159,93,1,waarop,images/br_waarop.png,images/cb_waarop.png,0,,,,,,,,,,,,,,,,,,,,,,
,,,,,00024,2023-09-28_14h59.09.599,vbt_B2_day4,2022.2.4,Win32,59.15409642,,,,,,down,0,4.6855,,-0.251851824,-0.147222236,1,0,0,0,160,160,179,1,woestijn,images/br_woestijn.png,images/cb_woestijn.png,0,,,,,,,,,,,,,,,,,,,,,,
,,,,,00024,2023-09-28_14h59.09.599,vbt_B2_day4,2022.2.4,Win32,59.15409642,,,,,,down,0,10.4525,,-0.24537037,-0.152777778,1,0,0,0,161,161,196,1,nakijken,images/br_nakijken.png,images/cb_nakijken.png,0,,,,,,,,,,,,,,,,,,,,,,
,,,,,00024,2023-09-28_14h59.09.599,vbt_B2_day4,2022.2.4,Win32,59.15409642,,,,,,down,0,1.4219,,-0.232407393,-0.162962949,1,0,0,0,162,162,197,1,spanning,images/br_spanning.png,images/cb_spanning.png,0,,,,,,,,,,,,,,,,,,,,,,
,,,,,00024,2023-09-28_14h59.09.599,vbt_B2_day4,2022.2.4,Win32,59.15409642,,,,,,down,0,0.601400002,,-0.228703675,-0.162962949,1,0,0,0,163,163,28,1,stal,images/br_stal.png,images/cb_stal.png,0,,,,,,,,,,,,,,,,,,,,,,
,,,,,00024,2023-09-28_14h59.09.599,vbt_B2_day4,2022.2.4,Win32,59.15409642,,,,,,down,0,7.0539,,-0.219444416,-0.164814843,1,0,0,0,164,164,37,1,mijn,images/br_mijn.png,images/cb_mijn.png,0,,,,,,,,,,,,,,,,,,,,,,
,,,,,00024,2023-09-28_14h59.09.599,vbt_B2_day4,2022.2.4,Win32,59.15409642,,,,,,down,0,2.767799999,,-0.212037051,-0.168518561,1,0,0,0,165,165,155,1,gerucht,images/br_gerucht.png,images/cb_gerucht.png,0,,,,,,,,,,,,,,,,,,,,,,
,,,,,00024,2023-09-28_14h59.09.599,vbt_B2_day4,2022.2.4,Win32,59.15409642,,,,,,down,0,2.861200001,,-0.201851809,-0.170370384,1,0,0,0,166,166,121,1,twijfel,images/br_twijfel.png,images/cb_twijfel.png,0,,,,,,,,,,,,,,,,,,,,,,
,,,,,00024,2023-09-28_14h59.09.599,vbt_B2_day4,2022.2.4,Win32,59.15409642,,,,,,down,0,0.1864,,-0.196296268,-0.169444473,1,0,0,0,167,167,109,1,totaal,images/br_totaal.png,images/cb_totaal.png,0,,,,,,,,,,,,,,,,,,,,,,
,,,,,00024,2023-09-28_14h59.09.599,vbt_B2_day4,2022.2.4,Win32,59.15409642,,,,,,down,0,0.0355,,-0.206481439,-0.165740755,1,0,0,0,168,168,78,1,leren,images/br_leren.png,images/cb_leren.png,0,,,,,,,,,,,,,,,,,,,,,,
,,,,,00024,2023-09-28_14h59.09.599,vbt_B2_day4,2022.2.4,Win32,59.15409642,,,,,,down,0,0.302,,-0.195370356,-0.173148191,1,0,0,0,169,169,77,1,woede,images/br_woede.png,images/cb_woede.png,0,,,,,,,,,,,,,,,,,,,,,,
,,,,,00024,2023-09-28_14h59.09.599,vbt_B2_day4,2022.2.4,Win32,59.15409642,,,,,,down,0,9.8176,,-0.19722218,-0.172222208,1,0,0,0,170,170,183,1,getuigen,images/br_getuigen.png,images/cb_getuigen.png,0,,,,,,,,,,,,,,,,,,,,,,
,,,,,00024,2023-09-28_14h59.09.599,vbt_B2_day4,2022.2.4,Win32,59.15409642,,,,,,down,0,2.103599998,,-0.219444416,-0.163888931,1,0,0,0,171,171,90,1,geluid,images/br_geluid.png,images/cb_geluid.png,0,,,,,,,,,,,,,,,,,,,,,,
,,,,,00024,2023-09-28_14h59.09.599,vbt_B2_day4,2022.2.4,Win32,59.15409642,,,,,,down,0,0.0029,,-0.219444416,-0.163888931,1,0,0,0,172,172,19,1,geit,images/br_geit.png,images/cb_geit.png,0,,,,,,,,,,,,,,,,,,,,,,
,,,,,00024,2023-09-28_14h59.09.599,vbt_B2_day4,2022.2.4,Win32,59.15409642,,,,,,down,0,6.095599998,,-0.219444416,-0.163888931,1,0,0,0,173,173,130,1,keihard,images/br_keihard.png,images/cb_keihard.png,0,,,,,,,,,,,,,,,,,,,,,,
,,,,,00024,2023-09-28_14h59.09.599,vbt_B2_day4,2022.2.4,Win32,59.15409642,,,,,,down,0,1.801,,-0.219444416,-0.163888931,1,0,0,0,174,174,175,1,heengaan,images/br_heengaan.png,images/cb_heengaan.png,0,,,,,,,,,,,,,,,,,,,,,,
,,,,,00024,2023-09-28_14h59.09.599,vbt_B2_day4,2022.2.4,Win32,59.15409642,,,,,,down,0,5.5331,,-0.219444416,-0.163888931,1,0,0,0,175,175,70,1,ijdel,images/br_ijdel.png,images/cb_ijdel.png,0,,,,,,,,,,,,,,,,,,,,,,
,,,,,00024,2023-09-28_14h59.09.599,vbt_B2_day4,2022.2.4,Win32,59.15409642,,,,,,down,0,0.905,,-0.219444416,-0.163888931,1,0,0,0,176,176,64,1,wegen,images/br_wegen.png,images/cb_wegen.png,1,wegen,,,,,,,,,,,,,,,,,,,,,
,,,,,00024,2023-09-28_14h59.09.599,vbt_B2_day4,2022.2.4,Win32,59.15409642,,,,,,down,0,0.8345,,-0.199074074,-0.175000014,1,0,0,0,177,177,38,1,baai,images/br_baai.png,images/cb_baai.png,0,,,,,,,,,,,,,,,,,,,,,,
,,,,,00024,2023-09-28_14h59.09.599,vbt_B2_day4,2022.2.4,Win32,59.15409642,,,,,,down,0,1.687200001,,-0.199074074,-0.175000014,1,0,0,0,178,178,104,1,zweven,images/br_zweven.png,images/cb_zweven.png,1,zweven,,,,,,,,,,,,,,,,,,,,,
,,,,,00024,2023-09-28_14h59.09.599,vbt_B2_day4,2022.2.4,Win32,59.15409642,,,,,,down,0,0.072299999,,-0.199074074,-0.175000014,1,0,0,0,179,179,17,1,taal,images/br_taal.png,images/cb_taal.png,0,,,,,,,,,,,,,,,,,,,,,,
,,,,,00024,2023-09-28_14h59.09.599,vbt_B2_day4,2022.2.4,Win32,59.15409642,,,,,,down,0,0.104199999,,-0.199074074,-0.175000014,1,0,0,0,180,180,4,1,moes,images/br_moes.png,images/cb_moes.png,0,,,,,,,,,,,,,,,,,,,,,,
,,,,,00024,2023-09-28_14h59.09.599,vbt_B2_day4,2022.2.4,Win32,59.15409642,,,,,,down,0,3.116700001,,-0.199074074,-0.175000014,1,0,0,0,181,181,92,1,geheim,images/br_geheim.png,images/cb_geheim.png,0,,,,,,,,,,,,,,,,,,,,,,
,,,,,00024,2023-09-28_14h59.09.599,vbt_B2_day4,2022.2.4,Win32,59.15409642,,,,,,down,0,0.366299999,,-0.199074074,-0.175000014,1,0,0,0,182,182,36,1,vuur,images/br_vuur.png,images/cb_vuur.png,0,,,,,,,,,,,,,,,,,,,,,,
,,,,,00024,2023-09-28_14h59.09.599,vbt_B2_day4,2022.2.4,Win32,59.15409642,,,,,,down,0,3.1854,,-0.199074074,-0.175000014,1,0,0,0,183,183,193,1,weeshuis,images/br_weeshuis.png,images/cb_weeshuis.png,0,,,,,,,,,,,,,,,,,,,,,,
,,,,,00024,2023-09-28_14h59.09.599,vbt_B2_day4,2022.2.4,Win32,59.15409642,,,,,,down,0,3.2845,,-0.199074074,-0.175000014,1,0,0,0,184,184,151,1,aanzoek,images/br_aanzoek.png,images/cb_aanzoek.png,0,,,,,,,,,,,,,,,,,,,,,,
,,,,,00024,2023-09-28_14h59.09.599,vbt_B2_day4,2022.2.4,Win32,59.15409642,,,,,,down,0,2.0844,,-0.199074074,-0.175000014,1,0,0,0,185,185,44,1,flits,images/br_flits.png,images/cb_flits.png,0,,,,,,,,,,,,,,,,,,,,,,
,,,,,00024,2023-09-28_14h59.09.599,vbt_B2_day4,2022.2.4,Win32,59.15409642,,,,,,down,0,0.5389,,-0.199074074,-0.175000014,1,0,0,0,186,186,110,1,zuster,images/br_zuster.png,images/cb_zuster.png,0,,,,,,,,,,,,,,,,,,,,,,
,,,,,00024,2023-09-28_14h59.09.599,vbt_B2_day4,2022.2.4,Win32,59.15409642,,,,,,down,0,1.368199999,,-0.199074074,-0.175000014,1,0,0,0,187,187,146,1,opkomen,images/br_opkomen.png,images/cb_opkomen.png,1,opkomen,,,,,,,,,,,,,,,,,,,,,
,,,,,00024,2023-09-28_14h59.09.599,vbt_B2_day4,2022.2.4,Win32,59.15409642,,,,,,down,0,2.134299999,,-0.214814787,-0.181481467,1,0,0,0,188,188,51,1,samen,images/br_samen.png,images/cb_samen.png,0,,,,,,,,,,,,,,,,,,,,,,
,,,,,00024,2023-09-28_14h59.09.599,vbt_B2_day4,2022.2.4,Win32,59.15409642,,,,,,down,0,3.7439,,-0.214814787,-0.181481467,1,0,0,0,189,189,34,1,vorm,images/br_vorm.png,images/cb_vorm.png,0,,,,,,,,,,,,,,,,,,,,,,
,,,,,00024,2023-09-28_14h59.09.599,vbt_B2_day4,2022.2.4,Win32,59.15409642,,,,,,down,0,1.6205,,-0.214814787,-0.181481467,1,0,0,0,190,190,85,1,heilig,images/br_heilig.png,images/cb_heilig.png,0,,,,,,,,,,,,,,,,,,,,,,
,,,,,00024,2023-09-28_14h59.09.599,vbt_B2_day4,2022.2.4,Win32,59.15409642,,,,,,down,0,1.952099998,,-0.214814787,-0.181481467,1,0,0,0,191,191,124,1,bloeien,images/br_bloeien.png,images/cb_bloeien.png,0,,,,,,,,,,,,,,,,,,,,,,
,,,,,00024,2023-09-28_14h59.09.599,vbt_B2_day4,2022.2.4,Win32,59.15409642,,,,,,down,0,4.1666,,-0.214814787,-0.181481467,1,0,0,0,192,192,61,1,groen,images/br_groen.png,images/cb_groen.png,0,,,,,,,,,,,,,,,,,,,,,,
,,,,,00024,2023-09-28_14h59.09.599,vbt_B2_day4,2022.2.4,Win32,59.15409642,,,,,,down,0,5.034,,-0.25462963,-0.186111097,1,0,0,0,193,193,0,1,slak,images/br_slak.png,images/cb_slak.png,0,,,,,,,,,,,,,,,,,,,,,,
,,,,,00024,2023-09-28_14h59.09.599,vbt_B2_day4,2022.2.4,Win32,59.15409642,,,,,,down,0,3.617200001,,-0.25462963,-0.186111097,1,0,0,0,194,194,173,1,apparaat,images/br_apparaat.png,images/cb_apparaat.png,0,,,,,,,,,,,,,,,,,,,,,,
,,,,,00024,2023-09-28_14h59.09.599,vbt_B2_day4,2022.2.4,Win32,59.15409642,,,,,,down,0,1.185200001,,-0.25462963,-0.186111097,1,0,0,0,195,195,54,1,gebit,images/br_gebit.png,images/cb_gebit.png,0,,,,,,,,,,,,,,,,,,,,,,
,,,,,00024,2023-09-28_14h59.09.599,vbt_B2_day4,2022.2.4,Win32,59.15409642,,,,,,down,0,0.038299999,,-0.25462963,-0.186111097,1,0,0,0,196,196,12,1,kust,images/br_kust.png,images/cb_kust.png,0,,,,,,,,,,,,,,,,,,,,,,
,,,,,00024,2023-09-28_14h59.09.599,vbt_B2_day4,2022.2.4,Win32,59.15409642,,,,,,down,0,2.234,,-0.25462963,-0.186111097,1,0,0,0,197,197,126,1,kasteel,images/br_kasteel.png,images/cb_kasteel.png,0,,,,,,,,,,,,,,,,,,,,,,
,,,,,00024,2023-09-28_14h59.09.599,vbt_B2_day4,2022.2.4,Win32,59.15409642,,,,,,down,0,3.2355,,-0.25462963,-0.186111097,1,0,0,0,198,198,107,1,maling,images/br_maling.png,images/cb_maling.png,1,maling,,,,,,,,,,,,,,,,,,,,,
,,,,,00024,2023-09-28_14h59.09.599,vbt_B2_day4,2022.2.4,Win32,59.15409642,,,,,,down,0,1.090099998,,-0.25462963,-0.186111097,1,0,0,0,199,199,113,1,koppen,images/br_koppen.png,images/cb_koppen.png,0,,,,,,,,,,,,,,,,,,,,,,
,,,,,00024,2023-09-28_14h59.09.599,vbt_B2_day4,2022.2.4,Win32,59.15409642,,,,,,,,,,,,,,,,,,,,,,,,,0.156481496,-0.046296296,1,0,0,,,,,,,,,,,,,,,,
,,,,,00024,2023-09-28_14h59.09.599,vbt_B2_day4,2022.2.4,Win32,59.15409642,,,,,,,,,,,,,,,,,,,,,,,,,,,,,,0.156481496,-0.046296296,1,0,0,,,,,,,,,,,
,,,,,00024,2023-09-28_14h59.09.599,vbt_B2_day4,2022.2.4,Win32,59.15409642,,,,,,,,,,,,,,,,,,,,getucht,images/br_getucht.png,images/cb_getucht.png,,getucht,,,,,,,,,,,0.156481496,-0.046296296,1,0,0,getucht,0,0,0,35,1
,,,,,00024,2023-09-28_14h59.09.599,vbt_B2_day4,2022.2.4,Win32,59.15409642,,,,,,,,,,,,,,,,,,,,oceaan,images/br_oceaan.png,images/cb_oceaan.png,,oceaan,,,,,,,,,,,0.156481496,-0.046296296,1,0,0,oceaan,0,1,1,10,1
,,,,,00024,2023-09-28_14h59.09.599,vbt_B2_day4,2022.2.4,Win32,59.15409642,,,,,,,,,,,,,,,,,,,,schotel,images/br_schotel.png,images/cb_schotel.png,,schotel,,,,,,,,,,,0.156481496,-0.046296296,1,0,0,schotel,0,2,2,52,1
,,,,,00024,2023-09-28_14h59.09.599,vbt_B2_day4,2022.2.4,Win32,59.15409642,,,,,,,,,,,,,,,,,,,,waarop,images/br_waarop.png,images/cb_waarop.png,,waarop,,,,,,,,,,,0.156481496,-0.046296296,1,0,0,waarop,0,3,3,9,1
,,,,,00024,2023-09-28_14h59.09.599,vbt_B2_day4,2022.2.4,Win32,59.15409642,,,,,,,,,,,,,,,,,,,,drummer,images/br_drummer.png,images/cb_drummer.png,,drummer,,,,,,,,,,,0.156481496,-0.046296296,1,0,0,drummer,0,4,4,53,1
,,,,,00024,2023-09-28_14h59.09.599,vbt_B2_day4,2022.2.4,Win32,59.15409642,,,,,,,,,,,,,,,,,,,,vreten,images/br_vreten.png,images/cb_vreten.png,,vreten,,,,,,,,,,,0.146296325,-0.046296296,1,0,0,vreten,0,5,5,11,1
,,,,,00024,2023-09-28_14h59.09.599,vbt_B2_day4,2022.2.4,Win32,59.15409642,,,,,,,,,,,,,,,,,,,,pittig,images/br_pittig.png,images/cb_pittig.png,,pittig,,,,,,,,,,,0.122222265,-0.036111125,1,0,0,pittig,0,6,6,51,1
,,,,,00024,2023-09-28_14h59.09.599,vbt_B2_day4,2022.2.4,Win32,59.15409642,,,,,,,,,,,,,,,,,,,,rijp,images/br_rijp.png,images/cb_rijp.png,,rijp,,,,,,,,,,,0.122222265,-0.036111125,1,0,0,rijp,0,7,7,2,1
,,,,,00024,2023-09-28_14h59.09.599,vbt_B2_day4,2022.2.4,Win32,59.15409642,,,,,,,,,,,,,,,,,,,,haza,images/br_haza.png,images/cb_haza.png,,haza,,,,,,,,,,,0.122222265,-0.036111125,1,0,0,haza,0,8,8,21,1
,,,,,00024,2023-09-28_14h59.09.599,vbt_B2_day4,2022.2.4,Win32,59.15409642,,,,,,,,,,,,,,,,,,,,baron,images/br_baron.png,images/cb_baron.png,,baron,,,,,,,,,,,0.122222265,-0.036111125,1,0,0,baron,0,9,9,5,1
,,,,,00024,2023-09-28_14h59.09.599,vbt_B2_day4,2022.2.4,Win32,59.15409642,,,,,,,,,,,,,,,,,,,,fran,images/br_fran.png,images/cb_fran.png,,fran,,,,,,,,,,,0.122222265,-0.036111125,1,0,0,fran,0,10,10,22,1
,,,,,00024,2023-09-28_14h59.09.599,vbt_B2_day4,2022.2.4,Win32,59.15409642,,,,,,,,,,,,,,,,,,,,seizoon,images/br_seizoon.png,images/cb_seizoon.png,,seizoon,,,,,,,,,,,0.122222265,-0.036111125,1,0,0,seizoon,0,11,11,33,1
,,,,,00024,2023-09-28_14h59.09.599,vbt_B2_day4,2022.2.4,Win32,59.15409642,,,,,,,,,,,,,,,,,,,,broodje,images/br_broodje.png,images/cb_broodje.png,,broodje,,,,,,,,,,,0.122222265,-0.036111125,1,0,0,broodje,0,12,12,55,1
,,,,,00024,2023-09-28_14h59.09.599,vbt_B2_day4,2022.2.4,Win32,59.15409642,,,,,,,,,,,,,,,,,,,,gebog,images/br_gebog.png,images/cb_gebog.png,,gebod,,,,,,,,,,,0.122222265,-0.036111125,1,0,0,gebod,0,13,13,24,1
,,,,,00024,2023-09-28_14h59.09.599,vbt_B2_day4,2022.2.4,Win32,59.15409642,,,,,,,,,,,,,,,,,,,,schenden,images/br_schenden.png,images/cb_schenden.png,,schenden,,,,,,,,,,,0.122222265,-0.036111125,1,0,0,schenden,0,14,14,57,1
,,,,,00024,2023-09-28_14h59.09.599,vbt_B2_day4,2022.2.4,Win32,59.15409642,,,,,,,,,,,,,,,,,,,,grappen,images/br_grappen.png,images/cb_grappen.png,,grappen,,,,,,,,,,,0.122222265,-0.036111125,1,0,0,grappen,0,15,15,12,1
,,,,,00024,2023-09-28_14h59.09.599,vbt_B2_day4,2022.2.4,Win32,59.15409642,,,,,,,,,,,,,,,,,,,,kust,images/br_kust.png,images/cb_kust.png,,kust,,,,,,,,,,,0.118518547,-0.041666667,1,0,0,kust,0,16,16,0,1
,,,,,00024,2023-09-28_14h59.09.599,vbt_B2_day4,2022.2.4,Win32,59.15409642,,,,,,,,,,,,,,,,,,,,steen,images/br_steen.png,images/cb_steen.png,,steek,,,,,,,,,,,0.118518547,-0.041666667,1,0,0,steek,0,17,17,44,1
,,,,,00024,2023-09-28_14h59.09.599,vbt_B2_day4,2022.2.4,Win32,59.15409642,,,,,,,,,,,,,,,,,,,,kaal,images/br_kaal.png,images/cb_kaal.png,,kaal,,,,,,,,,,,0.109259288,-0.054629644,1,0,0,kaal,0,18,18,1,1
,,,,,00024,2023-09-28_14h59.09.599,vbt_B2_day4,2022.2.4,Win32,59.15409642,,,,,,,,,,,,,,,,,,,,opkicht,images/br_opkicht.png,images/cb_opkicht.png,,opkicht,,,,,,,,,,,0.109259288,-0.054629644,1,0,0,opkicht,0,19,19,34,1
,,,,,00024,2023-09-28_14h59.09.599,vbt_B2_day4,2022.2.4,Win32,59.15409642,,,,,,,,,,,,,,,,,,,,paalbaak,images/br_paalbaak.png,images/cb_paalbaak.png,,paalbaak,,,,,,,,,,,0.109259288,-0.054629644,1,0,0,paalbaak,0,20,20,39,1
,,,,,00024,2023-09-28_14h59.09.599,vbt_B2_day4,2022.2.4,Win32,59.15409642,,,,,,,,,,,,,,,,,,,,bisschap,images/br_bisschap.png,images/cb_bisschap.png,,bisschap,,,,,,,,,,,0.109259288,-0.054629644,1,0,0,bisschap,0,21,21,36,1
,,,,,00024,2023-09-28_14h59.09.599,vbt_B2_day4,2022.2.4,Win32,59.15409642,,,,,,,,,,,,,,,,,,,,strok,images/br_strok.png,images/cb_strok.png,,strok,,,,,,,,,,,0.109259288,-0.054629644,1,0,0,strok,0,22,22,25,1
,,,,,00024,2023-09-28_14h59.09.599,vbt_B2_day4,2022.2.4,Win32,59.15409642,,,,,,,,,,,,,,,,,,,,ezel,images/br_ezel.png,images/cb_ezel.png,,ezel,,,,,,,,,,,0.119444459,-0.054629644,1,0,0,ezel,0,23,23,42,1
,,,,,00024,2023-09-28_14h59.09.599,vbt_B2_day4,2022.2.4,Win32,59.15409642,,,,,,,,,,,,,,,,,,,,gedicht,images/br_gedicht.png,images/cb_gedicht.png,,gedicht,,,,,,,,,,,0.117592635,-0.054629644,1,0,0,gedicht,0,24,24,15,1
,,,,,00024,2023-09-28_14h59.09.599,vbt_B2_day4,2022.2.4,Win32,59.15409642,,,,,,,,,,,,,,,,,,,,opruimen,images/br_opruimen.png,images/cb_opruimen.png,,opruimen,,,,,,,,,,,0.117592635,-0.054629644,1,0,0,opruimen,0,25,25,59,1
,,,,,00024,2023-09-28_14h59.09.599,vbt_B2_day4,2022.2.4,Win32,59.15409642,,,,,,,,,,,,,,,,,,,,wagon,images/br_wagon.png,images/cb_wagon.png,,wagon,,,,,,,,,,,0.117592635,-0.054629644,1,0,0,wagon,0,26,26,4,1
,,,,,00024,2023-09-28_14h59.09.599,vbt_B2_day4,2022.2.4,Win32,59.15409642,,,,,,,,,,,,,,,,,,,,snee,images/br_snee.png,images/cb_snee.png,,snee,,,,,,,,,,,0.117592635,-0.054629644,1,0,0,snee,0,27,27,40,1
,,,,,00024,2023-09-28_14h59.09.599,vbt_B2_day4,2022.2.4,Win32,59.15409642,,,,,,,,,,,,,,,,,,,,soda,images/br_soda.png,images/cb_soda.png,,soda,,,,,,,,,,,0.131481524,-0.054629644,1,0,0,soda,0,28,28,3,1
,,,,,00024,2023-09-28_14h59.09.599,vbt_B2_day4,2022.2.4,Win32,59.15409642,,,,,,,,,,,,,,,,,,,,tucket,images/br_tucket.png,images/cb_tucket.png,,tucket,,,,,,,,,,,0.131481524,-0.054629644,1,0,0,tucket,0,29,29,30,1
,,,,,00024,2023-09-28_14h59.09.599,vbt_B2_day4,2022.2.4,Win32,59.15409642,,,,,,,,,,,,,,,,,,,,gebit,images/br_gebit.png,images/cb_gebit.png,,gebit,,,,,,,,,,,0.131481524,-0.054629644,1,0,0,gebit,0,30,30,6,1
,,,,,00024,2023-09-28_14h59.09.599,vbt_B2_day4,2022.2.4,Win32,59.15409642,,,,,,,,,,,,,,,,,,,,wozing,images/br_wozing.png,images/cb_wozing.png,,wozeng,,,,,,,,,,,0.079629616,-0.130555541,1,0,0,wozeng,0,31,31,28,1
,,,,,00024,2023-09-28_14h59.09.599,vbt_B2_day4,2022.2.4,Win32,59.15409642,,,,,,,,,,,,,,,,,,,,warel,images/br_warel.png,images/cb_warel.png,,warel,,,,,,,,,,,0.079629616,-0.130555541,1,0,0,warel,0,32,32,26,1
,,,,,00024,2023-09-28_14h59.09.599,vbt_B2_day4,2022.2.4,Win32,59.15409642,,,,,,,,,,,,,,,,,,,,praat,images/br_praat.png,images/cb_praat.png,,praat,,,,,,,,,,,0.089814857,-0.169444473,1,0,0,praat,0,33,33,7,1
,,,,,00024,2023-09-28_14h59.09.599,vbt_B2_day4,2022.2.4,Win32,59.15409642,,,,,,,,,,,,,,,,,,,,dozijn,images/br_dozijn.png,images/cb_dozijn.png,,dozijn,,,,,,,,,,,0.089814857,-0.169444473,1,0,0,dozijn,0,34,34,48,1
,,,,,00024,2023-09-28_14h59.09.599,vbt_B2_day4,2022.2.4,Win32,59.15409642,,,,,,,,,,,,,,,,,,,,eerst,images/br_eerst.png,images/cb_eerst.png,,eerst,,,,,,,,,,,0.090740769,-0.112037023,1,0,0,eerst,0,35,35,47,1
,,,,,00024,2023-09-28_14h59.09.599,vbt_B2_day4,2022.2.4,Win32,59.15409642,,,,,,,,,,,,,,,,,,,,mekst,images/br_mekst.png,images/cb_mekst.png,,mekst,,,,,,,,,,,0.090740769,-0.112037023,1,0,0,mekst,0,36,36,27,1
,,,,,00024,2023-09-28_14h59.09.599,vbt_B2_day4,2022.2.4,Win32,59.15409642,,,,,,,,,,,,,,,,,,,,gaaf,images/br_gaaf.png,images/cb_gaaf.png,,gaaf,,,,,,,,,,,0.090740769,-0.112037023,1,0,0,gaaf,0,37,37,43,1
,,,,,00024,2023-09-28_14h59.09.599,vbt_B2_day4,2022.2.4,Win32,59.15409642,,,,,,,,,,,,,,,,,,,,noodzaak,images/br_noodzaak.png,images/cb_noodzaak.png,,noodzaak,,,,,,,,,,,0.090740769,-0.112037023,1,0,0,noodzaak,0,38,38,56,1
,,,,,00024,2023-09-28_14h59.09.599,vbt_B2_day4,2022.2.4,Win32,59.15409642,,,,,,,,,,,,,,,,,,,,aanzwaag,images/br_aanzwaag.png,images/cb_aanzwaag.png,,aanzwaag,,,,,,,,,,,-0.122222194,0.014814801,1,0,0,aanzwaag,0,39,39,38,1
,,,,,00024,2023-09-28_14h59.09.599,vbt_B2_day4,2022.2.4,Win32,59.15409642,,,,,,,,,,,,,,,,,,,,gaan,images/br_gaan.png,images/cb_gaan.png,,gaan,,,,,,,,,,,0.077777792,0.003703683,1,0,0,gaan,0,40,40,41,1
,,,,,00024,2023-09-28_14h59.09.599,vbt_B2_day4,2022.2.4,Win32,59.15409642,,,,,,,,,,,,,,,,,,,,drooien,images/br_drooien.png,images/cb_drooien.png,,drooien,,,,,,,,,,,0.195370356,-0.050000014,1,0,0,drooien,0,41,41,32,1
,,,,,00024,2023-09-28_14h59.09.599,vbt_B2_day4,2022.2.4,Win32,59.15409642,,,,,,,,,,,,,,,,,,,,apparaat,images/br_apparaat.png,images/cb_apparaat.png,,apparaat,,,,,,,,,,,0.477777834,0.001851859,1,0,0,apparaat,0,42,42,17,1
,,,,,00024,2023-09-28_14h59.09.599,vbt_B2_day4,2022.2.4,Win32,59.15409642,,,,,,,,,,,,,,,,,,,,midden,images/br_midden.png,images/cb_midden.png,,midden,,,,,,,,,,,0.48055564,0.001851859,1,0,0,midden,0,43,43,50,1
,,,,,00024,2023-09-28_14h59.09.599,vbt_B2_day4,2022.2.4,Win32,59.15409642,,,,,,,,,,,,,,,,,,,,zwek,images/br_zwek.png,images/cb_zwek.png,,zwek,,,,,,,,,,,-0.002777735,-0.005555577,1,0,0,zwek,0,44,44,20,1
,,,,,00024,2023-09-28_14h59.09.599,vbt_B2_day4,2022.2.4,Win32,59.15409642,,,,,,,,,,,,,,,,,,,,sulbon,images/br_sulbon.png,images/cb_sulbon.png,,sulbon,,,,,,,,,,,0.125925912,-0.017592607,1,0,0,sulbon,0,45,45,31,1
,,,,,00024,2023-09-28_14h59.09.599,vbt_B2_day4,2022.2.4,Win32,59.15409642,,,,,,,,,,,,,,,,,,,,lappen,images/br_lappen.png,images/cb_lappen.png,,lappen,,,,,,,,,,,0.125925912,-0.017592607,1,0,0,lappen,0,46,46,49,1
,,,,,00024,2023-09-28_14h59.09.599,vbt_B2_day4,2022.2.4,Win32,59.15409642,,,,,,,,,,,,,,,,,,,,stemming,images/br_stemming.png,images/cb_stemming.png,,stemming,,,,,,,,,,,0.225000028,-0.01666666,1,0,0,stemming,0,47,47,18,1
,,,,,00024,2023-09-28_14h59.09.599,vbt_B2_day4,2022.2.4,Win32,59.15409642,,,,,,,,,,,,,,,,,,,,zaalrijk,images/br_zaalrijk.png,images/cb_zaalrijk.png,,zaalrijk,,,,,,,,,,,0.225000028,-0.01666666,1,0,0,zaalrijk,0,48,48,37,1
,,,,,00024,2023-09-28_14h59.09.599,vbt_B2_day4,2022.2.4,Win32,59.15409642,,,,,,,,,,,,,,,,,,,,flippen,images/br_flippen.png,images/cb_flippen.png,,flippen,,,,,,,,,,,0.225000028,-0.01666666,1,0,0,flippen,0,49,49,54,1
,,,,,00024,2023-09-28_14h59.09.599,vbt_B2_day4,2022.2.4,Win32,59.15409642,,,,,,,,,,,,,,,,,,,,seizoen,images/br_seizoen.png,images/cb_seizoen.png,,seizoen,,,,,,,,,,,0.225000028,-0.01666666,1,0,0,seizoen,0,50,50,13,1
,,,,,00024,2023-09-28_14h59.09.599,vbt_B2_day4,2022.2.4,Win32,59.15409642,,,,,,,,,,,,,,,,,,,,weigeren,images/br_weigeren.png,images/cb_weigeren.png,,weigeren,,,,,,,,,,,0.225000028,-0.01666666,1,0,0,weigeren,0,51,51,16,1
,,,,,00024,2023-09-28_14h59.09.599,vbt_B2_day4,2022.2.4,Win32,59.15409642,,,,,,,,,,,,,,,,,,,,pijnlijk,images/br_pijnlijk.png,images/cb_pijnlijk.png,,pijnl..n,,,,,,,,,,,0.225000028,-0.01666666,1,0,0,pijnl..n,0,52,52,58,1
,,,,,00024,2023-09-28_14h59.09.599,vbt_B2_day4,2022.2.4,Win32,59.15409642,,,,,,,,,,,,,,,,,,,,heengaan,images/br_heengaan.png,images/cb_heengaan.png,,heengaan,,,,,,,,,,,0.040740755,-0.00462963,1,0,0,heengaan,0,53,53,19,1
,,,,,00024,2023-09-28_14h59.09.599,vbt_B2_day4,2022.2.4,Win32,59.15409642,,,,,,,,,,,,,,,,,,,,geheim,images/br_geheim.png,images/cb_geheim.png,,geheim,,,,,,,,,,,0.040740755,-0.00462963,0,0,1,geheim,0,54,54,8,1
,,,,,00024,2023-09-28_14h59.09.599,vbt_B2_day4,2022.2.4,Win32,59.15409642,,,,,,,,,,,,,,,,,,,,toevol,images/br_toevol.png,images/cb_toevol.png,,toeval,,,,,,,,,,,-0.115740741,-0.112963005,1,0,0,toeval,0,55,55,29,1
,,,,,00024,2023-09-28_14h59.09.599,vbt_B2_day4,2022.2.4,Win32,59.15409642,,,,,,,,,,,,,,,,,,,,gijf,images/br_gijf.png,images/cb_gijf.png,,gijf,,,,,,,,,,,-0.115740741,-0.112963005,1,0,0,gijf,0,56,56,23,1
,,,,,00024,2023-09-28_14h59.09.599,vbt_B2_day4,2022.2.4,Win32,59.15409642,,,,,,,,,,,,,,,,,,,,dalen,images/br_dalen.png,images/cb_dalen.png,,dalen,,,,,,,,,,,-0.115740741,-0.112963005,1,0,0,dalen,0,57,57,46,1
,,,,,00024,2023-09-28_14h59.09.599,vbt_B2_day4,2022.2.4,Win32,59.15409642,,,,,,,,,,,,,,,,,,,,geliefd,images/br_geliefd.png,images/cb_geliefd.png,,geliefd,,,,,,,,,,,0.089814857,0.032407407,1,0,0,geliefd,0,58,58,14,1
,,,,,00024,2023-09-28_14h59.09.599,vbt_B2_day4,2022.2.4,Win32,59.15409642,,,,,,,,,,,,,,,,,,,,bruin,images/br_bruin.png,images/cb_bruin.png,,bruin,,,,,,,,,,,0.126851894,-0.010185206,1,0,0,bruin,0,59,59,45,1
,,,,,00024,2023-09-28_14h59.09.599,vbt_B2_day4,2022.2.4,Win32,59.15409642,,,,,,,,,,,,,,,,,,,,,,,,,,,,,,,,,,,,,,,,,,,,,
