welcome_mouse.x,welcome_mouse.y,welcome_mouse.leftButton,welcome_mouse.midButton,welcome_mouse.rightButton,"ID",date,expName,psychopyVersion,OS,frameRate,trainInstr_mouse.x,trainInstr_mouse.y,trainInstr_mouse.leftButton,trainInstr_mouse.midButton,trainInstr_mouse.rightButton,translation_key.keys,translation_key.corr,translation_key.rt,word_rsp.text,trWrd_mouse.x,trWrd_mouse.y,trWrd_mouse.leftButton,trWrd_mouse.midButton,trWrd_mouse.rightButton,train_loop.thisRepN,train_loop.thisTrialN,train_loop.thisN,train_loop.thisIndex,train_loop.ran,nlWrd,brWrd,cbWrd,test,testResp,mouse.x,mouse.y,mouse.leftButton,mouse.midButton,mouse.rightButton,testInstr_mouse.x,testInstr_mouse.y,testInstr_mouse.leftButton,testInstr_mouse.midButton,testInstr_mouse.rightButton,test_mouse.x,test_mouse.y,test_mouse.leftButton,test_mouse.midButton,test_mouse.rightButton,test_response.text,test_loop.thisRepN,test_loop.thisTrialN,test_loop.thisN,test_loop.thisIndex,test_loop.ran
-0.141779436,-0.234884673,1,0,0,00067,2023-10-20_15h05.36.907,vbt_B2_day4,2022.2.4,MacIntel,60.0024001,,,,,,,,,,,,,,,,,,,,,,,,,,,,,,,,,,,,,,,,,,,,,
,,,,,00067,2023-10-20_15h05.36.907,vbt_B2_day4,2022.2.4,MacIntel,60.0024001,-0.141779436,-0.234884673,1,0,0,,,,,,,,,,,,,,,,,,,,,,,,,,,,,,,,,,,,,,,,
,,,,,00067,2023-10-20_15h05.36.907,vbt_B2_day4,2022.2.4,MacIntel,60.0024001,,,,,,down,0,4.8994,,-0.141779436,-0.234884673,1,0,0,0,0,0,195,1,middelen,images/br_middelen.png,images/cb_middelen.png,0,,,,,,,,,,,,,,,,,,,,,,
,,,,,00067,2023-10-20_15h05.36.907,vbt_B2_day4,2022.2.4,MacIntel,60.0024001,,,,,,down,0,2.7351,,-0.141779436,-0.234884673,1,0,0,0,1,1,132,1,grappen,images/br_grappen.png,images/cb_grappen.png,0,,,,,,,,,,,,,,,,,,,,,,
,,,,,00067,2023-10-20_15h05.36.907,vbt_B2_day4,2022.2.4,MacIntel,60.0024001,,,,,,down,0,0.4333,,-0.132451637,-0.243128604,1,0,0,0,2,2,36,1,vuur,images/br_vuur.png,images/cb_vuur.png,0,,,,,,,,,,,,,,,,,,,,,,
,,,,,00067,2023-10-20_15h05.36.907,vbt_B2_day4,2022.2.4,MacIntel,60.0024001,,,,,,down,0,4.7675,,-0.132451637,-0.243128604,1,0,0,0,3,3,131,1,opzicht,images/br_opzicht.png,images/cb_opzicht.png,0,,,,,,,,,,,,,,,,,,,,,,
,,,,,00067,2023-10-20_15h05.36.907,vbt_B2_day4,2022.2.4,MacIntel,60.0024001,,,,,,down,0,4.4174,,-0.128711751,-0.250629243,1,0,0,0,4,4,157,1,uitlaat,images/br_uitlaat.png,images/cb_uitlaat.png,0,,,,,,,,,,,,,,,,,,,,,,
,,,,,00067,2023-10-20_15h05.36.907,vbt_B2_day4,2022.2.4,MacIntel,60.0024001,,,,,,down,0,2.9661,,-0.125222924,-0.254279553,1,0,0,0,5,5,68,1,schat,images/br_schat.png,images/cb_schat.png,0,,,,,,,,,,,,,,,,,,,,,,
,,,,,00067,2023-10-20_15h05.36.907,vbt_B2_day4,2022.2.4,MacIntel,60.0024001,,,,,,down,0,0.1167,,-0.12604062,-0.255989758,1,0,0,0,6,6,189,1,aanraden,images/br_aanraden.png,images/cb_aanraden.png,0,,,,,,,,,,,,,,,,,,,,,,
,,,,,00067,2023-10-20_15h05.36.907,vbt_B2_day4,2022.2.4,MacIntel,60.0024001,,,,,,down,0,0.1837,,-0.321608364,-0.14571725,1,0,0,0,7,7,19,1,geit,images/br_geit.png,images/cb_geit.png,0,,,,,,,,,,,,,,,,,,,,,,
,,,,,00067,2023-10-20_15h05.36.907,vbt_B2_day4,2022.2.4,MacIntel,60.0024001,,,,,,down,0,9.25,,-0.269649019,0.001966785,1,0,0,0,8,8,106,1,zingen,images/br_zingen.png,images/cb_zingen.png,1,zingen,,,,,,,,,,,,,,,,,,,,,
,,,,,00067,2023-10-20_15h05.36.907,vbt_B2_day4,2022.2.4,MacIntel,60.0024001,,,,,,down,0,2.3832,,-0.262920154,-0.000896519,1,0,0,0,9,9,171,1,aarzelen,images/br_aarzelen.png,images/cb_aarzelen.png,0,,,,,,,,,,,,,,,,,,,,,,
,,,,,00067,2023-10-20_15h05.36.907,vbt_B2_day4,2022.2.4,MacIntel,60.0024001,,,,,,down,0,36.9993,,-0.262920154,-0.000896519,1,0,0,0,10,10,15,1,soda,images/br_soda.png,images/cb_soda.png,0,,,,,,,,,,,,,,,,,,,,,,
,,,,,00067,2023-10-20_15h05.36.907,vbt_B2_day4,2022.2.4,MacIntel,60.0024001,,,,,,down,0,9.9166,,-0.348142497,0.078325835,1,0,0,0,11,11,199,1,beseffen,images/br_beseffen.png,images/cb_beseffen.png,0,,,,,,,,,,,,,,,,,,,,,,
,,,,,00067,2023-10-20_15h05.36.907,vbt_B2_day4,2022.2.4,MacIntel,60.0024001,,,,,,down,0,7.5491,,-0.348142497,0.078325835,1,0,0,0,12,12,63,1,flirt,images/br_flirt.png,images/cb_flirt.png,0,,,,,,,,,,,,,,,,,,,,,,
,,,,,00067,2023-10-20_15h05.36.907,vbt_B2_day4,2022.2.4,MacIntel,60.0024001,,,,,,down,0,2.7684,,-0.281712298,0.09562936,1,0,0,0,13,13,81,1,dubbel,images/br_dubbel.png,images/cb_dubbel.png,0,,,,,,,,,,,,,,,,,,,,,,
,,,,,00067,2023-10-20_15h05.36.907,vbt_B2_day4,2022.2.4,MacIntel,60.0024001,,,,,,down,0,23.2163,,-0.288520217,0.162133033,1,0,0,0,14,14,104,1,zweven,images/br_zweven.png,images/cb_zweven.png,1,zweven,,,,,,,,,,,,,,,,,,,,,
,,,,,00067,2023-10-20_15h05.36.907,vbt_B2_day4,2022.2.4,MacIntel,60.0024001,,,,,,down,0,0.3507,,-0.292241385,0.163374576,1,0,0,0,15,15,43,1,klauw,images/br_klauw.png,images/cb_klauw.png,0,,,,,,,,,,,,,,,,,,,,,,
,,,,,00067,2023-10-20_15h05.36.907,vbt_B2_day4,2022.2.4,MacIntel,60.0024001,,,,,,down,0,1.7535,,-0.288014323,0.164181228,1,0,0,0,16,16,100,1,geduld,images/br_geduld.png,images/cb_geduld.png,0,,,,,,,,,,,,,,,,,,,,,,
,,,,,00067,2023-10-20_15h05.36.907,vbt_B2_day4,2022.2.4,MacIntel,60.0024001,,,,,,down,0,0.8829,,-0.282587193,0.20726952,1,0,0,0,17,17,45,1,piste,images/br_piste.png,images/cb_piste.png,0,,,,,,,,,,,,,,,,,,,,,,
,,,,,00067,2023-10-20_15h05.36.907,vbt_B2_day4,2022.2.4,MacIntel,60.0024001,,,,,,down,0,7.7678,,-0.282366885,0.20726952,1,0,0,0,18,18,158,1,innemen,images/br_innemen.png,images/cb_innemen.png,0,,,,,,,,,,,,,,,,,,,,,,
,,,,,00067,2023-10-20_15h05.36.907,vbt_B2_day4,2022.2.4,MacIntel,60.0024001,,,,,,down,0,10.7828,,-0.282366885,0.20726952,1,0,0,0,19,19,14,1,rijp,images/br_rijp.png,images/cb_rijp.png,0,,,,,,,,,,,,,,,,,,,,,,
,,,,,00067,2023-10-20_15h05.36.907,vbt_B2_day4,2022.2.4,MacIntel,60.0024001,,,,,,down,0,23.0576,,-0.282366885,0.20726952,1,0,0,0,20,20,155,1,gerucht,images/br_gerucht.png,images/cb_gerucht.png,0,,,,,,,,,,,,,,,,,,,,,,
,,,,,00067,2023-10-20_15h05.36.907,vbt_B2_day4,2022.2.4,MacIntel,60.0024001,,,,,,down,0,9.3017,,-0.282366885,0.20726952,1,0,0,0,21,21,161,1,attentie,images/br_attentie.png,images/cb_attentie.png,0,,,,,,,,,,,,,,,,,,,,,,
,,,,,00067,2023-10-20_15h05.36.907,vbt_B2_day4,2022.2.4,MacIntel,60.0024001,,,,,,down,0,12.3017,,-0.282137916,0.208525013,1,0,0,0,22,22,72,1,strak,images/br_strak.png,images/cb_strak.png,0,,,,,,,,,,,,,,,,,,,,,,
,,,,,00067,2023-10-20_15h05.36.907,vbt_B2_day4,2022.2.4,MacIntel,60.0024001,,,,,,down,0,3.9663,,-0.282137916,0.208525013,1,0,0,0,23,23,141,1,knielen,images/br_knielen.png,images/cb_knielen.png,0,,,,,,,,,,,,,,,,,,,,,,
,,,,,00067,2023-10-20_15h05.36.907,vbt_B2_day4,2022.2.4,MacIntel,60.0024001,,,,,,down,0,2.6815,,-0.282137916,0.208525013,1,0,0,0,24,24,4,1,moes,images/br_moes.png,images/cb_moes.png,0,,,,,,,,,,,,,,,,,,,,,,
,,,,,00067,2023-10-20_15h05.36.907,vbt_B2_day4,2022.2.4,MacIntel,60.0024001,,,,,,down,0,3.6138,,-0.283459821,0.202342849,1,0,0,0,25,25,60,1,jasje,images/br_jasje.png,images/cb_jasje.png,0,,,,,,,,,,,,,,,,,,,,,,
,,,,,00067,2023-10-20_15h05.36.907,vbt_B2_day4,2022.2.4,MacIntel,60.0024001,,,,,,down,0,14.3671,,-0.283459821,0.202342849,1,0,0,0,26,26,112,1,lukken,images/br_lukken.png,images/cb_lukken.png,0,,,,,,,,,,,,,,,,,,,,,,
,,,,,00067,2023-10-20_15h05.36.907,vbt_B2_day4,2022.2.4,MacIntel,60.0024001,,,,,,down,0,43.4217,,-0.283459821,0.202342849,1,0,0,0,27,27,12,1,kust,images/br_kust.png,images/cb_kust.png,0,,,,,,,,,,,,,,,,,,,,,,
,,,,,00067,2023-10-20_15h05.36.907,vbt_B2_day4,2022.2.4,MacIntel,60.0024001,,,,,,down,0,0.0686,,-0.283459821,0.202342849,1,0,0,0,28,28,74,1,graaf,images/br_graaf.png,images/cb_graaf.png,0,,,,,,,,,,,,,,,,,,,,,,
,,,,,00067,2023-10-20_15h05.36.907,vbt_B2_day4,2022.2.4,MacIntel,60.0024001,,,,,,down,0,4.3203,,-0.283916655,0.235685076,1,0,0,0,29,29,65,1,parel,images/br_parel.png,images/cb_parel.png,1,parel,,,,,,,,,,,,,,,,,,,,,
,,,,,00067,2023-10-20_15h05.36.907,vbt_B2_day4,2022.2.4,MacIntel,60.0024001,,,,,,down,0,2.8706,,-0.283916655,0.235685076,1,0,0,0,30,30,13,1,kaal,images/br_kaal.png,images/cb_kaal.png,0,,,,,,,,,,,,,,,,,,,,,,
,,,,,00067,2023-10-20_15h05.36.907,vbt_B2_day4,2022.2.4,MacIntel,60.0024001,,,,,,down,0,0.536,,-0.283916655,0.235685076,1,0,0,0,31,31,70,1,ijdel,images/br_ijdel.png,images/cb_ijdel.png,0,,,,,,,,,,,,,,,,,,,,,,
,,,,,00067,2023-10-20_15h05.36.907,vbt_B2_day4,2022.2.4,MacIntel,60.0024001,,,,,,down,0,2.9498,,-0.283916655,0.235685076,1,0,0,0,32,32,61,1,groen,images/br_groen.png,images/cb_groen.png,0,,,,,,,,,,,,,,,,,,,,,,
,,,,,00067,2023-10-20_15h05.36.907,vbt_B2_day4,2022.2.4,MacIntel,60.0024001,,,,,,down,0,10.7524,,-0.283916655,0.235685076,1,0,0,0,33,33,46,1,jagen,images/br_jagen.png,images/cb_jagen.png,0,,,,,,,,,,,,,,,,,,,,,,
,,,,,00067,2023-10-20_15h05.36.907,vbt_B2_day4,2022.2.4,MacIntel,60.0024001,,,,,,down,0,0.0676,,-0.283916655,0.235685076,1,0,0,0,34,34,21,1,mist,images/br_mist.png,images/cb_mist.png,0,,,,,,,,,,,,,,,,,,,,,,
,,,,,00067,2023-10-20_15h05.36.907,vbt_B2_day4,2022.2.4,MacIntel,60.0024001,,,,,,down,0,11.119,,-0.283916655,0.235685076,1,0,0,0,35,35,190,1,goedkoop,images/br_goedkoop.png,images/cb_goedkoop.png,0,,,,,,,,,,,,,,,,,,,,,,
,,,,,00067,2023-10-20_15h05.36.907,vbt_B2_day4,2022.2.4,MacIntel,60.0024001,,,,,,down,0,5.7165,,-0.283916655,0.235685076,1,0,0,0,36,36,188,1,strekken,images/br_strekken.png,images/cb_strekken.png,0,,,,,,,,,,,,,,,,,,,,,,
,,,,,00067,2023-10-20_15h05.36.907,vbt_B2_day4,2022.2.4,MacIntel,60.0024001,,,,,,down,0,0.5019,,-0.283916655,0.235685076,1,0,0,0,37,37,139,1,stiekem,images/br_stiekem.png,images/cb_stiekem.png,0,,,,,,,,,,,,,,,,,,,,,,
,,,,,00067,2023-10-20_15h05.36.907,vbt_B2_day4,2022.2.4,MacIntel,60.0024001,,,,,,down,0,2.8003,,-0.281283075,0.235685076,1,0,0,0,38,38,115,1,kleren,images/br_kleren.png,images/cb_kleren.png,0,,,,,,,,,,,,,,,,,,,,,,
,,,,,00067,2023-10-20_15h05.36.907,vbt_B2_day4,2022.2.4,MacIntel,60.0024001,,,,,,down,0,2.2496,,-0.281283075,0.235685076,1,0,0,0,39,39,85,1,heilig,images/br_heilig.png,images/cb_heilig.png,0,,,,,,,,,,,,,,,,,,,,,,
,,,,,00067,2023-10-20_15h05.36.907,vbt_B2_day4,2022.2.4,MacIntel,60.0024001,,,,,,down,0,0.1189,,-0.322205694,0.173330398,1,0,0,0,40,40,90,1,geluid,images/br_geluid.png,images/cb_geluid.png,0,,,,,,,,,,,,,,,,,,,,,,
,,,,,00067,2023-10-20_15h05.36.907,vbt_B2_day4,2022.2.4,MacIntel,60.0024001,,,,,,down,0,0.2023,,-0.322205694,0.173330398,1,0,0,0,41,41,88,1,boeien,images/br_boeien.png,images/cb_boeien.png,0,,,,,,,,,,,,,,,,,,,,,,
,,,,,00067,2023-10-20_15h05.36.907,vbt_B2_day4,2022.2.4,MacIntel,60.0024001,,,,,,down,0,8.0338,,-0.302193255,0.206905489,1,0,0,0,42,42,185,1,mijnheer,images/br_mijnheer.png,images/cb_mijnheer.png,1,mijnheer,,,,,,,,,,,,,,,,,,,,,
,,,,,00067,2023-10-20_15h05.36.907,vbt_B2_day4,2022.2.4,MacIntel,60.0024001,,,,,,down,0,1.5171,,-0.210323486,0.188125,1,0,0,0,43,43,28,1,stal,images/br_stal.png,images/cb_stal.png,0,,,,,,,,,,,,,,,,,,,,,,
,,,,,00067,2023-10-20_15h05.36.907,vbt_B2_day4,2022.2.4,MacIntel,60.0024001,,,,,,down,0,3.0037,,-0.241774495,0.188125,1,0,0,0,44,44,174,1,stemming,images/br_stemming.png,images/cb_stemming.png,0,,,,,,,,,,,,,,,,,,,,,,
,,,,,00067,2023-10-20_15h05.36.907,vbt_B2_day4,2022.2.4,MacIntel,60.0024001,,,,,,down,0,2.3671,,-0.241774495,0.188125,1,0,0,0,45,45,153,1,vervoer,images/br_vervoer.png,images/cb_vervoer.png,0,,,,,,,,,,,,,,,,,,,,,,
,,,,,00067,2023-10-20_15h05.36.907,vbt_B2_day4,2022.2.4,MacIntel,60.0024001,,,,,,down,0,0.9994,,-0.247991653,0.197448324,1,0,0,0,46,46,135,1,gedicht,images/br_gedicht.png,images/cb_gedicht.png,0,,,,,,,,,,,,,,,,,,,,,,
,,,,,00067,2023-10-20_15h05.36.907,vbt_B2_day4,2022.2.4,MacIntel,60.0024001,,,,,,down,0,0.3191,,-0.247991653,0.197448324,1,0,0,0,47,47,11,1,mode,images/br_mode.png,images/cb_mode.png,0,,,,,,,,,,,,,,,,,,,,,,
,,,,,00067,2023-10-20_15h05.36.907,vbt_B2_day4,2022.2.4,MacIntel,60.0024001,,,,,,down,0,2.1542,,-0.245525367,0.200984526,1,0,0,0,48,48,111,1,ticket,images/br_ticket.png,images/cb_ticket.png,0,,,,,,,,,,,,,,,,,,,,,,
,,,,,00067,2023-10-20_15h05.36.907,vbt_B2_day4,2022.2.4,MacIntel,60.0024001,,,,,,down,0,0.715,,-0.245525367,0.200984526,1,0,0,0,49,49,48,1,steel,images/br_steel.png,images/cb_steel.png,0,,,,,,,,,,,,,,,,,,,,,,
,,,,,00067,2023-10-20_15h05.36.907,vbt_B2_day4,2022.2.4,MacIntel,60.0024001,,,,,,down,0,1.3667,,-0.239435454,0.209081072,1,0,0,0,50,50,1,1,zaal,images/br_zaal.png,images/cb_zaal.png,0,,,,,,,,,,,,,,,,,,,,,,
,,,,,00067,2023-10-20_15h05.36.907,vbt_B2_day4,2022.2.4,MacIntel,60.0024001,,,,,,down,0,0.7522,,-0.239435454,0.209081072,1,0,0,0,51,51,130,1,keihard,images/br_keihard.png,images/cb_keihard.png,0,,,,,,,,,,,,,,,,,,,,,,
,,,,,00067,2023-10-20_15h05.36.907,vbt_B2_day4,2022.2.4,MacIntel,60.0024001,,,,,,down,0,0.55,,-0.239435454,0.209081072,1,0,0,0,52,52,134,1,geliefd,images/br_geliefd.png,images/cb_geliefd.png,0,,,,,,,,,,,,,,,,,,,,,,
,,,,,00067,2023-10-20_15h05.36.907,vbt_B2_day4,2022.2.4,MacIntel,60.0024001,,,,,,down,0,4.6312,,-0.239435454,0.209081072,1,0,0,0,53,53,52,1,wagon,images/br_wagon.png,images/cb_wagon.png,0,,,,,,,,,,,,,,,,,,,,,,
,,,,,00067,2023-10-20_15h05.36.907,vbt_B2_day4,2022.2.4,MacIntel,60.0024001,,,,,,down,0,2.0338,,-0.239435454,0.209081072,1,0,0,0,54,54,165,1,feestdag,images/br_feestdag.png,images/cb_feestdag.png,0,,,,,,,,,,,,,,,,,,,,,,
,,,,,00067,2023-10-20_15h05.36.907,vbt_B2_day4,2022.2.4,MacIntel,60.0024001,,,,,,down,0,5.7834,,-0.239435454,0.209081072,1,0,0,0,55,55,6,1,diep,images/br_diep.png,images/cb_diep.png,0,,,,,,,,,,,,,,,,,,,,,,
,,,,,00067,2023-10-20_15h05.36.907,vbt_B2_day4,2022.2.4,MacIntel,60.0024001,,,,,,down,0,4.6495,,-0.241375442,0.210042289,1,0,0,0,56,56,179,1,woestijn,images/br_woestijn.png,images/cb_woestijn.png,0,,,,,,,,,,,,,,,,,,,,,,
,,,,,00067,2023-10-20_15h05.36.907,vbt_B2_day4,2022.2.4,MacIntel,60.0024001,,,,,,down,0,2.0838,,-0.241375442,0.210042289,1,0,0,0,57,57,93,1,waarop,images/br_waarop.png,images/cb_waarop.png,0,,,,,,,,,,,,,,,,,,,,,,
,,,,,00067,2023-10-20_15h05.36.907,vbt_B2_day4,2022.2.4,MacIntel,60.0024001,,,,,,down,0,6.7163,,-0.241375442,0.210042289,1,0,0,0,58,58,5,1,blad,images/br_blad.png,images/cb_blad.png,0,,,,,,,,,,,,,,,,,,,,,,
,,,,,00067,2023-10-20_15h05.36.907,vbt_B2_day4,2022.2.4,MacIntel,60.0024001,,,,,,down,0,7.6499,,-0.232528425,0.219576416,1,0,0,0,59,59,164,1,anarchie,images/br_anarchie.png,images/cb_anarchie.png,0,,,,,,,,,,,,,,,,,,,,,,
,,,,,00067,2023-10-20_15h05.36.907,vbt_B2_day4,2022.2.4,MacIntel,60.0024001,,,,,,down,0,7.1834,,-0.230623256,0.207459455,1,0,0,0,60,60,89,1,slapen,images/br_slapen.png,images/cb_slapen.png,0,,,,,,,,,,,,,,,,,,,,,,
,,,,,00067,2023-10-20_15h05.36.907,vbt_B2_day4,2022.2.4,MacIntel,60.0024001,,,,,,down,0,21.4325,,-0.230623256,0.207459455,1,0,0,0,61,61,92,1,geheim,images/br_geheim.png,images/cb_geheim.png,0,,,,,,,,,,,,,,,,,,,,,,
,,,,,00067,2023-10-20_15h05.36.907,vbt_B2_day4,2022.2.4,MacIntel,60.0024001,,,,,,down,0,0.9527,,-0.230623256,0.207459455,1,0,0,0,62,62,32,1,palm,images/br_palm.png,images/cb_palm.png,0,,,,,,,,,,,,,,,,,,,,,,
,,,,,00067,2023-10-20_15h05.36.907,vbt_B2_day4,2022.2.4,MacIntel,60.0024001,,,,,,down,0,5.5167,,-0.232609166,0.208841349,1,0,0,0,63,63,167,1,eenhoorn,images/br_eenhoorn.png,images/cb_eenhoorn.png,0,,,,,,,,,,,,,,,,,,,,,,
,,,,,00067,2023-10-20_15h05.36.907,vbt_B2_day4,2022.2.4,MacIntel,60.0024001,,,,,,down,0,0.1709,,-0.232609166,0.208841349,1,0,0,0,64,64,20,1,site,images/br_site.png,images/cb_site.png,0,,,,,,,,,,,,,,,,,,,,,,
,,,,,00067,2023-10-20_15h05.36.907,vbt_B2_day4,2022.2.4,MacIntel,60.0024001,,,,,,down,0,3.7331,,-0.232609166,0.208841349,1,0,0,0,65,65,56,1,traag,images/br_traag.png,images/cb_traag.png,0,,,,,,,,,,,,,,,,,,,,,,
,,,,,00067,2023-10-20_15h05.36.907,vbt_B2_day4,2022.2.4,MacIntel,60.0024001,,,,,,down,0,2.1669,,-0.232609166,0.208841349,1,0,0,0,66,66,50,1,stoom,images/br_stoom.png,images/cb_stoom.png,0,,,,,,,,,,,,,,,,,,,,,,
,,,,,00067,2023-10-20_15h05.36.907,vbt_B2_day4,2022.2.4,MacIntel,60.0024001,,,,,,down,0,1.3847,,-0.232609166,0.208841349,1,0,0,0,67,67,142,1,snuiven,images/br_snuiven.png,images/cb_snuiven.png,0,,,,,,,,,,,,,,,,,,,,,,
,,,,,00067,2023-10-20_15h05.36.907,vbt_B2_day4,2022.2.4,MacIntel,60.0024001,,,,,,down,0,7.7641,,-0.245552572,0.208841349,1,0,0,0,68,68,181,1,toegeven,images/br_toegeven.png,images/cb_toegeven.png,0,,,,,,,,,,,,,,,,,,,,,,
,,,,,00067,2023-10-20_15h05.36.907,vbt_B2_day4,2022.2.4,MacIntel,60.0024001,,,,,,down,0,14.1552,,-0.240448928,0.292134051,1,0,0,0,69,69,24,1,jurk,images/br_jurk.png,images/cb_jurk.png,1,jurk,,,,,,,,,,,,,,,,,,,,,
,,,,,00067,2023-10-20_15h05.36.907,vbt_B2_day4,2022.2.4,MacIntel,60.0024001,,,,,,down,0,0.7167,,-0.240894543,0.293248088,1,0,0,0,70,70,22,1,stof,images/br_stof.png,images/cb_stof.png,0,,,,,,,,,,,,,,,,,,,,,,
,,,,,00067,2023-10-20_15h05.36.907,vbt_B2_day4,2022.2.4,MacIntel,60.0024001,,,,,,down,0,20.3375,,-0.016757987,-0.180811477,1,0,0,0,71,71,146,1,opkomen,images/br_opkomen.png,images/cb_opkomen.png,1,opkomen,,,,,,,,,,,,,,,,,,,,,
,,,,,00067,2023-10-20_15h05.36.907,vbt_B2_day4,2022.2.4,MacIntel,60.0024001,,,,,,down,0,1.9166,,-0.016757987,-0.180811477,1,0,0,0,72,72,178,1,huisdier,images/br_huisdier.png,images/cb_huisdier.png,0,,,,,,,,,,,,,,,,,,,,,,
,,,,,00067,2023-10-20_15h05.36.907,vbt_B2_day4,2022.2.4,MacIntel,60.0024001,,,,,,down,0,2.0496,,-0.016757987,-0.180811477,1,0,0,0,73,73,69,1,waken,images/br_waken.png,images/cb_waken.png,0,,,,,,,,,,,,,,,,,,,,,,
,,,,,00067,2023-10-20_15h05.36.907,vbt_B2_day4,2022.2.4,MacIntel,60.0024001,,,,,,down,0,4.0667,,-0.016757987,-0.180811477,1,0,0,0,74,74,8,1,knie,images/br_knie.png,images/cb_knie.png,0,,,,,,,,,,,,,,,,,,,,,,
,,,,,00067,2023-10-20_15h05.36.907,vbt_B2_day4,2022.2.4,MacIntel,60.0024001,,,,,,down,0,0.3338,,-0.016757987,-0.180811477,1,0,0,0,75,75,58,1,tekst,images/br_tekst.png,images/cb_tekst.png,0,,,,,,,,,,,,,,,,,,,,,,
,,,,,00067,2023-10-20_15h05.36.907,vbt_B2_day4,2022.2.4,MacIntel,60.0024001,,,,,,down,0,3.1166,,-0.016757987,-0.180811477,1,0,0,0,76,76,103,1,joggen,images/br_joggen.png,images/cb_joggen.png,0,,,,,,,,,,,,,,,,,,,,,,
,,,,,00067,2023-10-20_15h05.36.907,vbt_B2_day4,2022.2.4,MacIntel,60.0024001,,,,,,down,0,1.0168,,-0.027074265,-0.180811477,1,0,0,0,77,77,38,1,baai,images/br_baai.png,images/cb_baai.png,0,,,,,,,,,,,,,,,,,,,,,,
,,,,,00067,2023-10-20_15h05.36.907,vbt_B2_day4,2022.2.4,MacIntel,60.0024001,,,,,,down,0,3.581,,-0.027074265,-0.180811477,1,0,0,0,78,78,140,1,blijven,images/br_blijven.png,images/cb_blijven.png,0,,,,,,,,,,,,,,,,,,,,,,
,,,,,00067,2023-10-20_15h05.36.907,vbt_B2_day4,2022.2.4,MacIntel,60.0024001,,,,,,down,0,2.3661,,-0.027074265,-0.180811477,1,0,0,0,79,79,123,1,hiervan,images/br_hiervan.png,images/cb_hiervan.png,0,,,,,,,,,,,,,,,,,,,,,,
,,,,,00067,2023-10-20_15h05.36.907,vbt_B2_day4,2022.2.4,MacIntel,60.0024001,,,,,,down,0,0.0338,,-0.032890625,-0.180811477,1,0,0,0,80,80,57,1,steek,images/br_steek.png,images/cb_steek.png,0,,,,,,,,,,,,,,,,,,,,,,
,,,,,00067,2023-10-20_15h05.36.907,vbt_B2_day4,2022.2.4,MacIntel,60.0024001,,,,,,down,0,0.8343,,-0.032890625,-0.180811477,1,0,0,0,81,81,55,1,praat,images/br_praat.png,images/cb_praat.png,0,,,,,,,,,,,,,,,,,,,,,,
,,,,,00067,2023-10-20_15h05.36.907,vbt_B2_day4,2022.2.4,MacIntel,60.0024001,,,,,,down,0,0.2029,,-0.029749407,-0.158139823,1,0,0,0,82,82,150,1,gegeven,images/br_gegeven.png,images/cb_gegeven.png,0,,,,,,,,,,,,,,,,,,,,,,
,,,,,00067,2023-10-20_15h05.36.907,vbt_B2_day4,2022.2.4,MacIntel,60.0024001,,,,,,down,0,5.2513,,0.011004929,-0.122658517,1,0,0,0,83,83,67,1,zwart,images/br_zwart.png,images/cb_zwart.png,1,zwart,,,,,,,,,,,,,,,,,,,,,
,,,,,00067,2023-10-20_15h05.36.907,vbt_B2_day4,2022.2.4,MacIntel,60.0024001,,,,,,down,0,0.2853,,0.005127302,-0.115316278,1,0,0,0,84,84,37,1,mijn,images/br_mijn.png,images/cb_mijn.png,0,,,,,,,,,,,,,,,,,,,,,,
,,,,,00067,2023-10-20_15h05.36.907,vbt_B2_day4,2022.2.4,MacIntel,60.0024001,,,,,,down,0,5.3329,,0.081389509,0.012198893,1,0,0,0,85,85,99,1,koffie,images/br_koffie.png,images/cb_koffie.png,0,,,,,,,,,,,,,,,,,,,,,,
,,,,,00067,2023-10-20_15h05.36.907,vbt_B2_day4,2022.2.4,MacIntel,60.0024001,,,,,,down,0,1.166,,0.081389509,0.012198893,1,0,0,0,86,86,53,1,baron,images/br_baron.png,images/cb_baron.png,0,,,,,,,,,,,,,,,,,,,,,,
,,,,,00067,2023-10-20_15h05.36.907,vbt_B2_day4,2022.2.4,MacIntel,60.0024001,,,,,,down,0,2.9357,,0.081389509,0.012198893,1,0,0,0,87,87,86,1,woning,images/br_woning.png,images/cb_woning.png,0,,,,,,,,,,,,,,,,,,,,,,
,,,,,00067,2023-10-20_15h05.36.907,vbt_B2_day4,2022.2.4,MacIntel,60.0024001,,,,,,down,0,4.8174,,0.083707392,0.010552339,1,0,0,0,88,88,133,1,seizoen,images/br_seizoen.png,images/cb_seizoen.png,0,,,,,,,,,,,,,,,,,,,,,,
,,,,,00067,2023-10-20_15h05.36.907,vbt_B2_day4,2022.2.4,MacIntel,60.0024001,,,,,,down,0,1.9004,,0.083707392,0.010552339,1,0,0,0,89,89,3,1,mand,images/br_mand.png,images/cb_mand.png,0,,,,,,,,,,,,,,,,,,,,,,
,,,,,00067,2023-10-20_15h05.36.907,vbt_B2_day4,2022.2.4,MacIntel,60.0024001,,,,,,down,0,0.6177,,0.085645403,-0.005499616,1,0,0,0,90,90,126,1,kasteel,images/br_kasteel.png,images/cb_kasteel.png,0,,,,,,,,,,,,,,,,,,,,,,
,,,,,00067,2023-10-20_15h05.36.907,vbt_B2_day4,2022.2.4,MacIntel,60.0024001,,,,,,down,0,4.3165,,0.084755278,-0.005499616,1,0,0,0,91,91,138,1,akkoord,images/br_akkoord.png,images/cb_akkoord.png,0,,,,,,,,,,,,,,,,,,,,,,
,,,,,00067,2023-10-20_15h05.36.907,vbt_B2_day4,2022.2.4,MacIntel,60.0024001,,,,,,down,0,8.0029,,0.084070347,-0.006384452,1,0,0,0,92,92,191,1,opheffen,images/br_opheffen.png,images/cb_opheffen.png,0,,,,,,,,,,,,,,,,,,,,,,
,,,,,00067,2023-10-20_15h05.36.907,vbt_B2_day4,2022.2.4,MacIntel,60.0024001,,,,,,down,0,1.0648,,0.084070347,-0.006603888,1,0,0,0,93,93,152,1,afnemen,images/br_afnemen.png,images/cb_afnemen.png,0,,,,,,,,,,,,,,,,,,,,,,
,,,,,00067,2023-10-20_15h05.36.907,vbt_B2_day4,2022.2.4,MacIntel,60.0024001,,,,,,down,0,9.1027,,0.084070347,-0.006603888,1,0,0,0,94,94,2,1,jaar,images/br_jaar.png,images/cb_jaar.png,0,,,,,,,,,,,,,,,,,,,,,,
,,,,,00067,2023-10-20_15h05.36.907,vbt_B2_day4,2022.2.4,MacIntel,60.0024001,,,,,,down,0,14.0514,,0.1346117,0.129119641,1,0,0,0,95,95,124,1,bloeien,images/br_bloeien.png,images/cb_bloeien.png,0,,,,,,,,,,,,,,,,,,,,,,
,,,,,00067,2023-10-20_15h05.36.907,vbt_B2_day4,2022.2.4,MacIntel,60.0024001,,,,,,down,0,0.2192,,0.143179408,0.123176182,1,0,0,0,96,96,10,1,leek,images/br_leek.png,images/cb_leek.png,0,,,,,,,,,,,,,,,,,,,,,,
,,,,,00067,2023-10-20_15h05.36.907,vbt_B2_day4,2022.2.4,MacIntel,60.0024001,,,,,,down,0,3.2345,,0.245250651,0.229959862,1,0,0,0,97,97,25,1,plek,images/br_plek.png,images/cb_plek.png,1,plek,,,,,,,,,,,,,,,,,,,,,
,,,,,00067,2023-10-20_15h05.36.907,vbt_B2_day4,2022.2.4,MacIntel,60.0024001,,,,,,down,0,1.0189,,0.245250651,0.229959862,1,0,0,0,98,98,113,1,koppen,images/br_koppen.png,images/cb_koppen.png,0,,,,,,,,,,,,,,,,,,,,,,
,,,,,00067,2023-10-20_15h05.36.907,vbt_B2_day4,2022.2.4,MacIntel,60.0024001,,,,,,down,0,0.5167,,0.222887835,0.223249773,1,0,0,0,99,99,94,1,oceaan,images/br_oceaan.png,images/cb_oceaan.png,0,,,,,,,,,,,,,,,,,,,,,,
,,,,,00067,2023-10-20_15h05.36.907,vbt_B2_day4,2022.2.4,MacIntel,60.0024001,,,,,,down,0,1.1502,,0.222887835,0.223249773,1,0,0,0,100,100,162,1,uitdelen,images/br_uitdelen.png,images/cb_uitdelen.png,0,,,,,,,,,,,,,,,,,,,,,,
,,,,,00067,2023-10-20_15h05.36.907,vbt_B2_day4,2022.2.4,MacIntel,60.0024001,,,,,,down,0,10.435,,0.144625244,0.22804548,1,0,0,0,101,101,26,1,leuk,images/br_leuk.png,images/cb_leuk.png,1,leuk,,,,,,,,,,,,,,,,,,,,,
,,,,,00067,2023-10-20_15h05.36.907,vbt_B2_day4,2022.2.4,MacIntel,60.0024001,,,,,,down,0,0.6653,,0.144405169,0.22804548,1,0,0,0,102,102,173,1,apparaat,images/br_apparaat.png,images/cb_apparaat.png,0,,,,,,,,,,,,,,,,,,,,,,
,,,,,00067,2023-10-20_15h05.36.907,vbt_B2_day4,2022.2.4,MacIntel,60.0024001,,,,,,down,0,1.5162,,0.144405169,0.22804548,1,0,0,0,103,103,129,1,verhaal,images/br_verhaal.png,images/cb_verhaal.png,0,,,,,,,,,,,,,,,,,,,,,,
,,,,,00067,2023-10-20_15h05.36.907,vbt_B2_day4,2022.2.4,MacIntel,60.0024001,,,,,,down,0,0.5696,,0.144405169,0.22804548,1,0,0,0,104,104,149,1,redding,images/br_redding.png,images/cb_redding.png,0,,,,,,,,,,,,,,,,,,,,,,
,,,,,00067,2023-10-20_15h05.36.907,vbt_B2_day4,2022.2.4,MacIntel,60.0024001,,,,,,down,0,0.6486,,0.144405169,0.22804548,1,0,0,0,105,105,151,1,aanzoek,images/br_aanzoek.png,images/cb_aanzoek.png,0,,,,,,,,,,,,,,,,,,,,,,
,,,,,00067,2023-10-20_15h05.36.907,vbt_B2_day4,2022.2.4,MacIntel,60.0024001,,,,,,down,0,7.6716,,0.164461089,0.175221703,1,0,0,0,106,106,192,1,schaamte,images/br_schaamte.png,images/cb_schaamte.png,0,,,,,,,,,,,,,,,,,,,,,,
,,,,,00067,2023-10-20_15h05.36.907,vbt_B2_day4,2022.2.4,MacIntel,60.0024001,,,,,,down,0,0.0662,,0.172765765,0.17366054,1,0,0,0,107,107,39,1,laag,images/br_laag.png,images/cb_laag.png,0,,,,,,,,,,,,,,,,,,,,,,
,,,,,00067,2023-10-20_15h05.36.907,vbt_B2_day4,2022.2.4,MacIntel,60.0024001,,,,,,down,0,6.5845,,0.272064267,0.210919625,1,0,0,0,108,108,66,1,lever,images/br_lever.png,images/cb_lever.png,1,lever,,,,,,,,,,,,,,,,,,,,,
,,,,,00067,2023-10-20_15h05.36.907,vbt_B2_day4,2022.2.4,MacIntel,60.0024001,,,,,,down,0,1.9357,,0.270207403,0.203074864,1,0,0,0,109,109,180,1,openbaar,images/br_openbaar.png,images/cb_openbaar.png,0,,,,,,,,,,,,,,,,,,,,,,
,,,,,00067,2023-10-20_15h05.36.907,vbt_B2_day4,2022.2.4,MacIntel,60.0024001,,,,,,down,0,0.1866,,0.281484375,0.216500971,1,0,0,0,110,110,78,1,leren,images/br_leren.png,images/cb_leren.png,0,,,,,,,,,,,,,,,,,,,,,,
,,,,,00067,2023-10-20_15h05.36.907,vbt_B2_day4,2022.2.4,MacIntel,60.0024001,,,,,,down,0,0.9505,,0.274387323,0.209335095,1,0,0,0,111,111,143,1,hechten,images/br_hechten.png,images/cb_hechten.png,0,,,,,,,,,,,,,,,,,,,,,,
,,,,,00067,2023-10-20_15h05.36.907,vbt_B2_day4,2022.2.4,MacIntel,60.0024001,,,,,,down,0,7.4978,,0.275897275,0.208200596,1,0,0,0,112,112,156,1,rechten,images/br_rechten.png,images/cb_rechten.png,0,,,,,,,,,,,,,,,,,,,,,,
,,,,,00067,2023-10-20_15h05.36.907,vbt_B2_day4,2022.2.4,MacIntel,60.0024001,,,,,,down,0,2.1354,,0.348104074,0.213898461,1,0,0,0,113,113,41,1,maken,images/br_maken.png,images/cb_maken.png,0,,,,,,,,,,,,,,,,,,,,,,
,,,,,00067,2023-10-20_15h05.36.907,vbt_B2_day4,2022.2.4,MacIntel,60.0024001,,,,,,down,0,0.5835,,0.348104074,0.213898461,1,0,0,0,114,114,102,1,legaal,images/br_legaal.png,images/cb_legaal.png,0,,,,,,,,,,,,,,,,,,,,,,
,,,,,00067,2023-10-20_15h05.36.907,vbt_B2_day4,2022.2.4,MacIntel,60.0024001,,,,,,down,0,0.6004,,0.348104074,0.213898461,1,0,0,0,115,115,62,1,knaap,images/br_knaap.png,images/cb_knaap.png,0,,,,,,,,,,,,,,,,,,,,,,
,,,,,00067,2023-10-20_15h05.36.907,vbt_B2_day4,2022.2.4,MacIntel,60.0024001,,,,,,down,0,0.3497,,0.348104074,0.213898461,1,0,0,0,116,116,77,1,woede,images/br_woede.png,images/cb_woede.png,0,,,,,,,,,,,,,,,,,,,,,,
,,,,,00067,2023-10-20_15h05.36.907,vbt_B2_day4,2022.2.4,MacIntel,60.0024001,,,,,,down,0,0.453,,0.348104074,0.213898461,1,0,0,0,117,117,119,1,liefje,images/br_liefje.png,images/cb_liefje.png,0,,,,,,,,,,,,,,,,,,,,,,
,,,,,00067,2023-10-20_15h05.36.907,vbt_B2_day4,2022.2.4,MacIntel,60.0024001,,,,,,down,0,0.7344,,0.348104074,0.213898461,1,0,0,0,118,118,95,1,vreten,images/br_vreten.png,images/cb_vreten.png,0,,,,,,,,,,,,,,,,,,,,,,
,,,,,00067,2023-10-20_15h05.36.907,vbt_B2_day4,2022.2.4,MacIntel,60.0024001,,,,,,down,0,1.9193,,0.348104074,0.213898461,1,0,0,0,119,119,175,1,heengaan,images/br_heengaan.png,images/cb_heengaan.png,0,,,,,,,,,,,,,,,,,,,,,,
,,,,,00067,2023-10-20_15h05.36.907,vbt_B2_day4,2022.2.4,MacIntel,60.0024001,,,,,,down,0,0.2861,,0.348104074,0.213898461,1,0,0,0,120,120,169,1,oprotten,images/br_oprotten.png,images/cb_oprotten.png,0,,,,,,,,,,,,,,,,,,,,,,
,,,,,00067,2023-10-20_15h05.36.907,vbt_B2_day4,2022.2.4,MacIntel,60.0024001,,,,,,down,0,0.5666,,0.348104074,0.22859779,1,0,0,0,121,121,79,1,nodig,images/br_nodig.png,images/cb_nodig.png,0,,,,,,,,,,,,,,,,,,,,,,
,,,,,00067,2023-10-20_15h05.36.907,vbt_B2_day4,2022.2.4,MacIntel,60.0024001,,,,,,down,0,0.052,,0.348104074,0.22859779,1,0,0,0,122,122,114,1,vullen,images/br_vullen.png,images/cb_vullen.png,0,,,,,,,,,,,,,,,,,,,,,,
,,,,,00067,2023-10-20_15h05.36.907,vbt_B2_day4,2022.2.4,MacIntel,60.0024001,,,,,,down,0,0.5168,,0.348104074,0.230573847,1,0,0,0,123,123,154,1,aflopen,images/br_aflopen.png,images/cb_aflopen.png,0,,,,,,,,,,,,,,,,,,,,,,
,,,,,00067,2023-10-20_15h05.36.907,vbt_B2_day4,2022.2.4,MacIntel,60.0024001,,,,,,down,0,0.6805,,0.348104074,0.230573847,1,0,0,0,124,124,196,1,nakijken,images/br_nakijken.png,images/cb_nakijken.png,0,,,,,,,,,,,,,,,,,,,,,,
,,,,,00067,2023-10-20_15h05.36.907,vbt_B2_day4,2022.2.4,MacIntel,60.0024001,,,,,,down,0,0.8374,,0.348104074,0.230573847,1,0,0,0,125,125,40,1,schep,images/br_schep.png,images/cb_schep.png,0,,,,,,,,,,,,,,,,,,,,,,
,,,,,00067,2023-10-20_15h05.36.907,vbt_B2_day4,2022.2.4,MacIntel,60.0024001,,,,,,down,0,10.9498,,0.364905366,0.220695016,1,0,0,0,126,126,136,1,waarbij,images/br_waarbij.png,images/cb_waarbij.png,0,,,,,,,,,,,,,,,,,,,,,,
,,,,,00067,2023-10-20_15h05.36.907,vbt_B2_day4,2022.2.4,MacIntel,60.0024001,,,,,,down,0,6.8176,,0.360668015,0.216368263,1,0,0,0,127,127,18,1,blik,images/br_blik.png,images/cb_blik.png,0,,,,,,,,,,,,,,,,,,,,,,
,,,,,00067,2023-10-20_15h05.36.907,vbt_B2_day4,2022.2.4,MacIntel,60.0024001,,,,,,down,0,4.8663,,0.458032808,0.24330113,1,0,0,0,128,128,117,1,kennis,images/br_kennis.png,images/cb_kennis.png,0,,,,,,,,,,,,,,,,,,,,,,
,,,,,00067,2023-10-20_15h05.36.907,vbt_B2_day4,2022.2.4,MacIntel,60.0024001,,,,,,down,0,0.6167,,0.458032808,0.24330113,1,0,0,0,129,129,194,1,driemaal,images/br_driemaal.png,images/cb_driemaal.png,0,,,,,,,,,,,,,,,,,,,,,,
,,,,,00067,2023-10-20_15h05.36.907,vbt_B2_day4,2022.2.4,MacIntel,60.0024001,,,,,,down,0,3.1173,,0.457835286,0.240481015,1,0,0,0,130,130,31,1,poes,images/br_poes.png,images/cb_poes.png,0,,,,,,,,,,,,,,,,,,,,,,
,,,,,00067,2023-10-20_15h05.36.907,vbt_B2_day4,2022.2.4,MacIntel,60.0024001,,,,,,down,0,3.5854,,0.454856538,0.237230806,1,0,0,0,131,131,198,1,bedoelen,images/br_bedoelen.png,images/cb_bedoelen.png,0,,,,,,,,,,,,,,,,,,,,,,
,,,,,00067,2023-10-20_15h05.36.907,vbt_B2_day4,2022.2.4,MacIntel,60.0024001,,,,,,down,0,1.5495,,0.459538225,0.211185768,1,0,0,0,132,132,182,1,bijkomen,images/br_bijkomen.png,images/cb_bijkomen.png,0,,,,,,,,,,,,,,,,,,,,,,
,,,,,00067,2023-10-20_15h05.36.907,vbt_B2_day4,2022.2.4,MacIntel,60.0024001,,,,,,down,0,1.6546,,0.457089146,0.211185768,1,0,0,0,133,133,82,1,muziek,images/br_muziek.png,images/cb_muziek.png,0,,,,,,,,,,,,,,,,,,,,,,
,,,,,00067,2023-10-20_15h05.36.907,vbt_B2_day4,2022.2.4,MacIntel,60.0024001,,,,,,down,0,1.4832,,0.457089146,0.209800241,1,0,0,0,134,134,109,1,totaal,images/br_totaal.png,images/cb_totaal.png,0,,,,,,,,,,,,,,,,,,,,,,
,,,,,00067,2023-10-20_15h05.36.907,vbt_B2_day4,2022.2.4,MacIntel,60.0024001,,,,,,down,0,5.4173,,0.45707287,0.204874645,1,0,0,0,135,135,75,1,snoep,images/br_snoep.png,images/cb_snoep.png,0,,,,,,,,,,,,,,,,,,,,,,
,,,,,00067,2023-10-20_15h05.36.907,vbt_B2_day4,2022.2.4,MacIntel,60.0024001,,,,,,down,0,1.265,,0.45707287,0.204874645,1,0,0,0,136,136,193,1,weeshuis,images/br_weeshuis.png,images/cb_weeshuis.png,0,,,,,,,,,,,,,,,,,,,,,,
,,,,,00067,2023-10-20_15h05.36.907,vbt_B2_day4,2022.2.4,MacIntel,60.0024001,,,,,,down,0,9.3,,0.522084496,0.217158087,1,0,0,0,137,137,147,1,komisch,images/br_komisch.png,images/cb_komisch.png,1,komisch,,,,,,,,,,,,,,,,,,,,,
,,,,,00067,2023-10-20_15h05.36.907,vbt_B2_day4,2022.2.4,MacIntel,60.0024001,,,,,,down,0,0.0206,,0.522084496,0.217158087,1,0,0,0,138,138,160,1,daarheen,images/br_daarheen.png,images/cb_daarheen.png,0,,,,,,,,,,,,,,,,,,,,,,
,,,,,00067,2023-10-20_15h05.36.907,vbt_B2_day4,2022.2.4,MacIntel,60.0024001,,,,,,down,0,2.4642,,0.522084496,0.217158087,1,0,0,0,139,139,17,1,taal,images/br_taal.png,images/cb_taal.png,0,,,,,,,,,,,,,,,,,,,,,,
,,,,,00067,2023-10-20_15h05.36.907,vbt_B2_day4,2022.2.4,MacIntel,60.0024001,,,,,,down,0,0.5833,,0.508004674,0.217158087,1,0,0,0,140,140,80,1,kanjer,images/br_kanjer.png,images/cb_kanjer.png,0,,,,,,,,,,,,,,,,,,,,,,
,,,,,00067,2023-10-20_15h05.36.907,vbt_B2_day4,2022.2.4,MacIntel,60.0024001,,,,,,down,0,8.9981,,0.508004674,0.217158087,1,0,0,0,141,141,108,1,excuus,images/br_excuus.png,images/cb_excuus.png,0,,,,,,,,,,,,,,,,,,,,,,
,,,,,00067,2023-10-20_15h05.36.907,vbt_B2_day4,2022.2.4,MacIntel,60.0024001,,,,,,down,0,6.9998,,0.50778797,0.21535133,1,0,0,0,142,142,183,1,getuigen,images/br_getuigen.png,images/cb_getuigen.png,0,,,,,,,,,,,,,,,,,,,,,,
,,,,,00067,2023-10-20_15h05.36.907,vbt_B2_day4,2022.2.4,MacIntel,60.0024001,,,,,,down,0,0.0691,,0.507568359,0.214907023,1,0,0,0,143,143,96,1,slagen,images/br_slagen.png,images/cb_slagen.png,0,,,,,,,,,,,,,,,,,,,,,,
,,,,,00067,2023-10-20_15h05.36.907,vbt_B2_day4,2022.2.4,MacIntel,60.0024001,,,,,,down,0,0.0212,,0.507568359,0.214907023,1,0,0,0,144,144,177,1,maaltijd,images/br_maaltijd.png,images/cb_maaltijd.png,0,,,,,,,,,,,,,,,,,,,,,,
,,,,,00067,2023-10-20_15h05.36.907,vbt_B2_day4,2022.2.4,MacIntel,60.0024001,,,,,,down,0,15.401,,0.504325474,0.215126459,1,0,0,0,145,145,159,1,sufferd,images/br_sufferd.png,images/cb_sufferd.png,0,,,,,,,,,,,,,,,,,,,,,,
,,,,,00067,2023-10-20_15h05.36.907,vbt_B2_day4,2022.2.4,MacIntel,60.0024001,,,,,,down,0,0.7835,,0.504325474,0.215126459,1,0,0,0,146,146,0,1,slak,images/br_slak.png,images/cb_slak.png,0,,,,,,,,,,,,,,,,,,,,,,
,,,,,00067,2023-10-20_15h05.36.907,vbt_B2_day4,2022.2.4,MacIntel,60.0024001,,,,,,down,0,0.617,,0.504325474,0.215126459,1,0,0,0,147,147,76,1,afval,images/br_afval.png,images/cb_afval.png,0,,,,,,,,,,,,,,,,,,,,,,
,,,,,00067,2023-10-20_15h05.36.907,vbt_B2_day4,2022.2.4,MacIntel,60.0024001,,,,,,down,0,6.9999,,0.504325474,0.215126459,1,0,0,0,148,148,122,1,waarvan,images/br_waarvan.png,images/cb_waarvan.png,0,,,,,,,,,,,,,,,,,,,,,,
,,,,,00067,2023-10-20_15h05.36.907,vbt_B2_day4,2022.2.4,MacIntel,60.0024001,,,,,,down,0,5.0002,,0.504325474,0.215126459,1,0,0,0,149,149,110,1,zuster,images/br_zuster.png,images/cb_zuster.png,0,,,,,,,,,,,,,,,,,,,,,,
,,,,,00067,2023-10-20_15h05.36.907,vbt_B2_day4,2022.2.4,MacIntel,60.0024001,,,,,,down,0,5.5352,,0.504325474,0.215126459,1,0,0,0,150,150,47,1,kabel,images/br_kabel.png,images/cb_kabel.png,0,,,,,,,,,,,,,,,,,,,,,,
,,,,,00067,2023-10-20_15h05.36.907,vbt_B2_day4,2022.2.4,MacIntel,60.0024001,,,,,,down,0,0.9837,,0.504325474,0.215126459,1,0,0,0,151,151,35,1,lust,images/br_lust.png,images/cb_lust.png,0,,,,,,,,,,,,,,,,,,,,,,
,,,,,00067,2023-10-20_15h05.36.907,vbt_B2_day4,2022.2.4,MacIntel,60.0024001,,,,,,down,0,4.7345,,0.388417155,0.144692092,1,0,0,0,152,152,186,1,voorraad,images/br_voorraad.png,images/cb_voorraad.png,1,voorraad,,,,,,,,,,,,,,,,,,,,,
,,,,,00067,2023-10-20_15h05.36.907,vbt_B2_day4,2022.2.4,MacIntel,60.0024001,,,,,,down,0,17.6518,,0.388417155,0.144692092,1,0,0,0,153,153,128,1,prikken,images/br_prikken.png,images/cb_prikken.png,0,,,,,,,,,,,,,,,,,,,,,,
,,,,,00067,2023-10-20_15h05.36.907,vbt_B2_day4,2022.2.4,MacIntel,60.0024001,,,,,,down,0,0.0353,,0.388417155,0.144692092,1,0,0,0,154,154,87,1,toeval,images/br_toeval.png,images/cb_toeval.png,0,,,,,,,,,,,,,,,,,,,,,,
,,,,,00067,2023-10-20_15h05.36.907,vbt_B2_day4,2022.2.4,MacIntel,60.0024001,,,,,,down,0,0.1837,,0.388417155,0.144692092,1,0,0,0,155,155,29,1,baas,images/br_baas.png,images/cb_baas.png,0,,,,,,,,,,,,,,,,,,,,,,
,,,,,00067,2023-10-20_15h05.36.907,vbt_B2_day4,2022.2.4,MacIntel,60.0024001,,,,,,down,0,6.8808,,0.328796154,0.196555089,1,0,0,0,156,156,64,1,wegen,images/br_wegen.png,images/cb_wegen.png,1,wegen,,,,,,,,,,,,,,,,,,,,,
,,,,,00067,2023-10-20_15h05.36.907,vbt_B2_day4,2022.2.4,MacIntel,60.0024001,,,,,,down,0,0.4344,,0.328796154,0.196555089,1,0,0,0,157,157,166,1,strikken,images/br_strikken.png,images/cb_strikken.png,0,,,,,,,,,,,,,,,,,,,,,,
,,,,,00067,2023-10-20_15h05.36.907,vbt_B2_day4,2022.2.4,MacIntel,60.0024001,,,,,,down,0,2.3712,,0.328796154,0.196555089,1,0,0,0,158,158,172,1,weigeren,images/br_weigeren.png,images/cb_weigeren.png,0,,,,,,,,,,,,,,,,,,,,,,
,,,,,00067,2023-10-20_15h05.36.907,vbt_B2_day4,2022.2.4,MacIntel,60.0024001,,,,,,down,0,0.3647,,0.328796154,0.196555089,1,0,0,0,159,159,163,1,schuilen,images/br_schuilen.png,images/cb_schuilen.png,0,,,,,,,,,,,,,,,,,,,,,,
,,,,,00067,2023-10-20_15h05.36.907,vbt_B2_day4,2022.2.4,MacIntel,60.0024001,,,,,,down,0,0.8383,,0.328796154,0.196555089,1,0,0,0,160,160,73,1,volop,images/br_volop.png,images/cb_volop.png,0,,,,,,,,,,,,,,,,,,,,,,
,,,,,00067,2023-10-20_15h05.36.907,vbt_B2_day4,2022.2.4,MacIntel,60.0024001,,,,,,down,0,1.3859,,0.328796154,0.196555089,1,0,0,0,161,161,30,1,uien,images/br_uien.png,images/cb_uien.png,0,,,,,,,,,,,,,,,,,,,,,,
,,,,,00067,2023-10-20_15h05.36.907,vbt_B2_day4,2022.2.4,MacIntel,60.0024001,,,,,,down,0,2.2167,,0.328796154,0.196555089,1,0,0,0,162,162,51,1,samen,images/br_samen.png,images/cb_samen.png,0,,,,,,,,,,,,,,,,,,,,,,
,,,,,00067,2023-10-20_15h05.36.907,vbt_B2_day4,2022.2.4,MacIntel,60.0024001,,,,,,down,0,16.6859,,0.328796154,0.196555089,1,0,0,0,163,163,9,1,hier,images/br_hier.png,images/cb_hier.png,0,,,,,,,,,,,,,,,,,,,,,,
,,,,,00067,2023-10-20_15h05.36.907,vbt_B2_day4,2022.2.4,MacIntel,60.0024001,,,,,,down,0,22.4996,,0.006857387,-0.114948963,1,0,0,0,164,164,105,1,wijlen,images/br_wijlen.png,images/cb_wijlen.png,1,wijlen,,,,,,,,,,,,,,,,,,,,,
,,,,,00067,2023-10-20_15h05.36.907,vbt_B2_day4,2022.2.4,MacIntel,60.0024001,,,,,,down,0,4.116,,0.006857387,-0.114948963,1,0,0,0,165,165,33,1,vlek,images/br_vlek.png,images/cb_vlek.png,0,,,,,,,,,,,,,,,,,,,,,,
,,,,,00067,2023-10-20_15h05.36.907,vbt_B2_day4,2022.2.4,MacIntel,60.0024001,,,,,,down,0,0.1836,,0.006857387,-0.114948963,1,0,0,0,166,166,121,1,twijfel,images/br_twijfel.png,images/cb_twijfel.png,0,,,,,,,,,,,,,,,,,,,,,,
,,,,,00067,2023-10-20_15h05.36.907,vbt_B2_day4,2022.2.4,MacIntel,60.0024001,,,,,,down,0,0.0345,,0.006418457,-0.114510033,1,0,0,0,167,167,84,1,lokken,images/br_lokken.png,images/cb_lokken.png,0,,,,,,,,,,,,,,,,,,,,,,
,,,,,00067,2023-10-20_15h05.36.907,vbt_B2_day4,2022.2.4,MacIntel,60.0024001,,,,,,down,0,5.667,,0.006418457,-0.114510033,1,0,0,0,168,168,127,1,doodmoe,images/br_doodmoe.png,images/cb_doodmoe.png,0,,,,,,,,,,,,,,,,,,,,,,
,,,,,00067,2023-10-20_15h05.36.907,vbt_B2_day4,2022.2.4,MacIntel,60.0024001,,,,,,down,0,0.3158,,0.006418457,-0.114510033,1,0,0,0,169,169,91,1,gezond,images/br_gezond.png,images/cb_gezond.png,0,,,,,,,,,,,,,,,,,,,,,,
,,,,,00067,2023-10-20_15h05.36.907,vbt_B2_day4,2022.2.4,MacIntel,60.0024001,,,,,,down,0,0.0366,,0.006418457,-0.114510033,1,0,0,0,170,170,16,1,ziek,images/br_ziek.png,images/cb_ziek.png,0,,,,,,,,,,,,,,,,,,,,,,
,,,,,00067,2023-10-20_15h05.36.907,vbt_B2_day4,2022.2.4,MacIntel,60.0024001,,,,,,down,0,0.4173,,0.006418457,-0.114510033,1,0,0,0,171,171,120,1,klimmen,images/br_klimmen.png,images/cb_klimmen.png,0,,,,,,,,,,,,,,,,,,,,,,
,,,,,00067,2023-10-20_15h05.36.907,vbt_B2_day4,2022.2.4,MacIntel,60.0024001,,,,,,down,0,1.5317,,0.006418457,-0.114510033,1,0,0,0,172,172,125,1,aanzien,images/br_aanzien.png,images/cb_aanzien.png,0,,,,,,,,,,,,,,,,,,,,,,
,,,,,00067,2023-10-20_15h05.36.907,vbt_B2_day4,2022.2.4,MacIntel,60.0024001,,,,,,down,0,8.1672,,0.018556896,-0.083165225,1,0,0,0,173,173,145,1,invloed,images/br_invloed.png,images/cb_invloed.png,1,invloed,,,,,,,,,,,,,,,,,,,,,
,,,,,00067,2023-10-20_15h05.36.907,vbt_B2_day4,2022.2.4,MacIntel,60.0024001,,,,,,down,0,0.1672,,0.018556896,-0.083165225,1,0,0,0,174,174,116,1,besmet,images/br_besmet.png,images/cb_besmet.png,0,,,,,,,,,,,,,,,,,,,,,,
,,,,,00067,2023-10-20_15h05.36.907,vbt_B2_day4,2022.2.4,MacIntel,60.0024001,,,,,,down,0,0.4672,,0.018556896,-0.083165225,1,0,0,0,175,175,49,1,laken,images/br_laken.png,images/cb_laken.png,0,,,,,,,,,,,,,,,,,,,,,,
,,,,,00067,2023-10-20_15h05.36.907,vbt_B2_day4,2022.2.4,MacIntel,60.0024001,,,,,,down,0,9.1665,,0.018556896,-0.083165225,1,0,0,0,176,176,184,1,aandelen,images/br_aandelen.png,images/cb_aandelen.png,1,aandelen,,,,,,,,,,,,,,,,,,,,,
,,,,,00067,2023-10-20_15h05.36.907,vbt_B2_day4,2022.2.4,MacIntel,60.0024001,,,,,,down,0,9.5668,,0.018556896,-0.083165225,1,0,0,0,177,177,144,1,eetlust,images/br_eetlust.png,images/cb_eetlust.png,1,eetlust,,,,,,,,,,,,,,,,,,,,,
,,,,,00067,2023-10-20_15h05.36.907,vbt_B2_day4,2022.2.4,MacIntel,60.0024001,,,,,,down,0,1.4201,,0.018556896,-0.083165225,1,0,0,0,178,178,34,1,vorm,images/br_vorm.png,images/cb_vorm.png,0,,,,,,,,,,,,,,,,,,,,,,
,,,,,00067,2023-10-20_15h05.36.907,vbt_B2_day4,2022.2.4,MacIntel,60.0024001,,,,,,down,0,5.3166,,0.018556896,-0.083165225,1,0,0,0,179,179,168,1,bisschop,images/br_bisschop.png,images/cb_bisschop.png,0,,,,,,,,,,,,,,,,,,,,,,
,,,,,00067,2023-10-20_15h05.36.907,vbt_B2_day4,2022.2.4,MacIntel,60.0024001,,,,,,down,0,3.2843,,0.015766427,-0.089721796,1,0,0,0,180,180,197,1,spanning,images/br_spanning.png,images/cb_spanning.png,0,,,,,,,,,,,,,,,,,,,,,,
,,,,,00067,2023-10-20_15h05.36.907,vbt_B2_day4,2022.2.4,MacIntel,60.0024001,,,,,,down,0,3.2647,,0.023972807,-0.085980225,1,0,0,0,181,181,59,1,kring,images/br_kring.png,images/cb_kring.png,0,,,,,,,,,,,,,,,,,,,,,,
,,,,,00067,2023-10-20_15h05.36.907,vbt_B2_day4,2022.2.4,MacIntel,60.0024001,,,,,,down,0,7.4837,,0.025187,-0.091267032,1,0,0,0,182,182,187,1,opkijken,images/br_opkijken.png,images/cb_opkijken.png,1,opkijken,,,,,,,,,,,,,,,,,,,,,
,,,,,00067,2023-10-20_15h05.36.907,vbt_B2_day4,2022.2.4,MacIntel,60.0024001,,,,,,down,0,0.4675,,0.031898426,-0.091962426,1,0,0,0,183,183,83,1,mening,images/br_mening.png,images/cb_mening.png,0,,,,,,,,,,,,,,,,,,,,,,
,,,,,00067,2023-10-20_15h05.36.907,vbt_B2_day4,2022.2.4,MacIntel,60.0024001,,,,,,down,0,0.2033,,0.058472493,-0.074174688,1,0,0,0,184,184,54,1,gebit,images/br_gebit.png,images/cb_gebit.png,0,,,,,,,,,,,,,,,,,,,,,,
,,,,,00067,2023-10-20_15h05.36.907,vbt_B2_day4,2022.2.4,MacIntel,60.0024001,,,,,,down,0,0.3652,,0.071525821,-0.090853155,1,0,0,0,185,185,97,1,loyaal,images/br_loyaal.png,images/cb_loyaal.png,0,,,,,,,,,,,,,,,,,,,,,,
,,,,,00067,2023-10-20_15h05.36.907,vbt_B2_day4,2022.2.4,MacIntel,60.0024001,,,,,,down,0,0.0006,,0.068765637,-0.108800805,1,0,0,0,186,186,42,1,bleek,images/br_bleek.png,images/cb_bleek.png,0,,,,,,,,,,,,,,,,,,,,,,
,,,,,00067,2023-10-20_15h05.36.907,vbt_B2_day4,2022.2.4,MacIntel,60.0024001,,,,,,down,0,6.3833,,0.092211449,-0.001878197,1,0,0,0,187,187,107,1,maling,images/br_maling.png,images/cb_maling.png,1,maling,,,,,,,,,,,,,,,,,,,,,
,,,,,00067,2023-10-20_15h05.36.907,vbt_B2_day4,2022.2.4,MacIntel,60.0024001,,,,,,down,0,1.337,,0.095476946,-0.003263579,1,0,0,0,188,188,44,1,flits,images/br_flits.png,images/cb_flits.png,0,,,,,,,,,,,,,,,,,,,,,,
,,,,,00067,2023-10-20_15h05.36.907,vbt_B2_day4,2022.2.4,MacIntel,60.0024001,,,,,,down,0,0.3693,,0.095476946,0.026392706,1,0,0,0,189,189,148,1,smullen,images/br_smullen.png,images/cb_smullen.png,0,,,,,,,,,,,,,,,,,,,,,,
,,,,,00067,2023-10-20_15h05.36.907,vbt_B2_day4,2022.2.4,MacIntel,60.0024001,,,,,,down,0,1.1004,,0.119491606,0.038372425,1,0,0,0,190,190,98,1,kreeft,images/br_kreeft.png,images/cb_kreeft.png,0,,,,,,,,,,,,,,,,,,,,,,
,,,,,00067,2023-10-20_15h05.36.907,vbt_B2_day4,2022.2.4,MacIntel,60.0024001,,,,,,down,0,1.8007,,0.119491606,0.038372425,1,0,0,0,191,191,137,1,trekker,images/br_trekker.png,images/cb_trekker.png,0,,,,,,,,,,,,,,,,,,,,,,
,,,,,00067,2023-10-20_15h05.36.907,vbt_B2_day4,2022.2.4,MacIntel,60.0024001,,,,,,down,0,1.1512,,0.143579857,0.00819923,1,0,0,0,192,192,170,1,schatten,images/br_schatten.png,images/cb_schatten.png,0,,,,,,,,,,,,,,,,,,,,,,
,,,,,00067,2023-10-20_15h05.36.907,vbt_B2_day4,2022.2.4,MacIntel,60.0024001,,,,,,down,0,0.8163,,0.175644764,0.012993803,1,0,0,0,193,193,176,1,techniek,images/br_techniek.png,images/cb_techniek.png,0,,,,,,,,,,,,,,,,,,,,,,
,,,,,00067,2023-10-20_15h05.36.907,vbt_B2_day4,2022.2.4,MacIntel,60.0024001,,,,,,down,0,1.4506,,0.19063837,0.022195173,1,0,0,0,194,194,118,1,vinger,images/br_vinger.png,images/cb_vinger.png,0,,,,,,,,,,,,,,,,,,,,,,
,,,,,00067,2023-10-20_15h05.36.907,vbt_B2_day4,2022.2.4,MacIntel,60.0024001,,,,,,down,0,0.9,,0.195680571,0.040706991,1,0,0,0,195,195,23,1,zout,images/br_zout.png,images/cb_zout.png,0,,,,,,,,,,,,,,,,,,,,,,
,,,,,00067,2023-10-20_15h05.36.907,vbt_B2_day4,2022.2.4,MacIntel,60.0024001,,,,,,down,0,7.4499,,0.230686849,0.112665086,1,0,0,0,196,196,27,1,dans,images/br_dans.png,images/cb_dans.png,1,dans,,,,,,,,,,,,,,,,,,,,,
,,,,,00067,2023-10-20_15h05.36.907,vbt_B2_day4,2022.2.4,MacIntel,60.0024001,,,,,,down,0,1.8176,,0.232240281,0.112665086,1,0,0,0,197,197,101,1,staren,images/br_staren.png,images/cb_staren.png,0,,,,,,,,,,,,,,,,,,,,,,
,,,,,00067,2023-10-20_15h05.36.907,vbt_B2_day4,2022.2.4,MacIntel,60.0024001,,,,,,down,0,0.1856,,0.232240281,0.112665086,1,0,0,0,198,198,71,1,bever,images/br_bever.png,images/cb_bever.png,0,,,,,,,,,,,,,,,,,,,,,,
,,,,,00067,2023-10-20_15h05.36.907,vbt_B2_day4,2022.2.4,MacIntel,60.0024001,,,,,,down,0,3.6021,,0.232240281,0.112665086,1,0,0,0,199,199,7,1,geld,images/br_geld.png,images/cb_geld.png,0,,,,,,,,,,,,,,,,,,,,,,
,,,,,00067,2023-10-20_15h05.36.907,vbt_B2_day4,2022.2.4,MacIntel,60.0024001,,,,,,,,,,,,,,,,,,,,,,,,,0.232240281,0.112665086,1,0,0,,,,,,,,,,,,,,,,
,,,,,00067,2023-10-20_15h05.36.907,vbt_B2_day4,2022.2.4,MacIntel,60.0024001,,,,,,,,,,,,,,,,,,,,,,,,,,,,,,0.232240281,0.112665086,1,0,0,,,,,,,,,,,
,,,,,00067,2023-10-20_15h05.36.907,vbt_B2_day4,2022.2.4,MacIntel,60.0024001,,,,,,,,,,,,,,,,,,,,gebog,images/br_gebog.png,images/cb_gebog.png,,gebog,,,,,,,,,,,0.192696475,0.046763306,1,0,0,gebog,0,0,0,24,1
,,,,,00067,2023-10-20_15h05.36.907,vbt_B2_day4,2022.2.4,MacIntel,60.0024001,,,,,,,,,,,,,,,,,,,,heengaan,images/br_heengaan.png,images/cb_heengaan.png,,heengaan,,,,,,,,,,,0.106824428,0.051189575,1,0,0,heengaan,0,1,1,19,1
,,,,,00067,2023-10-20_15h05.36.907,vbt_B2_day4,2022.2.4,MacIntel,60.0024001,,,,,,,,,,,,,,,,,,,,schotel,images/br_schotel.png,images/cb_schotel.png,,scholt,,,,,,,,,,,0.071656785,0.091433541,1,0,0,scholt,0,2,2,52,1
,,,,,00067,2023-10-20_15h05.36.907,vbt_B2_day4,2022.2.4,MacIntel,60.0024001,,,,,,,,,,,,,,,,,,,,fran,images/br_fran.png,images/cb_fran.png,,fran,,,,,,,,,,,0.006602086,0.079564354,1,0,0,fran,0,3,3,22,1
,,,,,00067,2023-10-20_15h05.36.907,vbt_B2_day4,2022.2.4,MacIntel,60.0024001,,,,,,,,,,,,,,,,,,,,gaaf,images/br_gaaf.png,images/cb_gaaf.png,,gaaf,,,,,,,,,,,0.006602086,0.079564354,1,0,0,gaaf,0,4,4,43,1
,,,,,00067,2023-10-20_15h05.36.907,vbt_B2_day4,2022.2.4,MacIntel,60.0024001,,,,,,,,,,,,,,,,,,,,oceaan,images/br_oceaan.png,images/cb_oceaan.png,,oceaan,,,,,,,,,,,-0.040362142,0.107968634,1,0,0,oceaan,0,5,5,10,1
,,,,,00067,2023-10-20_15h05.36.907,vbt_B2_day4,2022.2.4,MacIntel,60.0024001,,,,,,,,,,,,,,,,,,,,sulbon,images/br_sulbon.png,images/cb_sulbon.png,,sul...,,,,,,,,,,,-0.130048131,0.151371431,1,0,0,sul...,0,6,6,31,1
,,,,,00067,2023-10-20_15h05.36.907,vbt_B2_day4,2022.2.4,MacIntel,60.0024001,,,,,,,,,,,,,,,,,,,,warel,images/br_warel.png,images/cb_warel.png,,warel,,,,,,,,,,,0.08820638,0.092814564,1,0,0,warel,0,7,7,26,1
,,,,,00067,2023-10-20_15h05.36.907,vbt_B2_day4,2022.2.4,MacIntel,60.0024001,,,,,,,,,,,,,,,,,,,,snee,images/br_snee.png,images/cb_snee.png,,snee,,,,,,,,,,,0.109235433,0.142623407,1,0,0,snee,0,8,8,40,1
,,,,,00067,2023-10-20_15h05.36.907,vbt_B2_day4,2022.2.4,MacIntel,60.0024001,,,,,,,,,,,,,,,,,,,,getucht,images/br_getucht.png,images/cb_getucht.png,,getucht,,,,,,,,,,,0.046307315,0.163169643,1,0,0,getucht,0,9,9,35,1
,,,,,00067,2023-10-20_15h05.36.907,vbt_B2_day4,2022.2.4,MacIntel,60.0024001,,,,,,,,,,,,,,,,,,,,gijf,images/br_gijf.png,images/cb_gijf.png,,gijf,,,,,,,,,,,-0.037960903,0.131564767,1,0,0,gijf,0,10,10,23,1
,,,,,00067,2023-10-20_15h05.36.907,vbt_B2_day4,2022.2.4,MacIntel,60.0024001,,,,,,,,,,,,,,,,,,,,soda,images/br_soda.png,images/cb_soda.png,,soda,,,,,,,,,,,-0.037960903,0.131564767,1,0,0,soda,0,11,11,3,1
,,,,,00067,2023-10-20_15h05.36.907,vbt_B2_day4,2022.2.4,MacIntel,60.0024001,,,,,,,,,,,,,,,,,,,,gebit,images/br_gebit.png,images/cb_gebit.png,,gelt,,,,,,,,,,,-0.039980934,0.131564767,1,0,0,gelt,0,12,12,6,1
,,,,,00067,2023-10-20_15h05.36.907,vbt_B2_day4,2022.2.4,MacIntel,60.0024001,,,,,,,,,,,,,,,,,,,,drooien,images/br_drooien.png,images/cb_drooien.png,,drooie.,,,,,,,,,,,-0.067786633,0.14387364,1,0,0,drooie.,0,13,13,32,1
,,,,,00067,2023-10-20_15h05.36.907,vbt_B2_day4,2022.2.4,MacIntel,60.0024001,,,,,,,,,,,,,,,,,,,,steen,images/br_steen.png,images/cb_steen.png,,steen,,,,,,,,,,,-0.118078206,0.126082967,1,0,0,steen,0,14,14,44,1
,,,,,00067,2023-10-20_15h05.36.907,vbt_B2_day4,2022.2.4,MacIntel,60.0024001,,,,,,,,,,,,,,,,,,,,seizoon,images/br_seizoon.png,images/cb_seizoon.png,,seizoon,,,,,,,,,,,-0.184293736,0.128344523,1,0,0,seizoon,0,15,15,33,1
,,,,,00067,2023-10-20_15h05.36.907,vbt_B2_day4,2022.2.4,MacIntel,60.0024001,,,,,,,,,,,,,,,,,,,,broodje,images/br_broodje.png,images/cb_broodje.png,,brood..,,,,,,,,,,,-0.203237247,0.158402913,1,0,0,brood..,0,16,16,55,1
,,,,,00067,2023-10-20_15h05.36.907,vbt_B2_day4,2022.2.4,MacIntel,60.0024001,,,,,,,,,,,,,,,,,,,,praat,images/br_praat.png,images/cb_praat.png,,praat,,,,,,,,,,,-0.203237247,0.158402913,1,0,0,praat,0,17,17,7,1
,,,,,00067,2023-10-20_15h05.36.907,vbt_B2_day4,2022.2.4,MacIntel,60.0024001,,,,,,,,,,,,,,,,,,,,dozijn,images/br_dozijn.png,images/cb_dozijn.png,,dozijn,,,,,,,,,,,-0.261319696,0.206821202,1,0,0,dozijn,0,18,18,48,1
,,,,,00067,2023-10-20_15h05.36.907,vbt_B2_day4,2022.2.4,MacIntel,60.0024001,,,,,,,,,,,,,,,,,,,,grappen,images/br_grappen.png,images/cb_grappen.png,,grappen,,,,,,,,,,,-0.227732631,0.289002075,1,0,0,grappen,0,19,19,12,1
,,,,,00067,2023-10-20_15h05.36.907,vbt_B2_day4,2022.2.4,MacIntel,60.0024001,,,,,,,,,,,,,,,,,,,,vreten,images/br_vreten.png,images/cb_vreten.png,,vreten,,,,,,,,,,,-0.212681594,0.34689225,1,0,0,vreten,0,20,20,11,1
,,,,,00067,2023-10-20_15h05.36.907,vbt_B2_day4,2022.2.4,MacIntel,60.0024001,,,,,,,,,,,,,,,,,,,,weigeren,images/br_weigeren.png,images/cb_weigeren.png,,weigeren,,,,,,,,,,,-0.184683082,0.389920175,1,0,0,weigeren,0,21,21,16,1
,,,,,00067,2023-10-20_15h05.36.907,vbt_B2_day4,2022.2.4,MacIntel,60.0024001,,,,,,,,,,,,,,,,,,,,opruimen,images/br_opruimen.png,images/cb_opruimen.png,,opruimen,,,,,,,,,,,-0.159105283,0.432064006,1,0,0,opruimen,0,22,22,59,1
,,,,,00067,2023-10-20_15h05.36.907,vbt_B2_day4,2022.2.4,MacIntel,60.0024001,,,,,,,,,,,,,,,,,,,,kaal,images/br_kaal.png,images/cb_kaal.png,,kaal,,,,,,,,,,,-0.074333147,0.30539606,1,0,0,kaal,0,23,23,1,1
,,,,,00067,2023-10-20_15h05.36.907,vbt_B2_day4,2022.2.4,MacIntel,60.0024001,,,,,,,,,,,,,,,,,,,,strok,images/br_strok.png,images/cb_strok.png,,strok,,,,,,,,,,,-0.088369664,0.201806466,1,0,0,strok,0,24,24,25,1
,,,,,00067,2023-10-20_15h05.36.907,vbt_B2_day4,2022.2.4,MacIntel,60.0024001,,,,,,,,,,,,,,,,,,,,baron,images/br_baron.png,images/cb_baron.png,,baron,,,,,,,,,,,-0.07732387,0.106258981,1,0,0,baron,0,25,25,5,1
,,,,,00067,2023-10-20_15h05.36.907,vbt_B2_day4,2022.2.4,MacIntel,60.0024001,,,,,,,,,,,,,,,,,,,,rijp,images/br_rijp.png,images/cb_rijp.png,,rijp,,,,,,,,,,,-0.098877941,-0.019213635,1,0,0,rijp,0,26,26,2,1
,,,,,00067,2023-10-20_15h05.36.907,vbt_B2_day4,2022.2.4,MacIntel,60.0024001,,,,,,,,,,,,,,,,,,,,pittig,images/br_pittig.png,images/cb_pittig.png,,pittig,,,,,,,,,,,0.036301735,0.185254575,1,0,0,pittig,0,27,27,51,1
,,,,,00067,2023-10-20_15h05.36.907,vbt_B2_day4,2022.2.4,MacIntel,60.0024001,,,,,,,,,,,,,,,,,,,,kust,images/br_kust.png,images/cb_kust.png,,kust,,,,,,,,,,,0.074126383,0.197263387,1,0,0,kust,0,28,28,0,1
,,,,,00067,2023-10-20_15h05.36.907,vbt_B2_day4,2022.2.4,MacIntel,60.0024001,,,,,,,,,,,,,,,,,,,,pijnlijk,images/br_pijnlijk.png,images/cb_pijnlijk.png,,pijnlijk,,,,,,,,,,,0.005898496,0.156707182,1,0,0,pijnlijk,0,29,29,58,1
,,,,,00067,2023-10-20_15h05.36.907,vbt_B2_day4,2022.2.4,MacIntel,60.0024001,,,,,,,,,,,,,,,,,,,,geliefd,images/br_geliefd.png,images/cb_geliefd.png,,geliefd,,,,,,,,,,,0.04471203,0.100576521,1,0,0,geliefd,0,30,30,14,1
,,,,,00067,2023-10-20_15h05.36.907,vbt_B2_day4,2022.2.4,MacIntel,60.0024001,,,,,,,,,,,,,,,,,,,,opkicht,images/br_opkicht.png,images/cb_opkicht.png,,opkic..,,,,,,,,,,,0.105142648,0.083456537,1,0,0,opkic..,0,31,31,34,1
,,,,,00067,2023-10-20_15h05.36.907,vbt_B2_day4,2022.2.4,MacIntel,60.0024001,,,,,,,,,,,,,,,,,,,,seizoen,images/br_seizoen.png,images/cb_seizoen.png,,seinn....,,,,,,,,,,,0.101491583,0.129163557,1,0,0,seinn....,0,32,32,13,1
,,,,,00067,2023-10-20_15h05.36.907,vbt_B2_day4,2022.2.4,MacIntel,60.0024001,,,,,,,,,,,,,,,,,,,,bruin,images/br_bruin.png,images/cb_bruin.png,,bruin,,,,,,,,,,,0.08688959,0.20112418,1,0,0,bruin,0,33,33,45,1
,,,,,00067,2023-10-20_15h05.36.907,vbt_B2_day4,2022.2.4,MacIntel,60.0024001,,,,,,,,,,,,,,,,,,,,aanzwaag,images/br_aanzwaag.png,images/cb_aanzwaag.png,,aanzwaan,,,,,,,,,,,-0.010660342,0.208254278,1,0,0,aanzwaan,0,34,34,38,1
,,,,,00067,2023-10-20_15h05.36.907,vbt_B2_day4,2022.2.4,MacIntel,60.0024001,,,,,,,,,,,,,,,,,,,,haza,images/br_haza.png,images/cb_haza.png,,haza,,,,,,,,,,,-0.120970866,0.259957072,1,0,0,haza,0,35,35,21,1
,,,,,00067,2023-10-20_15h05.36.907,vbt_B2_day4,2022.2.4,MacIntel,60.0024001,,,,,,,,,,,,,,,,,,,,drummer,images/br_drummer.png,images/cb_drummer.png,,drummen,,,,,,,,,,,-0.202560861,0.164140334,1,0,0,drummen,0,36,36,53,1
,,,,,00067,2023-10-20_15h05.36.907,vbt_B2_day4,2022.2.4,MacIntel,60.0024001,,,,,,,,,,,,,,,,,,,,paalbaak,images/br_paalbaak.png,images/cb_paalbaak.png,,paalbaak,,,,,,,,,,,-0.270321684,0.120478952,1,0,0,paalbaak,0,37,37,39,1
,,,,,00067,2023-10-20_15h05.36.907,vbt_B2_day4,2022.2.4,MacIntel,60.0024001,,,,,,,,,,,,,,,,,,,,stemming,images/br_stemming.png,images/cb_stemming.png,,stemming,,,,,,,,,,,-0.351553897,0.15949181,1,0,0,stemming,0,38,38,18,1
,,,,,00067,2023-10-20_15h05.36.907,vbt_B2_day4,2022.2.4,MacIntel,60.0024001,,,,,,,,,,,,,,,,,,,,tucket,images/br_tucket.png,images/cb_tucket.png,,suck..,,,,,,,,,,,-0.354582694,0.166547474,1,0,0,suck..,0,39,39,30,1
,,,,,00067,2023-10-20_15h05.36.907,vbt_B2_day4,2022.2.4,MacIntel,60.0024001,,,,,,,,,,,,,,,,,,,,ezel,images/br_ezel.png,images/cb_ezel.png,,ezel,,,,,,,,,,,-0.3465212,0.229703776,1,0,0,ezel,0,40,40,42,1
,,,,,00067,2023-10-20_15h05.36.907,vbt_B2_day4,2022.2.4,MacIntel,60.0024001,,,,,,,,,,,,,,,,,,,,wozing,images/br_wozing.png,images/cb_wozing.png,,wozing,,,,,,,,,,,-0.124341983,0.247751407,1,0,0,wozing,0,41,41,28,1
,,,,,00067,2023-10-20_15h05.36.907,vbt_B2_day4,2022.2.4,MacIntel,60.0024001,,,,,,,,,,,,,,,,,,,,toevol,images/br_toevol.png,images/cb_toevol.png,,toev..,,,,,,,,,,,-0.1692023,0.282940572,1,0,0,toev..,0,42,42,29,1
,,,,,00067,2023-10-20_15h05.36.907,vbt_B2_day4,2022.2.4,MacIntel,60.0024001,,,,,,,,,,,,,,,,,,,,midden,images/br_midden.png,images/cb_midden.png,,midden,,,,,,,,,,,-0.174952102,0.248908314,1,0,0,midden,0,43,43,50,1
,,,,,00067,2023-10-20_15h05.36.907,vbt_B2_day4,2022.2.4,MacIntel,60.0024001,,,,,,,,,,,,,,,,,,,,lappen,images/br_lappen.png,images/cb_lappen.png,,lappen,,,,,,,,,,,-0.13436134,0.302459702,1,0,0,lappen,0,44,44,49,1
,,,,,00067,2023-10-20_15h05.36.907,vbt_B2_day4,2022.2.4,MacIntel,60.0024001,,,,,,,,,,,,,,,,,,,,noodzaak,images/br_noodzaak.png,images/cb_noodzaak.png,,noodzaal,,,,,,,,,,,-0.090345633,0.41315514,1,0,0,noodzaal,0,45,45,56,1
,,,,,00067,2023-10-20_15h05.36.907,vbt_B2_day4,2022.2.4,MacIntel,60.0024001,,,,,,,,,,,,,,,,,,,,eerst,images/br_eerst.png,images/cb_eerst.png,,eerst,,,,,,,,,,,-0.090345633,0.41315514,1,0,0,eerst,0,46,46,47,1
,,,,,00067,2023-10-20_15h05.36.907,vbt_B2_day4,2022.2.4,MacIntel,60.0024001,,,,,,,,,,,,,,,,,,,,bisschap,images/br_bisschap.png,images/cb_bisschap.png,,bisschop,,,,,,,,,,,0.010878151,0.314397162,1,0,0,bisschop,0,47,47,36,1
,,,,,00067,2023-10-20_15h05.36.907,vbt_B2_day4,2022.2.4,MacIntel,60.0024001,,,,,,,,,,,,,,,,,,,,zwek,images/br_zwek.png,images/cb_zwek.png,,zwek,,,,,,,,,,,0.018664725,0.246246803,1,0,0,zwek,0,48,48,20,1
,,,,,00067,2023-10-20_15h05.36.907,vbt_B2_day4,2022.2.4,MacIntel,60.0024001,,,,,,,,,,,,,,,,,,,,apparaat,images/br_apparaat.png,images/cb_apparaat.png,,apparaat,,,,,,,,,,,-0.139806024,0.090334763,1,0,0,apparaat,0,49,49,17,1
,,,,,00067,2023-10-20_15h05.36.907,vbt_B2_day4,2022.2.4,MacIntel,60.0024001,,,,,,,,,,,,,,,,,,,,wagon,images/br_wagon.png,images/cb_wagon.png,,wagon,,,,,,,,,,,-0.163600028,0.13420538,1,0,0,wagon,0,50,50,4,1
,,,,,00067,2023-10-20_15h05.36.907,vbt_B2_day4,2022.2.4,MacIntel,60.0024001,,,,,,,,,,,,,,,,,,,,gaan,images/br_gaan.png,images/cb_gaan.png,,gaan,,,,,,,,,,,-0.163600028,0.133327172,1,0,0,gaan,0,51,51,41,1
,,,,,00067,2023-10-20_15h05.36.907,vbt_B2_day4,2022.2.4,MacIntel,60.0024001,,,,,,,,,,,,,,,,,,,,gedicht,images/br_gedicht.png,images/cb_gedicht.png,,gedicht,,,,,,,,,,,-0.078764183,0.196035796,1,0,0,gedicht,0,52,52,15,1
,,,,,00067,2023-10-20_15h05.36.907,vbt_B2_day4,2022.2.4,MacIntel,60.0024001,,,,,,,,,,,,,,,,,,,,flippen,images/br_flippen.png,images/cb_flippen.png,,flippen,,,,,,,,,,,-0.094600191,0.137950846,1,0,0,flippen,0,53,53,54,1
,,,,,00067,2023-10-20_15h05.36.907,vbt_B2_day4,2022.2.4,MacIntel,60.0024001,,,,,,,,,,,,,,,,,,,,waarop,images/br_waarop.png,images/cb_waarop.png,,waarop,,,,,,,,,,,0.009892113,0.166368612,1,0,0,waarop,0,54,54,9,1
,,,,,00067,2023-10-20_15h05.36.907,vbt_B2_day4,2022.2.4,MacIntel,60.0024001,,,,,,,,,,,,,,,,,,,,mekst,images/br_mekst.png,images/cb_mekst.png,,mekt.,,,,,,,,,,,0.054494048,0.172008347,1,0,0,mekt.,0,55,55,27,1
,,,,,00067,2023-10-20_15h05.36.907,vbt_B2_day4,2022.2.4,MacIntel,60.0024001,,,,,,,,,,,,,,,,,,,,dalen,images/br_dalen.png,images/cb_dalen.png,,dalen,,,,,,,,,,,0.012915213,0.197717576,1,0,0,dalen,0,56,56,46,1
,,,,,00067,2023-10-20_15h05.36.907,vbt_B2_day4,2022.2.4,MacIntel,60.0024001,,,,,,,,,,,,,,,,,,,,schenden,images/br_schenden.png,images/cb_schenden.png,,schen...,,,,,,,,,,,0.018735352,0.214135103,1,0,0,schen...,0,57,57,57,1
,,,,,00067,2023-10-20_15h05.36.907,vbt_B2_day4,2022.2.4,MacIntel,60.0024001,,,,,,,,,,,,,,,,,,,,zaalrijk,images/br_zaalrijk.png,images/cb_zaalrijk.png,,zaalrijk,,,,,,,,,,,-0.042386242,0.189703282,1,0,0,zaalrijk,0,58,58,37,1
,,,,,00067,2023-10-20_15h05.36.907,vbt_B2_day4,2022.2.4,MacIntel,60.0024001,,,,,,,,,,,,,,,,,,,,geheim,images/br_geheim.png,images/cb_geheim.png,,geheim,,,,,,,,,,,0.043794643,0.18115897,1,0,0,geheim,0,59,59,8,1
,,,,,00067,2023-10-20_15h05.36.907,vbt_B2_day4,2022.2.4,MacIntel,60.0024001,,,,,,,,,,,,,,,,,,,,,,,,,,,,,,,,,,,,,,,,,,,,,
