welcome_mouse.x,welcome_mouse.y,welcome_mouse.leftButton,welcome_mouse.midButton,welcome_mouse.rightButton,"ID",date,expName,psychopyVersion,OS,frameRate,trainInstr_mouse.x,trainInstr_mouse.y,trainInstr_mouse.leftButton,trainInstr_mouse.midButton,trainInstr_mouse.rightButton,translation_key.keys,translation_key.corr,translation_key.rt,word_rsp.text,trWrd_mouse.x,trWrd_mouse.y,trWrd_mouse.leftButton,trWrd_mouse.midButton,trWrd_mouse.rightButton,train_loop.thisRepN,train_loop.thisTrialN,train_loop.thisN,train_loop.thisIndex,train_loop.ran,nlWrd,brWrd,cbWrd,test,testResp,mouse.x,mouse.y,mouse.leftButton,mouse.midButton,mouse.rightButton,testInstr_mouse.x,testInstr_mouse.y,testInstr_mouse.leftButton,testInstr_mouse.midButton,testInstr_mouse.rightButton,test_mouse.x,test_mouse.y,test_mouse.leftButton,test_mouse.midButton,test_mouse.rightButton,test_response.text,test_loop.thisRepN,test_loop.thisTrialN,test_loop.thisN,test_loop.thisIndex,test_loop.ran
-0.039814772,-0.194444444,1,0,0,00111,2023-12-09_16h52.05.581,vbt_B2_day4,2022.2.4,Win32,60.31726883,,,,,,,,,,,,,,,,,,,,,,,,,,,,,,,,,,,,,,,,,,,,,
,,,,,00111,2023-12-09_16h52.05.581,vbt_B2_day4,2022.2.4,Win32,60.31726883,0.273148148,-0.294444473,1,0,0,,,,,,,,,,,,,,,,,,,,,,,,,,,,,,,,,,,,,,,,
,,,,,00111,2023-12-09_16h52.05.581,vbt_B2_day4,2022.2.4,Win32,60.31726883,,,,,,down,0,5.556,,0.273148148,-0.294444473,1,0,0,0,0,0,85,1,heilig,images/br_heilig.png,images/cb_heilig.png,0,,,,,,,,,,,,,,,,,,,,,,
,,,,,00111,2023-12-09_16h52.05.581,vbt_B2_day4,2022.2.4,Win32,60.31726883,,,,,,down,0,2.8303,,0.273148148,-0.294444473,1,0,0,0,1,1,176,1,techniek,images/br_techniek.png,images/cb_techniek.png,0,,,,,,,,,,,,,,,,,,,,,,
,,,,,00111,2023-12-09_16h52.05.581,vbt_B2_day4,2022.2.4,Win32,60.31726883,,,,,,down,0,0.6743,,0.273148148,-0.294444473,1,0,0,0,2,2,170,1,schatten,images/br_schatten.png,images/cb_schatten.png,0,,,,,,,,,,,,,,,,,,,,,,
,,,,,00111,2023-12-09_16h52.05.581,vbt_B2_day4,2022.2.4,Win32,60.31726883,,,,,,down,0,5.7544,,0.273148148,-0.294444473,1,0,0,0,3,3,108,1,excuus,images/br_excuus.png,images/cb_excuus.png,0,,,,,,,,,,,,,,,,,,,,,,
,,,,,00111,2023-12-09_16h52.05.581,vbt_B2_day4,2022.2.4,Win32,60.31726883,,,,,,down,0,1.0662,,0.346296381,-0.392592607,1,0,0,0,4,4,132,1,grappen,images/br_grappen.png,images/cb_grappen.png,0,,,,,,,,,,,,,,,,,,,,,,
,,,,,00111,2023-12-09_16h52.05.581,vbt_B2_day4,2022.2.4,Win32,60.31726883,,,,,,down,0,0.068299999,,0.339814787,-0.384259259,1,0,0,0,5,5,103,1,joggen,images/br_joggen.png,images/cb_joggen.png,0,,,,,,,,,,,,,,,,,,,,,,
,,,,,00111,2023-12-09_16h52.05.581,vbt_B2_day4,2022.2.4,Win32,60.31726883,,,,,,down,0,0.1668,,0.339814787,-0.384259259,1,0,0,0,6,6,141,1,knielen,images/br_knielen.png,images/cb_knielen.png,0,,,,,,,,,,,,,,,,,,,,,,
,,,,,00111,2023-12-09_16h52.05.581,vbt_B2_day4,2022.2.4,Win32,60.31726883,,,,,,down,0,0.6145,,0.339814787,-0.384259259,1,0,0,0,7,7,68,1,schat,images/br_schat.png,images/cb_schat.png,0,,,,,,,,,,,,,,,,,,,,,,
,,,,,00111,2023-12-09_16h52.05.581,vbt_B2_day4,2022.2.4,Win32,60.31726883,,,,,,down,0,3.213200001,,0.339814787,-0.384259259,1,0,0,0,8,8,70,1,ijdel,images/br_ijdel.png,images/cb_ijdel.png,0,,,,,,,,,,,,,,,,,,,,,,
,,,,,00111,2023-12-09_16h52.05.581,vbt_B2_day4,2022.2.4,Win32,60.31726883,,,,,,down,0,5.5158,,0.339814787,-0.384259259,1,0,0,0,9,9,195,1,middelen,images/br_middelen.png,images/cb_middelen.png,0,,,,,,,,,,,,,,,,,,,,,,
,,,,,00111,2023-12-09_16h52.05.581,vbt_B2_day4,2022.2.4,Win32,60.31726883,,,,,,down,0,1.3677,,0.339814787,-0.384259259,1,0,0,0,10,10,11,1,mode,images/br_mode.png,images/cb_mode.png,0,,,,,,,,,,,,,,,,,,,,,,
,,,,,00111,2023-12-09_16h52.05.581,vbt_B2_day4,2022.2.4,Win32,60.31726883,,,,,,down,0,1.0688,,0.339814787,-0.384259259,1,0,0,0,11,11,62,1,knaap,images/br_knaap.png,images/cb_knaap.png,0,,,,,,,,,,,,,,,,,,,,,,
,,,,,00111,2023-12-09_16h52.05.581,vbt_B2_day4,2022.2.4,Win32,60.31726883,,,,,,down,0,1.9188,,0.339814787,-0.384259259,1,0,0,0,12,12,96,1,slagen,images/br_slagen.png,images/cb_slagen.png,0,,,,,,,,,,,,,,,,,,,,,,
,,,,,00111,2023-12-09_16h52.05.581,vbt_B2_day4,2022.2.4,Win32,60.31726883,,,,,,down,0,0.884900001,,0.339814787,-0.384259259,1,0,0,0,13,13,174,1,stemming,images/br_stemming.png,images/cb_stemming.png,0,,,,,,,,,,,,,,,,,,,,,,
,,,,,00111,2023-12-09_16h52.05.581,vbt_B2_day4,2022.2.4,Win32,60.31726883,,,,,,down,0,0.7884,,0.339814787,-0.384259259,1,0,0,0,14,14,149,1,redding,images/br_redding.png,images/cb_redding.png,0,,,,,,,,,,,,,,,,,,,,,,
,,,,,00111,2023-12-09_16h52.05.581,vbt_B2_day4,2022.2.4,Win32,60.31726883,,,,,,down,0,5.868,,0.339814787,-0.384259259,1,0,0,0,15,15,168,1,bisschop,images/br_bisschop.png,images/cb_bisschop.png,0,,,,,,,,,,,,,,,,,,,,,,
,,,,,00111,2023-12-09_16h52.05.581,vbt_B2_day4,2022.2.4,Win32,60.31726883,,,,,,down,0,0.0985,,0.339814787,-0.384259259,1,0,0,0,16,16,50,1,stoom,images/br_stoom.png,images/cb_stoom.png,0,,,,,,,,,,,,,,,,,,,,,,
,,,,,00111,2023-12-09_16h52.05.581,vbt_B2_day4,2022.2.4,Win32,60.31726883,,,,,,down,0,0.832900001,,0.339814787,-0.384259259,1,0,0,0,17,17,119,1,liefje,images/br_liefje.png,images/cb_liefje.png,0,,,,,,,,,,,,,,,,,,,,,,
,,,,,00111,2023-12-09_16h52.05.581,vbt_B2_day4,2022.2.4,Win32,60.31726883,,,,,,down,0,2.033,,0.339814787,-0.384259259,1,0,0,0,18,18,102,1,legaal,images/br_legaal.png,images/cb_legaal.png,0,,,,,,,,,,,,,,,,,,,,,,
,,,,,00111,2023-12-09_16h52.05.581,vbt_B2_day4,2022.2.4,Win32,60.31726883,,,,,,down,0,0.0095,,0.339814787,-0.384259259,1,0,0,0,19,19,37,1,mijn,images/br_mijn.png,images/cb_mijn.png,0,,,,,,,,,,,,,,,,,,,,,,
,,,,,00111,2023-12-09_16h52.05.581,vbt_B2_day4,2022.2.4,Win32,60.31726883,,,,,,down,0,0.9572,,0.339814787,-0.384259259,1,0,0,0,20,20,181,1,toegeven,images/br_toegeven.png,images/cb_toegeven.png,0,,,,,,,,,,,,,,,,,,,,,,
,,,,,00111,2023-12-09_16h52.05.581,vbt_B2_day4,2022.2.4,Win32,60.31726883,,,,,,down,0,0.8997,,0.339814787,-0.384259259,1,0,0,0,21,21,73,1,volop,images/br_volop.png,images/cb_volop.png,0,,,,,,,,,,,,,,,,,,,,,,
,,,,,00111,2023-12-09_16h52.05.581,vbt_B2_day4,2022.2.4,Win32,60.31726883,,,,,,down,0,1.3347,,0.339814787,-0.384259259,1,0,0,0,22,22,81,1,dubbel,images/br_dubbel.png,images/cb_dubbel.png,0,,,,,,,,,,,,,,,,,,,,,,
,,,,,00111,2023-12-09_16h52.05.581,vbt_B2_day4,2022.2.4,Win32,60.31726883,,,,,,down,0,0.3605,,0.339814787,-0.384259259,1,0,0,0,23,23,112,1,lukken,images/br_lukken.png,images/cb_lukken.png,0,,,,,,,,,,,,,,,,,,,,,,
,,,,,00111,2023-12-09_16h52.05.581,vbt_B2_day4,2022.2.4,Win32,60.31726883,,,,,,down,0,0.0542,,0.339814787,-0.384259259,1,0,0,0,24,24,83,1,mening,images/br_mening.png,images/cb_mening.png,0,,,,,,,,,,,,,,,,,,,,,,
,,,,,00111,2023-12-09_16h52.05.581,vbt_B2_day4,2022.2.4,Win32,60.31726883,,,,,,down,0,0.3876,,0.339814787,-0.384259259,1,0,0,0,25,25,49,1,laken,images/br_laken.png,images/cb_laken.png,0,,,,,,,,,,,,,,,,,,,,,,
,,,,,00111,2023-12-09_16h52.05.581,vbt_B2_day4,2022.2.4,Win32,60.31726883,,,,,,down,0,2.2802,,0.339814787,-0.384259259,1,0,0,0,26,26,71,1,bever,images/br_bever.png,images/cb_bever.png,0,,,,,,,,,,,,,,,,,,,,,,
,,,,,00111,2023-12-09_16h52.05.581,vbt_B2_day4,2022.2.4,Win32,60.31726883,,,,,,down,0,0.085099999,,0.339814787,-0.384259259,1,0,0,0,27,27,18,1,blik,images/br_blik.png,images/cb_blik.png,0,,,,,,,,,,,,,,,,,,,,,,
,,,,,00111,2023-12-09_16h52.05.581,vbt_B2_day4,2022.2.4,Win32,60.31726883,,,,,,down,0,3.131900001,,0.339814787,-0.384259259,1,0,0,0,28,28,44,1,flits,images/br_flits.png,images/cb_flits.png,0,,,,,,,,,,,,,,,,,,,,,,
,,,,,00111,2023-12-09_16h52.05.581,vbt_B2_day4,2022.2.4,Win32,60.31726883,,,,,,down,0,1.331,,0.339814787,-0.384259259,1,0,0,0,29,29,55,1,praat,images/br_praat.png,images/cb_praat.png,0,,,,,,,,,,,,,,,,,,,,,,
,,,,,00111,2023-12-09_16h52.05.581,vbt_B2_day4,2022.2.4,Win32,60.31726883,,,,,,down,0,0.8949,,0.339814787,-0.384259259,1,0,0,0,30,30,5,1,blad,images/br_blad.png,images/cb_blad.png,0,,,,,,,,,,,,,,,,,,,,,,
,,,,,00111,2023-12-09_16h52.05.581,vbt_B2_day4,2022.2.4,Win32,60.31726883,,,,,,down,0,0.9226,,0.339814787,-0.384259259,1,0,0,0,31,31,101,1,staren,images/br_staren.png,images/cb_staren.png,0,,,,,,,,,,,,,,,,,,,,,,
,,,,,00111,2023-12-09_16h52.05.581,vbt_B2_day4,2022.2.4,Win32,60.31726883,,,,,,down,0,0.2838,,0.339814787,-0.384259259,1,0,0,0,32,32,180,1,openbaar,images/br_openbaar.png,images/cb_openbaar.png,0,,,,,,,,,,,,,,,,,,,,,,
,,,,,00111,2023-12-09_16h52.05.581,vbt_B2_day4,2022.2.4,Win32,60.31726883,,,,,,down,0,0.473,,0.339814787,-0.384259259,1,0,0,0,33,33,91,1,gezond,images/br_gezond.png,images/cb_gezond.png,0,,,,,,,,,,,,,,,,,,,,,,
,,,,,00111,2023-12-09_16h52.05.581,vbt_B2_day4,2022.2.4,Win32,60.31726883,,,,,,down,0,0.5318,,0.339814787,-0.384259259,1,0,0,0,34,34,154,1,aflopen,images/br_aflopen.png,images/cb_aflopen.png,0,,,,,,,,,,,,,,,,,,,,,,
,,,,,00111,2023-12-09_16h52.05.581,vbt_B2_day4,2022.2.4,Win32,60.31726883,,,,,,down,0,0.5517,,0.339814787,-0.384259259,1,0,0,0,35,35,121,1,twijfel,images/br_twijfel.png,images/cb_twijfel.png,0,,,,,,,,,,,,,,,,,,,,,,
,,,,,00111,2023-12-09_16h52.05.581,vbt_B2_day4,2022.2.4,Win32,60.31726883,,,,,,down,0,2.1232,,0.339814787,-0.384259259,1,0,0,0,36,36,198,1,bedoelen,images/br_bedoelen.png,images/cb_bedoelen.png,0,,,,,,,,,,,,,,,,,,,,,,
,,,,,00111,2023-12-09_16h52.05.581,vbt_B2_day4,2022.2.4,Win32,60.31726883,,,,,,down,0,0.266,,0.339814787,-0.384259259,1,0,0,0,37,37,57,1,steek,images/br_steek.png,images/cb_steek.png,0,,,,,,,,,,,,,,,,,,,,,,
,,,,,00111,2023-12-09_16h52.05.581,vbt_B2_day4,2022.2.4,Win32,60.31726883,,,,,,down,0,0.0068,,0.339814787,-0.384259259,1,0,0,0,38,38,78,1,leren,images/br_leren.png,images/cb_leren.png,0,,,,,,,,,,,,,,,,,,,,,,
,,,,,00111,2023-12-09_16h52.05.581,vbt_B2_day4,2022.2.4,Win32,60.31726883,,,,,,down,0,2.467900001,,0.339814787,-0.384259259,1,0,0,0,39,39,46,1,jagen,images/br_jagen.png,images/cb_jagen.png,0,,,,,,,,,,,,,,,,,,,,,,
,,,,,00111,2023-12-09_16h52.05.581,vbt_B2_day4,2022.2.4,Win32,60.31726883,,,,,,down,0,0.300099999,,0.339814787,-0.384259259,1,0,0,0,40,40,22,1,stof,images/br_stof.png,images/cb_stof.png,0,,,,,,,,,,,,,,,,,,,,,,
,,,,,00111,2023-12-09_16h52.05.581,vbt_B2_day4,2022.2.4,Win32,60.31726883,,,,,,down,0,0.2549,,0.339814787,-0.384259259,1,0,0,0,41,41,89,1,slapen,images/br_slapen.png,images/cb_slapen.png,0,,,,,,,,,,,,,,,,,,,,,,
,,,,,00111,2023-12-09_16h52.05.581,vbt_B2_day4,2022.2.4,Win32,60.31726883,,,,,,down,0,9.4197,,0.339814787,-0.384259259,1,0,0,0,42,42,185,1,mijnheer,images/br_mijnheer.png,images/cb_mijnheer.png,1,mijnheer,,,,,,,,,,,,,,,,,,,,,
,,,,,00111,2023-12-09_16h52.05.581,vbt_B2_day4,2022.2.4,Win32,60.31726883,,,,,,down,0,1.798,,0.339814787,-0.384259259,1,0,0,0,43,43,126,1,kasteel,images/br_kasteel.png,images/cb_kasteel.png,0,,,,,,,,,,,,,,,,,,,,,,
,,,,,00111,2023-12-09_16h52.05.581,vbt_B2_day4,2022.2.4,Win32,60.31726883,,,,,,down,0,0.4838,,0.339814787,-0.384259259,1,0,0,0,44,44,12,1,kust,images/br_kust.png,images/cb_kust.png,0,,,,,,,,,,,,,,,,,,,,,,
,,,,,00111,2023-12-09_16h52.05.581,vbt_B2_day4,2022.2.4,Win32,60.31726883,,,,,,down,0,0.518599999,,0.339814787,-0.384259259,1,0,0,0,45,45,131,1,opzicht,images/br_opzicht.png,images/cb_opzicht.png,0,,,,,,,,,,,,,,,,,,,,,,
,,,,,00111,2023-12-09_16h52.05.581,vbt_B2_day4,2022.2.4,Win32,60.31726883,,,,,,down,0,1.867900001,,0.339814787,-0.384259259,1,0,0,0,46,46,147,1,komisch,images/br_komisch.png,images/cb_komisch.png,1,komisch,,,,,,,,,,,,,,,,,,,,,
,,,,,00111,2023-12-09_16h52.05.581,vbt_B2_day4,2022.2.4,Win32,60.31726883,,,,,,down,0,0.2197,,0.335185157,-0.380555541,1,0,0,0,47,47,164,1,anarchie,images/br_anarchie.png,images/cb_anarchie.png,0,,,,,,,,,,,,,,,,,,,,,,
,,,,,00111,2023-12-09_16h52.05.581,vbt_B2_day4,2022.2.4,Win32,60.31726883,,,,,,down,0,0.319099999,,0.335185157,-0.380555541,1,0,0,0,48,48,128,1,prikken,images/br_prikken.png,images/cb_prikken.png,0,,,,,,,,,,,,,,,,,,,,,,
,,,,,00111,2023-12-09_16h52.05.581,vbt_B2_day4,2022.2.4,Win32,60.31726883,,,,,,down,0,3.0648,,0.335185157,-0.380555541,1,0,0,0,49,49,94,1,oceaan,images/br_oceaan.png,images/cb_oceaan.png,0,,,,,,,,,,,,,,,,,,,,,,
,,,,,00111,2023-12-09_16h52.05.581,vbt_B2_day4,2022.2.4,Win32,60.31726883,,,,,,down,0,0.488299999,,0.335185157,-0.380555541,1,0,0,0,50,50,35,1,lust,images/br_lust.png,images/cb_lust.png,0,,,,,,,,,,,,,,,,,,,,,,
,,,,,00111,2023-12-09_16h52.05.581,vbt_B2_day4,2022.2.4,Win32,60.31726883,,,,,,down,0,2.031599999,,0.335185157,-0.380555541,1,0,0,0,51,51,130,1,keihard,images/br_keihard.png,images/cb_keihard.png,0,,,,,,,,,,,,,,,,,,,,,,
,,,,,00111,2023-12-09_16h52.05.581,vbt_B2_day4,2022.2.4,Win32,60.31726883,,,,,,down,0,0.001400001,,0.335185157,-0.380555541,1,0,0,0,52,52,75,1,snoep,images/br_snoep.png,images/cb_snoep.png,0,,,,,,,,,,,,,,,,,,,,,,
,,,,,00111,2023-12-09_16h52.05.581,vbt_B2_day4,2022.2.4,Win32,60.31726883,,,,,,down,0,0.056599999,,0.335185157,-0.380555541,1,0,0,0,53,53,60,1,jasje,images/br_jasje.png,images/cb_jasje.png,0,,,,,,,,,,,,,,,,,,,,,,
,,,,,00111,2023-12-09_16h52.05.581,vbt_B2_day4,2022.2.4,Win32,60.31726883,,,,,,down,0,0.4181,,0.335185157,-0.380555541,1,0,0,0,54,54,33,1,vlek,images/br_vlek.png,images/cb_vlek.png,0,,,,,,,,,,,,,,,,,,,,,,
,,,,,00111,2023-12-09_16h52.05.581,vbt_B2_day4,2022.2.4,Win32,60.31726883,,,,,,down,0,1.584900001,,0.312037009,-0.452777792,1,0,0,0,55,55,24,1,jurk,images/br_jurk.png,images/cb_jurk.png,1,jurk,,,,,,,,,,,,,,,,,,,,,
,,,,,00111,2023-12-09_16h52.05.581,vbt_B2_day4,2022.2.4,Win32,60.31726883,,,,,,down,0,0.3368,,0.312037009,-0.452777792,1,0,0,0,56,56,172,1,weigeren,images/br_weigeren.png,images/cb_weigeren.png,0,,,,,,,,,,,,,,,,,,,,,,
,,,,,00111,2023-12-09_16h52.05.581,vbt_B2_day4,2022.2.4,Win32,60.31726883,,,,,,down,0,2.361099999,,0.312037009,-0.452777792,1,0,0,0,57,57,26,1,leuk,images/br_leuk.png,images/cb_leuk.png,1,leuk,,,,,,,,,,,,,,,,,,,,,
,,,,,00111,2023-12-09_16h52.05.581,vbt_B2_day4,2022.2.4,Win32,60.31726883,,,,,,down,0,1.3732,,0.312037009,-0.452777792,1,0,0,0,58,58,194,1,driemaal,images/br_driemaal.png,images/cb_driemaal.png,0,,,,,,,,,,,,,,,,,,,,,,
,,,,,00111,2023-12-09_16h52.05.581,vbt_B2_day4,2022.2.4,Win32,60.31726883,,,,,,down,0,4.016,,0.312037009,-0.452777792,1,0,0,0,59,59,146,1,opkomen,images/br_opkomen.png,images/cb_opkomen.png,1,opkomen,,,,,,,,,,,,,,,,,,,,,
,,,,,00111,2023-12-09_16h52.05.581,vbt_B2_day4,2022.2.4,Win32,60.31726883,,,,,,down,0,10.7039,,0.238888917,-0.200925968,1,0,0,0,60,60,187,1,opkijken,images/br_opkijken.png,images/cb_opkijken.png,1,opkijken,,,,,,,,,,,,,,,,,,,,,
,,,,,00111,2023-12-09_16h52.05.581,vbt_B2_day4,2022.2.4,Win32,60.31726883,,,,,,down,0,0.6122,,0.238888917,-0.200925968,1,0,0,0,61,61,125,1,aanzien,images/br_aanzien.png,images/cb_aanzien.png,0,,,,,,,,,,,,,,,,,,,,,,
,,,,,00111,2023-12-09_16h52.05.581,vbt_B2_day4,2022.2.4,Win32,60.31726883,,,,,,down,0,1.2474,,0.238888917,-0.200925968,1,0,0,0,62,62,9,1,hier,images/br_hier.png,images/cb_hier.png,0,,,,,,,,,,,,,,,,,,,,,,
,,,,,00111,2023-12-09_16h52.05.581,vbt_B2_day4,2022.2.4,Win32,60.31726883,,,,,,down,0,0.3747,,0.238888917,-0.200925968,1,0,0,0,63,63,25,1,plek,images/br_plek.png,images/cb_plek.png,1,plek,,,,,,,,,,,,,,,,,,,,,
,,,,,00111,2023-12-09_16h52.05.581,vbt_B2_day4,2022.2.4,Win32,60.31726883,,,,,,down,0,2.5144,,0.238888917,-0.200925968,1,0,0,0,64,64,3,1,mand,images/br_mand.png,images/cb_mand.png,0,,,,,,,,,,,,,,,,,,,,,,
,,,,,00111,2023-12-09_16h52.05.581,vbt_B2_day4,2022.2.4,Win32,60.31726883,,,,,,down,0,3.0984,,0.238888917,-0.200925968,1,0,0,0,65,65,163,1,schuilen,images/br_schuilen.png,images/cb_schuilen.png,0,,,,,,,,,,,,,,,,,,,,,,
,,,,,00111,2023-12-09_16h52.05.581,vbt_B2_day4,2022.2.4,Win32,60.31726883,,,,,,down,0,0.9389,,0.238888917,-0.200925968,1,0,0,0,66,66,151,1,aanzoek,images/br_aanzoek.png,images/cb_aanzoek.png,0,,,,,,,,,,,,,,,,,,,,,,
,,,,,00111,2023-12-09_16h52.05.581,vbt_B2_day4,2022.2.4,Win32,60.31726883,,,,,,down,0,0.004900001,,0.238888917,-0.200925968,1,0,0,0,67,67,188,1,strekken,images/br_strekken.png,images/cb_strekken.png,0,,,,,,,,,,,,,,,,,,,,,,
,,,,,00111,2023-12-09_16h52.05.581,vbt_B2_day4,2022.2.4,Win32,60.31726883,,,,,,down,0,0.3699,,0.238888917,-0.200925968,1,0,0,0,68,68,0,1,slak,images/br_slak.png,images/cb_slak.png,0,,,,,,,,,,,,,,,,,,,,,,
,,,,,00111,2023-12-09_16h52.05.581,vbt_B2_day4,2022.2.4,Win32,60.31726883,,,,,,down,0,0.1714,,0.237963005,-0.204629616,1,0,0,0,69,69,27,1,dans,images/br_dans.png,images/cb_dans.png,1,dans,,,,,,,,,,,,,,,,,,,,,
,,,,,00111,2023-12-09_16h52.05.581,vbt_B2_day4,2022.2.4,Win32,60.31726883,,,,,,down,0,1.1285,,0.180555556,-0.300000014,1,0,0,0,70,70,14,1,rijp,images/br_rijp.png,images/cb_rijp.png,0,,,,,,,,,,,,,,,,,,,,,,
,,,,,00111,2023-12-09_16h52.05.581,vbt_B2_day4,2022.2.4,Win32,60.31726883,,,,,,down,0,0.529099999,,0.180555556,-0.300000014,1,0,0,0,71,71,140,1,blijven,images/br_blijven.png,images/cb_blijven.png,0,,,,,,,,,,,,,,,,,,,,,,
,,,,,00111,2023-12-09_16h52.05.581,vbt_B2_day4,2022.2.4,Win32,60.31726883,,,,,,down,0,1.8664,,0.180555556,-0.300000014,1,0,0,0,72,72,159,1,sufferd,images/br_sufferd.png,images/cb_sufferd.png,0,,,,,,,,,,,,,,,,,,,,,,
,,,,,00111,2023-12-09_16h52.05.581,vbt_B2_day4,2022.2.4,Win32,60.31726883,,,,,,down,0,1.285099999,,0.180555556,-0.300000014,1,0,0,0,73,73,158,1,innemen,images/br_innemen.png,images/cb_innemen.png,0,,,,,,,,,,,,,,,,,,,,,,
,,,,,00111,2023-12-09_16h52.05.581,vbt_B2_day4,2022.2.4,Win32,60.31726883,,,,,,down,0,0.5369,,0.180555556,-0.300000014,1,0,0,0,74,74,61,1,groen,images/br_groen.png,images/cb_groen.png,0,,,,,,,,,,,,,,,,,,,,,,
,,,,,00111,2023-12-09_16h52.05.581,vbt_B2_day4,2022.2.4,Win32,60.31726883,,,,,,down,0,3.3459,,0.180555556,-0.300000014,1,0,0,0,75,75,69,1,waken,images/br_waken.png,images/cb_waken.png,0,,,,,,,,,,,,,,,,,,,,,,
,,,,,00111,2023-12-09_16h52.05.581,vbt_B2_day4,2022.2.4,Win32,60.31726883,,,,,,down,0,0.0343,,0.180555556,-0.300000014,1,0,0,0,76,76,157,1,uitlaat,images/br_uitlaat.png,images/cb_uitlaat.png,0,,,,,,,,,,,,,,,,,,,,,,
,,,,,00111,2023-12-09_16h52.05.581,vbt_B2_day4,2022.2.4,Win32,60.31726883,,,,,,down,0,0.5834,,0.180555556,-0.300000014,1,0,0,0,77,77,80,1,kanjer,images/br_kanjer.png,images/cb_kanjer.png,0,,,,,,,,,,,,,,,,,,,,,,
,,,,,00111,2023-12-09_16h52.05.581,vbt_B2_day4,2022.2.4,Win32,60.31726883,,,,,,down,0,1.400900001,,0.180555556,-0.300000014,1,0,0,0,78,78,186,1,voorraad,images/br_voorraad.png,images/cb_voorraad.png,1,voorraad,,,,,,,,,,,,,,,,,,,,,
,,,,,00111,2023-12-09_16h52.05.581,vbt_B2_day4,2022.2.4,Win32,60.31726883,,,,,,down,0,0.450599999,,0.180555556,-0.300000014,1,0,0,0,79,79,199,1,beseffen,images/br_beseffen.png,images/cb_beseffen.png,0,,,,,,,,,,,,,,,,,,,,,,
,,,,,00111,2023-12-09_16h52.05.581,vbt_B2_day4,2022.2.4,Win32,60.31726883,,,,,,down,0,0.0019,,0.180555556,-0.300000014,1,0,0,0,80,80,90,1,geluid,images/br_geluid.png,images/cb_geluid.png,0,,,,,,,,,,,,,,,,,,,,,,
,,,,,00111,2023-12-09_16h52.05.581,vbt_B2_day4,2022.2.4,Win32,60.31726883,,,,,,down,0,1.2715,,0.180555556,-0.300000014,1,0,0,0,81,81,193,1,weeshuis,images/br_weeshuis.png,images/cb_weeshuis.png,0,,,,,,,,,,,,,,,,,,,,,,
,,,,,00111,2023-12-09_16h52.05.581,vbt_B2_day4,2022.2.4,Win32,60.31726883,,,,,,down,0,0.3652,,0.180555556,-0.300000014,1,0,0,0,82,82,76,1,afval,images/br_afval.png,images/cb_afval.png,0,,,,,,,,,,,,,,,,,,,,,,
,,,,,00111,2023-12-09_16h52.05.581,vbt_B2_day4,2022.2.4,Win32,60.31726883,,,,,,down,0,1.3163,,0.180555556,-0.300000014,1,0,0,0,83,83,86,1,woning,images/br_woning.png,images/cb_woning.png,0,,,,,,,,,,,,,,,,,,,,,,
,,,,,00111,2023-12-09_16h52.05.581,vbt_B2_day4,2022.2.4,Win32,60.31726883,,,,,,down,0,0.238,,0.180555556,-0.300000014,1,0,0,0,84,84,129,1,verhaal,images/br_verhaal.png,images/cb_verhaal.png,0,,,,,,,,,,,,,,,,,,,,,,
,,,,,00111,2023-12-09_16h52.05.581,vbt_B2_day4,2022.2.4,Win32,60.31726883,,,,,,down,0,1.259,,0.180555556,-0.300000014,1,0,0,0,85,85,118,1,vinger,images/br_vinger.png,images/cb_vinger.png,0,,,,,,,,,,,,,,,,,,,,,,
,,,,,00111,2023-12-09_16h52.05.581,vbt_B2_day4,2022.2.4,Win32,60.31726883,,,,,,down,0,0.6154,,0.180555556,-0.300000014,1,0,0,0,86,86,51,1,samen,images/br_samen.png,images/cb_samen.png,0,,,,,,,,,,,,,,,,,,,,,,
,,,,,00111,2023-12-09_16h52.05.581,vbt_B2_day4,2022.2.4,Win32,60.31726883,,,,,,down,0,0.7384,,0.180555556,-0.300000014,1,0,0,0,87,87,182,1,bijkomen,images/br_bijkomen.png,images/cb_bijkomen.png,0,,,,,,,,,,,,,,,,,,,,,,
,,,,,00111,2023-12-09_16h52.05.581,vbt_B2_day4,2022.2.4,Win32,60.31726883,,,,,,down,0,0.4359,,0.180555556,-0.300000014,1,0,0,0,88,88,173,1,apparaat,images/br_apparaat.png,images/cb_apparaat.png,0,,,,,,,,,,,,,,,,,,,,,,
,,,,,00111,2023-12-09_16h52.05.581,vbt_B2_day4,2022.2.4,Win32,60.31726883,,,,,,down,0,1.669200001,,0.180555556,-0.300000014,1,0,0,0,89,89,93,1,waarop,images/br_waarop.png,images/cb_waarop.png,0,,,,,,,,,,,,,,,,,,,,,,
,,,,,00111,2023-12-09_16h52.05.581,vbt_B2_day4,2022.2.4,Win32,60.31726883,,,,,,down,0,0.6383,,0.180555556,-0.300000014,1,0,0,0,90,90,82,1,muziek,images/br_muziek.png,images/cb_muziek.png,0,,,,,,,,,,,,,,,,,,,,,,
,,,,,00111,2023-12-09_16h52.05.581,vbt_B2_day4,2022.2.4,Win32,60.31726883,,,,,,down,0,0.298299999,,0.180555556,-0.300000014,1,0,0,0,91,91,142,1,snuiven,images/br_snuiven.png,images/cb_snuiven.png,0,,,,,,,,,,,,,,,,,,,,,,
,,,,,00111,2023-12-09_16h52.05.581,vbt_B2_day4,2022.2.4,Win32,60.31726883,,,,,,down,0,5.2697,,0.180555556,-0.300000014,1,0,0,0,92,92,179,1,woestijn,images/br_woestijn.png,images/cb_woestijn.png,0,,,,,,,,,,,,,,,,,,,,,,
,,,,,00111,2023-12-09_16h52.05.581,vbt_B2_day4,2022.2.4,Win32,60.31726883,,,,,,down,0,0.3676,,0.180555556,-0.300000014,1,0,0,0,93,93,156,1,rechten,images/br_rechten.png,images/cb_rechten.png,0,,,,,,,,,,,,,,,,,,,,,,
,,,,,00111,2023-12-09_16h52.05.581,vbt_B2_day4,2022.2.4,Win32,60.31726883,,,,,,down,0,2.4317,,0.180555556,-0.300000014,1,0,0,0,94,94,97,1,loyaal,images/br_loyaal.png,images/cb_loyaal.png,0,,,,,,,,,,,,,,,,,,,,,,
,,,,,00111,2023-12-09_16h52.05.581,vbt_B2_day4,2022.2.4,Win32,60.31726883,,,,,,down,0,0.938,,0.180555556,-0.300000014,1,0,0,0,95,95,113,1,koppen,images/br_koppen.png,images/cb_koppen.png,0,,,,,,,,,,,,,,,,,,,,,,
,,,,,00111,2023-12-09_16h52.05.581,vbt_B2_day4,2022.2.4,Win32,60.31726883,,,,,,down,0,0.976599999,,0.180555556,-0.300000014,1,0,0,0,96,96,17,1,taal,images/br_taal.png,images/cb_taal.png,0,,,,,,,,,,,,,,,,,,,,,,
,,,,,00111,2023-12-09_16h52.05.581,vbt_B2_day4,2022.2.4,Win32,60.31726883,,,,,,down,0,0.2932,,0.180555556,-0.300000014,1,0,0,0,97,97,74,1,graaf,images/br_graaf.png,images/cb_graaf.png,0,,,,,,,,,,,,,,,,,,,,,,
,,,,,00111,2023-12-09_16h52.05.581,vbt_B2_day4,2022.2.4,Win32,60.31726883,,,,,,down,0,0.8797,,0.180555556,-0.300000014,1,0,0,0,98,98,191,1,opheffen,images/br_opheffen.png,images/cb_opheffen.png,0,,,,,,,,,,,,,,,,,,,,,,
,,,,,00111,2023-12-09_16h52.05.581,vbt_B2_day4,2022.2.4,Win32,60.31726883,,,,,,down,0,0.4283,,0.180555556,-0.300000014,1,0,0,0,99,99,32,1,palm,images/br_palm.png,images/cb_palm.png,0,,,,,,,,,,,,,,,,,,,,,,
,,,,,00111,2023-12-09_16h52.05.581,vbt_B2_day4,2022.2.4,Win32,60.31726883,,,,,,down,0,1.9411,,0.180555556,-0.300000014,1,0,0,0,100,100,47,1,kabel,images/br_kabel.png,images/cb_kabel.png,0,,,,,,,,,,,,,,,,,,,,,,
,,,,,00111,2023-12-09_16h52.05.581,vbt_B2_day4,2022.2.4,Win32,60.31726883,,,,,,down,0,1.375,,0.180555556,-0.300000014,1,0,0,0,101,101,99,1,koffie,images/br_koffie.png,images/cb_koffie.png,0,,,,,,,,,,,,,,,,,,,,,,
,,,,,00111,2023-12-09_16h52.05.581,vbt_B2_day4,2022.2.4,Win32,60.31726883,,,,,,down,0,0.354099999,,0.180555556,-0.300000014,1,0,0,0,102,102,7,1,geld,images/br_geld.png,images/cb_geld.png,0,,,,,,,,,,,,,,,,,,,,,,
,,,,,00111,2023-12-09_16h52.05.581,vbt_B2_day4,2022.2.4,Win32,60.31726883,,,,,,down,0,1.742400001,,0.180555556,-0.300000014,1,0,0,0,103,103,28,1,stal,images/br_stal.png,images/cb_stal.png,0,,,,,,,,,,,,,,,,,,,,,,
,,,,,00111,2023-12-09_16h52.05.581,vbt_B2_day4,2022.2.4,Win32,60.31726883,,,,,,down,0,0.3024,,0.180555556,-0.300000014,1,0,0,0,104,104,41,1,maken,images/br_maken.png,images/cb_maken.png,0,,,,,,,,,,,,,,,,,,,,,,
,,,,,00111,2023-12-09_16h52.05.581,vbt_B2_day4,2022.2.4,Win32,60.31726883,,,,,,down,0,0.1184,,0.180555556,-0.300000014,1,0,0,0,105,105,13,1,kaal,images/br_kaal.png,images/cb_kaal.png,0,,,,,,,,,,,,,,,,,,,,,,
,,,,,00111,2023-12-09_16h52.05.581,vbt_B2_day4,2022.2.4,Win32,60.31726883,,,,,,down,0,0.0182,,0.180555556,-0.300000014,1,0,0,0,106,106,169,1,oprotten,images/br_oprotten.png,images/cb_oprotten.png,0,,,,,,,,,,,,,,,,,,,,,,
,,,,,00111,2023-12-09_16h52.05.581,vbt_B2_day4,2022.2.4,Win32,60.31726883,,,,,,down,0,0.193400001,,0.180555556,-0.300000014,1,0,0,0,107,107,92,1,geheim,images/br_geheim.png,images/cb_geheim.png,0,,,,,,,,,,,,,,,,,,,,,,
,,,,,00111,2023-12-09_16h52.05.581,vbt_B2_day4,2022.2.4,Win32,60.31726883,,,,,,down,0,5.2742,,0.180555556,-0.300000014,1,0,0,0,108,108,53,1,baron,images/br_baron.png,images/cb_baron.png,0,,,,,,,,,,,,,,,,,,,,,,
,,,,,00111,2023-12-09_16h52.05.581,vbt_B2_day4,2022.2.4,Win32,60.31726883,,,,,,down,0,1.7343,,0.180555556,-0.300000014,1,0,0,0,109,109,144,1,eetlust,images/br_eetlust.png,images/cb_eetlust.png,1,eetlust,,,,,,,,,,,,,,,,,,,,,
,,,,,00111,2023-12-09_16h52.05.581,vbt_B2_day4,2022.2.4,Win32,60.31726883,,,,,,down,0,0.3877,,0.323148233,-0.066666674,1,0,0,0,110,110,162,1,uitdelen,images/br_uitdelen.png,images/cb_uitdelen.png,0,,,,,,,,,,,,,,,,,,,,,,
,,,,,00111,2023-12-09_16h52.05.581,vbt_B2_day4,2022.2.4,Win32,60.31726883,,,,,,down,0,0.4742,,0.323148233,-0.066666674,1,0,0,0,111,111,20,1,site,images/br_site.png,images/cb_site.png,0,,,,,,,,,,,,,,,,,,,,,,
,,,,,00111,2023-12-09_16h52.05.581,vbt_B2_day4,2022.2.4,Win32,60.31726883,,,,,,down,0,1.328200001,,0.323148233,-0.066666674,1,0,0,0,112,112,183,1,getuigen,images/br_getuigen.png,images/cb_getuigen.png,0,,,,,,,,,,,,,,,,,,,,,,
,,,,,00111,2023-12-09_16h52.05.581,vbt_B2_day4,2022.2.4,Win32,60.31726883,,,,,,down,0,0.4417,,0.323148233,-0.066666674,1,0,0,0,113,113,124,1,bloeien,images/br_bloeien.png,images/cb_bloeien.png,0,,,,,,,,,,,,,,,,,,,,,,
,,,,,00111,2023-12-09_16h52.05.581,vbt_B2_day4,2022.2.4,Win32,60.31726883,,,,,,down,0,6.597400001,,0.323148233,-0.066666674,1,0,0,0,114,114,54,1,gebit,images/br_gebit.png,images/cb_gebit.png,0,,,,,,,,,,,,,,,,,,,,,,
,,,,,00111,2023-12-09_16h52.05.581,vbt_B2_day4,2022.2.4,Win32,60.31726883,,,,,,down,0,2.494900001,,0.323148233,-0.066666674,1,0,0,0,115,115,10,1,leek,images/br_leek.png,images/cb_leek.png,0,,,,,,,,,,,,,,,,,,,,,,
,,,,,00111,2023-12-09_16h52.05.581,vbt_B2_day4,2022.2.4,Win32,60.31726883,,,,,,down,0,1.4804,,0.323148233,-0.066666674,1,0,0,0,116,116,110,1,zuster,images/br_zuster.png,images/cb_zuster.png,0,,,,,,,,,,,,,,,,,,,,,,
,,,,,00111,2023-12-09_16h52.05.581,vbt_B2_day4,2022.2.4,Win32,60.31726883,,,,,,down,0,0.3012,,0.323148233,-0.066666674,1,0,0,0,117,117,190,1,goedkoop,images/br_goedkoop.png,images/cb_goedkoop.png,0,,,,,,,,,,,,,,,,,,,,,,
,,,,,00111,2023-12-09_16h52.05.581,vbt_B2_day4,2022.2.4,Win32,60.31726883,,,,,,down,0,1.3157,,0.323148233,-0.066666674,1,0,0,0,118,118,197,1,spanning,images/br_spanning.png,images/cb_spanning.png,0,,,,,,,,,,,,,,,,,,,,,,
,,,,,00111,2023-12-09_16h52.05.581,vbt_B2_day4,2022.2.4,Win32,60.31726883,,,,,,down,0,0.2215,,0.323148233,-0.066666674,1,0,0,0,119,119,21,1,mist,images/br_mist.png,images/cb_mist.png,0,,,,,,,,,,,,,,,,,,,,,,
,,,,,00111,2023-12-09_16h52.05.581,vbt_B2_day4,2022.2.4,Win32,60.31726883,,,,,,down,0,0.1846,,0.323148233,-0.066666674,1,0,0,0,120,120,111,1,ticket,images/br_ticket.png,images/cb_ticket.png,0,,,,,,,,,,,,,,,,,,,,,,
,,,,,00111,2023-12-09_16h52.05.581,vbt_B2_day4,2022.2.4,Win32,60.31726883,,,,,,down,0,0.1538,,0.323148233,-0.066666674,1,0,0,0,121,121,150,1,gegeven,images/br_gegeven.png,images/cb_gegeven.png,0,,,,,,,,,,,,,,,,,,,,,,
,,,,,00111,2023-12-09_16h52.05.581,vbt_B2_day4,2022.2.4,Win32,60.31726883,,,,,,down,0,1.250299999,,0.323148233,-0.066666674,1,0,0,0,122,122,105,1,wijlen,images/br_wijlen.png,images/cb_wijlen.png,1,wijlen,,,,,,,,,,,,,,,,,,,,,
,,,,,00111,2023-12-09_16h52.05.581,vbt_B2_day4,2022.2.4,Win32,60.31726883,,,,,,down,0,1.5382,,0.323148233,-0.066666674,1,0,0,0,123,123,134,1,geliefd,images/br_geliefd.png,images/cb_geliefd.png,0,,,,,,,,,,,,,,,,,,,,,,
,,,,,00111,2023-12-09_16h52.05.581,vbt_B2_day4,2022.2.4,Win32,60.31726883,,,,,,down,0,0.0243,,0.323148233,-0.066666674,1,0,0,0,124,124,155,1,gerucht,images/br_gerucht.png,images/cb_gerucht.png,0,,,,,,,,,,,,,,,,,,,,,,
,,,,,00111,2023-12-09_16h52.05.581,vbt_B2_day4,2022.2.4,Win32,60.31726883,,,,,,down,0,1.1847,,0.323148233,-0.066666674,1,0,0,0,125,125,43,1,klauw,images/br_klauw.png,images/cb_klauw.png,0,,,,,,,,,,,,,,,,,,,,,,
,,,,,00111,2023-12-09_16h52.05.581,vbt_B2_day4,2022.2.4,Win32,60.31726883,,,,,,down,0,1.3861,,0.323148233,-0.066666674,1,0,0,0,126,126,40,1,schep,images/br_schep.png,images/cb_schep.png,0,,,,,,,,,,,,,,,,,,,,,,
,,,,,00111,2023-12-09_16h52.05.581,vbt_B2_day4,2022.2.4,Win32,60.31726883,,,,,,down,0,1.8818,,0.323148233,-0.066666674,1,0,0,0,127,127,84,1,lokken,images/br_lokken.png,images/cb_lokken.png,0,,,,,,,,,,,,,,,,,,,,,,
,,,,,00111,2023-12-09_16h52.05.581,vbt_B2_day4,2022.2.4,Win32,60.31726883,,,,,,down,0,2.439099999,,0.323148233,-0.066666674,1,0,0,0,128,128,16,1,ziek,images/br_ziek.png,images/cb_ziek.png,0,,,,,,,,,,,,,,,,,,,,,,
,,,,,00111,2023-12-09_16h52.05.581,vbt_B2_day4,2022.2.4,Win32,60.31726883,,,,,,down,0,1.5394,,0.323148233,-0.066666674,1,0,0,0,129,129,171,1,aarzelen,images/br_aarzelen.png,images/cb_aarzelen.png,0,,,,,,,,,,,,,,,,,,,,,,
,,,,,00111,2023-12-09_16h52.05.581,vbt_B2_day4,2022.2.4,Win32,60.31726883,,,,,,down,0,1.6824,,0.323148233,-0.066666674,1,0,0,0,130,130,59,1,kring,images/br_kring.png,images/cb_kring.png,0,,,,,,,,,,,,,,,,,,,,,,
,,,,,00111,2023-12-09_16h52.05.581,vbt_B2_day4,2022.2.4,Win32,60.31726883,,,,,,down,0,0.125400001,,0.323148233,-0.066666674,1,0,0,0,131,131,79,1,nodig,images/br_nodig.png,images/cb_nodig.png,0,,,,,,,,,,,,,,,,,,,,,,
,,,,,00111,2023-12-09_16h52.05.581,vbt_B2_day4,2022.2.4,Win32,60.31726883,,,,,,down,0,0.9012,,0.323148233,-0.066666674,1,0,0,0,132,132,117,1,kennis,images/br_kennis.png,images/cb_kennis.png,0,,,,,,,,,,,,,,,,,,,,,,
,,,,,00111,2023-12-09_16h52.05.581,vbt_B2_day4,2022.2.4,Win32,60.31726883,,,,,,down,0,0.814900001,,0.323148233,-0.066666674,1,0,0,0,133,133,106,1,zingen,images/br_zingen.png,images/cb_zingen.png,1,zingen,,,,,,,,,,,,,,,,,,,,,
,,,,,00111,2023-12-09_16h52.05.581,vbt_B2_day4,2022.2.4,Win32,60.31726883,,,,,,down,0,0.280400001,,0.311111168,-0.068518533,1,0,0,0,134,134,133,1,seizoen,images/br_seizoen.png,images/cb_seizoen.png,0,,,,,,,,,,,,,,,,,,,,,,
,,,,,00111,2023-12-09_16h52.05.581,vbt_B2_day4,2022.2.4,Win32,60.31726883,,,,,,down,0,0.2055,,0.311111168,-0.068518533,1,0,0,0,135,135,87,1,toeval,images/br_toeval.png,images/cb_toeval.png,0,,,,,,,,,,,,,,,,,,,,,,
,,,,,00111,2023-12-09_16h52.05.581,vbt_B2_day4,2022.2.4,Win32,60.31726883,,,,,,down,0,1.406,,0.311111168,-0.068518533,1,0,0,0,136,136,115,1,kleren,images/br_kleren.png,images/cb_kleren.png,0,,,,,,,,,,,,,,,,,,,,,,
,,,,,00111,2023-12-09_16h52.05.581,vbt_B2_day4,2022.2.4,Win32,60.31726883,,,,,,down,0,1.0663,,0.311111168,-0.068518533,1,0,0,0,137,137,175,1,heengaan,images/br_heengaan.png,images/cb_heengaan.png,0,,,,,,,,,,,,,,,,,,,,,,
,,,,,00111,2023-12-09_16h52.05.581,vbt_B2_day4,2022.2.4,Win32,60.31726883,,,,,,down,0,1.4514,,0.311111168,-0.068518533,1,0,0,0,138,138,63,1,flirt,images/br_flirt.png,images/cb_flirt.png,0,,,,,,,,,,,,,,,,,,,,,,
,,,,,00111,2023-12-09_16h52.05.581,vbt_B2_day4,2022.2.4,Win32,60.31726883,,,,,,down,0,1.4473,,0.311111168,-0.068518533,1,0,0,0,139,139,65,1,parel,images/br_parel.png,images/cb_parel.png,1,parel,,,,,,,,,,,,,,,,,,,,,
,,,,,00111,2023-12-09_16h52.05.581,vbt_B2_day4,2022.2.4,Win32,60.31726883,,,,,,down,0,1.413,,0.311111168,-0.068518533,1,0,0,0,140,140,138,1,akkoord,images/br_akkoord.png,images/cb_akkoord.png,0,,,,,,,,,,,,,,,,,,,,,,
,,,,,00111,2023-12-09_16h52.05.581,vbt_B2_day4,2022.2.4,Win32,60.31726883,,,,,,down,0,0.338299999,,0.311111168,-0.068518533,1,0,0,0,141,141,36,1,vuur,images/br_vuur.png,images/cb_vuur.png,0,,,,,,,,,,,,,,,,,,,,,,
,,,,,00111,2023-12-09_16h52.05.581,vbt_B2_day4,2022.2.4,Win32,60.31726883,,,,,,down,0,1.853099999,,0.311111168,-0.068518533,1,0,0,0,142,142,88,1,boeien,images/br_boeien.png,images/cb_boeien.png,0,,,,,,,,,,,,,,,,,,,,,,
,,,,,00111,2023-12-09_16h52.05.581,vbt_B2_day4,2022.2.4,Win32,60.31726883,,,,,,down,0,0.586599999,,0.311111168,-0.068518533,1,0,0,0,143,143,148,1,smullen,images/br_smullen.png,images/cb_smullen.png,0,,,,,,,,,,,,,,,,,,,,,,
,,,,,00111,2023-12-09_16h52.05.581,vbt_B2_day4,2022.2.4,Win32,60.31726883,,,,,,down,0,1.5921,,0.311111168,-0.068518533,1,0,0,0,144,144,48,1,steel,images/br_steel.png,images/cb_steel.png,0,,,,,,,,,,,,,,,,,,,,,,
,,,,,00111,2023-12-09_16h52.05.581,vbt_B2_day4,2022.2.4,Win32,60.31726883,,,,,,down,0,0.2133,,0.311111168,-0.068518533,1,0,0,0,145,145,15,1,soda,images/br_soda.png,images/cb_soda.png,0,,,,,,,,,,,,,,,,,,,,,,
,,,,,00111,2023-12-09_16h52.05.581,vbt_B2_day4,2022.2.4,Win32,60.31726883,,,,,,down,0,1.2061,,0.311111168,-0.068518533,1,0,0,0,146,146,136,1,waarbij,images/br_waarbij.png,images/cb_waarbij.png,0,,,,,,,,,,,,,,,,,,,,,,
,,,,,00111,2023-12-09_16h52.05.581,vbt_B2_day4,2022.2.4,Win32,60.31726883,,,,,,down,0,1.5348,,0.311111168,-0.068518533,1,0,0,0,147,147,120,1,klimmen,images/br_klimmen.png,images/cb_klimmen.png,0,,,,,,,,,,,,,,,,,,,,,,
,,,,,00111,2023-12-09_16h52.05.581,vbt_B2_day4,2022.2.4,Win32,60.31726883,,,,,,down,0,4.744799999,,0.311111168,-0.068518533,1,0,0,0,148,148,184,1,aandelen,images/br_aandelen.png,images/cb_aandelen.png,1,aandelen,,,,,,,,,,,,,,,,,,,,,
,,,,,00111,2023-12-09_16h52.05.581,vbt_B2_day4,2022.2.4,Win32,60.31726883,,,,,,down,0,0.883099999,,0.311111168,-0.068518533,1,0,0,0,149,149,45,1,piste,images/br_piste.png,images/cb_piste.png,0,,,,,,,,,,,,,,,,,,,,,,
,,,,,00111,2023-12-09_16h52.05.581,vbt_B2_day4,2022.2.4,Win32,60.31726883,,,,,,down,0,0.1373,,0.311111168,-0.068518533,1,0,0,0,150,150,116,1,besmet,images/br_besmet.png,images/cb_besmet.png,0,,,,,,,,,,,,,,,,,,,,,,
,,,,,00111,2023-12-09_16h52.05.581,vbt_B2_day4,2022.2.4,Win32,60.31726883,,,,,,down,0,0.8095,,0.311111168,-0.068518533,1,0,0,0,151,151,72,1,strak,images/br_strak.png,images/cb_strak.png,0,,,,,,,,,,,,,,,,,,,,,,
,,,,,00111,2023-12-09_16h52.05.581,vbt_B2_day4,2022.2.4,Win32,60.31726883,,,,,,down,0,1.366,,0.311111168,-0.068518533,1,0,0,0,152,152,192,1,schaamte,images/br_schaamte.png,images/cb_schaamte.png,0,,,,,,,,,,,,,,,,,,,,,,
,,,,,00111,2023-12-09_16h52.05.581,vbt_B2_day4,2022.2.4,Win32,60.31726883,,,,,,down,0,4.369599999,,0.305555556,-0.045370384,1,0,0,0,153,153,166,1,strikken,images/br_strikken.png,images/cb_strikken.png,0,,,,,,,,,,,,,,,,,,,,,,
,,,,,00111,2023-12-09_16h52.05.581,vbt_B2_day4,2022.2.4,Win32,60.31726883,,,,,,down,0,0.3093,,0.305555556,-0.045370384,1,0,0,0,154,154,2,1,jaar,images/br_jaar.png,images/cb_jaar.png,0,,,,,,,,,,,,,,,,,,,,,,
,,,,,00111,2023-12-09_16h52.05.581,vbt_B2_day4,2022.2.4,Win32,60.31726883,,,,,,down,0,1.0994,,0.303703732,-0.045370384,1,0,0,0,155,155,104,1,zweven,images/br_zweven.png,images/cb_zweven.png,1,zweven,,,,,,,,,,,,,,,,,,,,,
,,,,,00111,2023-12-09_16h52.05.581,vbt_B2_day4,2022.2.4,Win32,60.31726883,,,,,,down,0,0.650200001,,0.339814787,-0.056481503,1,0,0,0,156,156,152,1,afnemen,images/br_afnemen.png,images/cb_afnemen.png,0,,,,,,,,,,,,,,,,,,,,,,
,,,,,00111,2023-12-09_16h52.05.581,vbt_B2_day4,2022.2.4,Win32,60.31726883,,,,,,down,0,0.632299999,,0.339814787,-0.056481503,1,0,0,0,157,157,58,1,tekst,images/br_tekst.png,images/cb_tekst.png,0,,,,,,,,,,,,,,,,,,,,,,
,,,,,00111,2023-12-09_16h52.05.581,vbt_B2_day4,2022.2.4,Win32,60.31726883,,,,,,down,0,0.3542,,0.339814787,-0.056481503,1,0,0,0,158,158,109,1,totaal,images/br_totaal.png,images/cb_totaal.png,0,,,,,,,,,,,,,,,,,,,,,,
,,,,,00111,2023-12-09_16h52.05.581,vbt_B2_day4,2022.2.4,Win32,60.31726883,,,,,,down,0,0.1723,,0.339814787,-0.056481503,1,0,0,0,159,159,19,1,geit,images/br_geit.png,images/cb_geit.png,0,,,,,,,,,,,,,,,,,,,,,,
,,,,,00111,2023-12-09_16h52.05.581,vbt_B2_day4,2022.2.4,Win32,60.31726883,,,,,,down,0,0.4915,,0.339814787,-0.056481503,1,0,0,0,160,160,6,1,diep,images/br_diep.png,images/cb_diep.png,0,,,,,,,,,,,,,,,,,,,,,,
,,,,,00111,2023-12-09_16h52.05.581,vbt_B2_day4,2022.2.4,Win32,60.31726883,,,,,,down,0,0.284,,0.339814787,-0.056481503,1,0,0,0,161,161,31,1,poes,images/br_poes.png,images/cb_poes.png,0,,,,,,,,,,,,,,,,,,,,,,
,,,,,00111,2023-12-09_16h52.05.581,vbt_B2_day4,2022.2.4,Win32,60.31726883,,,,,,down,0,2.3453,,0.339814787,-0.056481503,1,0,0,0,162,162,196,1,nakijken,images/br_nakijken.png,images/cb_nakijken.png,0,,,,,,,,,,,,,,,,,,,,,,
,,,,,00111,2023-12-09_16h52.05.581,vbt_B2_day4,2022.2.4,Win32,60.31726883,,,,,,down,0,0.346,,0.339814787,-0.056481503,1,0,0,0,163,163,4,1,moes,images/br_moes.png,images/cb_moes.png,0,,,,,,,,,,,,,,,,,,,,,,
,,,,,00111,2023-12-09_16h52.05.581,vbt_B2_day4,2022.2.4,Win32,60.31726883,,,,,,down,0,0.0652,,0.339814787,-0.056481503,1,0,0,0,164,164,39,1,laag,images/br_laag.png,images/cb_laag.png,0,,,,,,,,,,,,,,,,,,,,,,
,,,,,00111,2023-12-09_16h52.05.581,vbt_B2_day4,2022.2.4,Win32,60.31726883,,,,,,down,0,0.2508,,0.339814787,-0.056481503,1,0,0,0,165,165,177,1,maaltijd,images/br_maaltijd.png,images/cb_maaltijd.png,0,,,,,,,,,,,,,,,,,,,,,,
,,,,,00111,2023-12-09_16h52.05.581,vbt_B2_day4,2022.2.4,Win32,60.31726883,,,,,,down,0,1.002200001,,0.339814787,-0.056481503,1,0,0,0,166,166,95,1,vreten,images/br_vreten.png,images/cb_vreten.png,0,,,,,,,,,,,,,,,,,,,,,,
,,,,,00111,2023-12-09_16h52.05.581,vbt_B2_day4,2022.2.4,Win32,60.31726883,,,,,,down,0,2.1169,,0.339814787,-0.056481503,1,0,0,0,167,167,56,1,traag,images/br_traag.png,images/cb_traag.png,0,,,,,,,,,,,,,,,,,,,,,,
,,,,,00111,2023-12-09_16h52.05.581,vbt_B2_day4,2022.2.4,Win32,60.31726883,,,,,,down,0,0.3764,,0.339814787,-0.056481503,1,0,0,0,168,168,135,1,gedicht,images/br_gedicht.png,images/cb_gedicht.png,0,,,,,,,,,,,,,,,,,,,,,,
,,,,,00111,2023-12-09_16h52.05.581,vbt_B2_day4,2022.2.4,Win32,60.31726883,,,,,,down,0,0.5739,,0.339814787,-0.056481503,1,0,0,0,169,169,29,1,baas,images/br_baas.png,images/cb_baas.png,0,,,,,,,,,,,,,,,,,,,,,,
,,,,,00111,2023-12-09_16h52.05.581,vbt_B2_day4,2022.2.4,Win32,60.31726883,,,,,,down,0,0.4485,,0.339814787,-0.056481503,1,0,0,0,170,170,100,1,geduld,images/br_geduld.png,images/cb_geduld.png,0,,,,,,,,,,,,,,,,,,,,,,
,,,,,00111,2023-12-09_16h52.05.581,vbt_B2_day4,2022.2.4,Win32,60.31726883,,,,,,down,0,0.0845,,0.339814787,-0.056481503,1,0,0,0,171,171,122,1,waarvan,images/br_waarvan.png,images/cb_waarvan.png,0,,,,,,,,,,,,,,,,,,,,,,
,,,,,00111,2023-12-09_16h52.05.581,vbt_B2_day4,2022.2.4,Win32,60.31726883,,,,,,down,0,0.4195,,0.339814787,-0.056481503,1,0,0,0,172,172,143,1,hechten,images/br_hechten.png,images/cb_hechten.png,0,,,,,,,,,,,,,,,,,,,,,,
,,,,,00111,2023-12-09_16h52.05.581,vbt_B2_day4,2022.2.4,Win32,60.31726883,,,,,,down,0,1.5013,,0.339814787,-0.056481503,1,0,0,0,173,173,23,1,zout,images/br_zout.png,images/cb_zout.png,0,,,,,,,,,,,,,,,,,,,,,,
,,,,,00111,2023-12-09_16h52.05.581,vbt_B2_day4,2022.2.4,Win32,60.31726883,,,,,,down,0,0.8342,,0.339814787,-0.056481503,1,0,0,0,174,174,161,1,attentie,images/br_attentie.png,images/cb_attentie.png,0,,,,,,,,,,,,,,,,,,,,,,
,,,,,00111,2023-12-09_16h52.05.581,vbt_B2_day4,2022.2.4,Win32,60.31726883,,,,,,down,0,0.384,,0.339814787,-0.056481503,1,0,0,0,175,175,123,1,hiervan,images/br_hiervan.png,images/cb_hiervan.png,0,,,,,,,,,,,,,,,,,,,,,,
,,,,,00111,2023-12-09_16h52.05.581,vbt_B2_day4,2022.2.4,Win32,60.31726883,,,,,,down,0,2.485400001,,0.339814787,-0.056481503,1,0,0,0,176,176,145,1,invloed,images/br_invloed.png,images/cb_invloed.png,1,invloed,,,,,,,,,,,,,,,,,,,,,
,,,,,00111,2023-12-09_16h52.05.581,vbt_B2_day4,2022.2.4,Win32,60.31726883,,,,,,down,0,0.4692,,0.33148151,-0.063888903,1,0,0,0,177,177,38,1,baai,images/br_baai.png,images/cb_baai.png,0,,,,,,,,,,,,,,,,,,,,,,
,,,,,00111,2023-12-09_16h52.05.581,vbt_B2_day4,2022.2.4,Win32,60.31726883,,,,,,down,0,0.052,,0.33148151,-0.063888903,1,0,0,0,178,178,52,1,wagon,images/br_wagon.png,images/cb_wagon.png,0,,,,,,,,,,,,,,,,,,,,,,
,,,,,00111,2023-12-09_16h52.05.581,vbt_B2_day4,2022.2.4,Win32,60.31726883,,,,,,down,0,0.2347,,0.33148151,-0.063888903,1,0,0,0,179,179,153,1,vervoer,images/br_vervoer.png,images/cb_vervoer.png,0,,,,,,,,,,,,,,,,,,,,,,
,,,,,00111,2023-12-09_16h52.05.581,vbt_B2_day4,2022.2.4,Win32,60.31726883,,,,,,down,0,0.6502,,0.012037065,-0.184259273,1,0,0,0,180,180,66,1,lever,images/br_lever.png,images/cb_lever.png,1,lever,,,,,,,,,,,,,,,,,,,,,
,,,,,00111,2023-12-09_16h52.05.581,vbt_B2_day4,2022.2.4,Win32,60.31726883,,,,,,down,0,1.135400001,,0.22592594,-0.260185171,1,0,0,0,181,181,107,1,maling,images/br_maling.png,images/cb_maling.png,1,maling,,,,,,,,,,,,,,,,,,,,,
,,,,,00111,2023-12-09_16h52.05.581,vbt_B2_day4,2022.2.4,Win32,60.31726883,,,,,,down,0,0.189,,0.22592594,-0.260185171,1,0,0,0,182,182,178,1,huisdier,images/br_huisdier.png,images/cb_huisdier.png,0,,,,,,,,,,,,,,,,,,,,,,
,,,,,00111,2023-12-09_16h52.05.581,vbt_B2_day4,2022.2.4,Win32,60.31726883,,,,,,down,0,0.3942,,0.22592594,-0.260185171,1,0,0,0,183,183,165,1,feestdag,images/br_feestdag.png,images/cb_feestdag.png,0,,,,,,,,,,,,,,,,,,,,,,
,,,,,00111,2023-12-09_16h52.05.581,vbt_B2_day4,2022.2.4,Win32,60.31726883,,,,,,down,0,0.1175,,0.22592594,-0.260185171,1,0,0,0,184,184,167,1,eenhoorn,images/br_eenhoorn.png,images/cb_eenhoorn.png,0,,,,,,,,,,,,,,,,,,,,,,
,,,,,00111,2023-12-09_16h52.05.581,vbt_B2_day4,2022.2.4,Win32,60.31726883,,,,,,down,0,0.5207,,0.22592594,-0.260185171,1,0,0,0,185,185,160,1,daarheen,images/br_daarheen.png,images/cb_daarheen.png,0,,,,,,,,,,,,,,,,,,,,,,
,,,,,00111,2023-12-09_16h52.05.581,vbt_B2_day4,2022.2.4,Win32,60.31726883,,,,,,down,0,0.3595,,0.22592594,-0.260185171,1,0,0,0,186,186,137,1,trekker,images/br_trekker.png,images/cb_trekker.png,0,,,,,,,,,,,,,,,,,,,,,,
,,,,,00111,2023-12-09_16h52.05.581,vbt_B2_day4,2022.2.4,Win32,60.31726883,,,,,,down,0,0.1989,,0.22592594,-0.260185171,1,0,0,0,187,187,30,1,uien,images/br_uien.png,images/cb_uien.png,0,,,,,,,,,,,,,,,,,,,,,,
,,,,,00111,2023-12-09_16h52.05.581,vbt_B2_day4,2022.2.4,Win32,60.31726883,,,,,,down,0,1.066900001,,0.22592594,-0.260185171,1,0,0,0,188,188,127,1,doodmoe,images/br_doodmoe.png,images/cb_doodmoe.png,0,,,,,,,,,,,,,,,,,,,,,,
,,,,,00111,2023-12-09_16h52.05.581,vbt_B2_day4,2022.2.4,Win32,60.31726883,,,,,,down,0,1.1693,,0.22592594,-0.260185171,1,0,0,0,189,189,98,1,kreeft,images/br_kreeft.png,images/cb_kreeft.png,0,,,,,,,,,,,,,,,,,,,,,,
,,,,,00111,2023-12-09_16h52.05.581,vbt_B2_day4,2022.2.4,Win32,60.31726883,,,,,,down,0,1,,0.22592594,-0.260185171,1,0,0,0,190,190,67,1,zwart,images/br_zwart.png,images/cb_zwart.png,1,zwart,,,,,,,,,,,,,,,,,,,,,
,,,,,00111,2023-12-09_16h52.05.581,vbt_B2_day4,2022.2.4,Win32,60.31726883,,,,,,down,0,0.0038,,0.22592594,-0.260185171,1,0,0,0,191,191,1,1,zaal,images/br_zaal.png,images/cb_zaal.png,0,,,,,,,,,,,,,,,,,,,,,,
,,,,,00111,2023-12-09_16h52.05.581,vbt_B2_day4,2022.2.4,Win32,60.31726883,,,,,,down,0,0.5856,,0.22592594,-0.260185171,1,0,0,0,192,192,77,1,woede,images/br_woede.png,images/cb_woede.png,0,,,,,,,,,,,,,,,,,,,,,,
,,,,,00111,2023-12-09_16h52.05.581,vbt_B2_day4,2022.2.4,Win32,60.31726883,,,,,,down,0,0.917,,0.22592594,-0.260185171,1,0,0,0,193,193,64,1,wegen,images/br_wegen.png,images/cb_wegen.png,1,wegen,,,,,,,,,,,,,,,,,,,,,
,,,,,00111,2023-12-09_16h52.05.581,vbt_B2_day4,2022.2.4,Win32,60.31726883,,,,,,down,0,0.4855,,0.217592593,-0.180555556,1,0,0,0,194,194,8,1,knie,images/br_knie.png,images/cb_knie.png,0,,,,,,,,,,,,,,,,,,,,,,
,,,,,00111,2023-12-09_16h52.05.581,vbt_B2_day4,2022.2.4,Win32,60.31726883,,,,,,down,0,0.2508,,0.217592593,-0.180555556,1,0,0,0,195,195,34,1,vorm,images/br_vorm.png,images/cb_vorm.png,0,,,,,,,,,,,,,,,,,,,,,,
,,,,,00111,2023-12-09_16h52.05.581,vbt_B2_day4,2022.2.4,Win32,60.31726883,,,,,,down,0,0.223599999,,0.217592593,-0.180555556,1,0,0,0,196,196,114,1,vullen,images/br_vullen.png,images/cb_vullen.png,0,,,,,,,,,,,,,,,,,,,,,,
,,,,,00111,2023-12-09_16h52.05.581,vbt_B2_day4,2022.2.4,Win32,60.31726883,,,,,,down,0,0.383900001,,0.217592593,-0.180555556,1,0,0,0,197,197,189,1,aanraden,images/br_aanraden.png,images/cb_aanraden.png,0,,,,,,,,,,,,,,,,,,,,,,
,,,,,00111,2023-12-09_16h52.05.581,vbt_B2_day4,2022.2.4,Win32,60.31726883,,,,,,down,0,3.083,,0.217592593,-0.180555556,1,0,0,0,198,198,139,1,stiekem,images/br_stiekem.png,images/cb_stiekem.png,0,,,,,,,,,,,,,,,,,,,,,,
,,,,,00111,2023-12-09_16h52.05.581,vbt_B2_day4,2022.2.4,Win32,60.31726883,,,,,,down,0,0.5377,,0.217592593,-0.180555556,1,0,0,0,199,199,42,1,bleek,images/br_bleek.png,images/cb_bleek.png,0,,,,,,,,,,,,,,,,,,,,,,
,,,,,00111,2023-12-09_16h52.05.581,vbt_B2_day4,2022.2.4,Win32,60.31726883,,,,,,,,,,,,,,,,,,,,,,,,,0.217592593,-0.180555556,1,0,0,,,,,,,,,,,,,,,,
,,,,,00111,2023-12-09_16h52.05.581,vbt_B2_day4,2022.2.4,Win32,60.31726883,,,,,,,,,,,,,,,,,,,,,,,,,,,,,,0.217592593,-0.180555556,1,0,0,,,,,,,,,,,
,,,,,00111,2023-12-09_16h52.05.581,vbt_B2_day4,2022.2.4,Win32,60.31726883,,,,,,,,,,,,,,,,,,,,gaan,images/br_gaan.png,images/cb_gaan.png,,gaan,,,,,,,,,,,0.217592593,-0.180555556,1,0,0,gaan,0,0,0,41,1
,,,,,00111,2023-12-09_16h52.05.581,vbt_B2_day4,2022.2.4,Win32,60.31726883,,,,,,,,,,,,,,,,,,,,wagon,images/br_wagon.png,images/cb_wagon.png,,wagon,,,,,,,,,,,0.375925982,-0.114814829,1,0,0,wagon,0,1,1,4,1
,,,,,00111,2023-12-09_16h52.05.581,vbt_B2_day4,2022.2.4,Win32,60.31726883,,,,,,,,,,,,,,,,,,,,geheim,images/br_geheim.png,images/cb_geheim.png,,geheim,,,,,,,,,,,0.375925982,-0.114814829,1,0,0,geheim,0,2,2,8,1
,,,,,00111,2023-12-09_16h52.05.581,vbt_B2_day4,2022.2.4,Win32,60.31726883,,,,,,,,,,,,,,,,,,,,opkicht,images/br_opkicht.png,images/cb_opkicht.png,,opkicht,,,,,,,,,,,0.375925982,-0.114814829,1,0,0,opkicht,0,3,3,34,1
,,,,,00111,2023-12-09_16h52.05.581,vbt_B2_day4,2022.2.4,Win32,60.31726883,,,,,,,,,,,,,,,,,,,,seizoon,images/br_seizoon.png,images/cb_seizoon.png,,seizoon,,,,,,,,,,,0.375925982,-0.114814829,1,0,0,seizoon,0,4,4,33,1
,,,,,00111,2023-12-09_16h52.05.581,vbt_B2_day4,2022.2.4,Win32,60.31726883,,,,,,,,,,,,,,,,,,,,eerst,images/br_eerst.png,images/cb_eerst.png,,eerst,,,,,,,,,,,0.375925982,-0.114814829,1,0,0,eerst,0,5,5,47,1
,,,,,00111,2023-12-09_16h52.05.581,vbt_B2_day4,2022.2.4,Win32,60.31726883,,,,,,,,,,,,,,,,,,,,gebit,images/br_gebit.png,images/cb_gebit.png,,gebit,,,,,,,,,,,0.375925982,-0.114814829,1,0,0,gebit,0,6,6,6,1
,,,,,00111,2023-12-09_16h52.05.581,vbt_B2_day4,2022.2.4,Win32,60.31726883,,,,,,,,,,,,,,,,,,,,strok,images/br_strok.png,images/cb_strok.png,,strok,,,,,,,,,,,0.375925982,-0.114814829,1,0,0,strok,0,7,7,25,1
,,,,,00111,2023-12-09_16h52.05.581,vbt_B2_day4,2022.2.4,Win32,60.31726883,,,,,,,,,,,,,,,,,,,,zwek,images/br_zwek.png,images/cb_zwek.png,,zwek,,,,,,,,,,,0.375925982,-0.114814829,1,0,0,zwek,0,8,8,20,1
,,,,,00111,2023-12-09_16h52.05.581,vbt_B2_day4,2022.2.4,Win32,60.31726883,,,,,,,,,,,,,,,,,,,,snee,images/br_snee.png,images/cb_snee.png,,snee,,,,,,,,,,,0.375925982,-0.114814829,1,0,0,snee,0,9,9,40,1
,,,,,00111,2023-12-09_16h52.05.581,vbt_B2_day4,2022.2.4,Win32,60.31726883,,,,,,,,,,,,,,,,,,,,grappen,images/br_grappen.png,images/cb_grappen.png,,grappen,,,,,,,,,,,0.375925982,-0.114814829,1,0,0,grappen,0,10,10,12,1
,,,,,00111,2023-12-09_16h52.05.581,vbt_B2_day4,2022.2.4,Win32,60.31726883,,,,,,,,,,,,,,,,,,,,pittig,images/br_pittig.png,images/cb_pittig.png,,pittig,,,,,,,,,,,0.375925982,-0.114814829,1,0,0,pittig,0,11,11,51,1
,,,,,00111,2023-12-09_16h52.05.581,vbt_B2_day4,2022.2.4,Win32,60.31726883,,,,,,,,,,,,,,,,,,,,haza,images/br_haza.png,images/cb_haza.png,,haza,,,,,,,,,,,0.375925982,-0.114814829,1,0,0,haza,0,12,12,21,1
,,,,,00111,2023-12-09_16h52.05.581,vbt_B2_day4,2022.2.4,Win32,60.31726883,,,,,,,,,,,,,,,,,,,,gaaf,images/br_gaaf.png,images/cb_gaaf.png,,gaaf,,,,,,,,,,,0.3648149,-0.112963005,1,0,0,gaaf,0,13,13,43,1
,,,,,00111,2023-12-09_16h52.05.581,vbt_B2_day4,2022.2.4,Win32,60.31726883,,,,,,,,,,,,,,,,,,,,lappen,images/br_lappen.png,images/cb_lappen.png,,lappen,,,,,,,,,,,0.3648149,-0.112963005,1,0,0,lappen,0,14,14,49,1
,,,,,00111,2023-12-09_16h52.05.581,vbt_B2_day4,2022.2.4,Win32,60.31726883,,,,,,,,,,,,,,,,,,,,noodzaak,images/br_noodzaak.png,images/cb_noodzaak.png,,noodwaa.,,,,,,,,,,,0.3648149,-0.111111111,1,0,0,noodwaa.,0,15,15,56,1
,,,,,00111,2023-12-09_16h52.05.581,vbt_B2_day4,2022.2.4,Win32,60.31726883,,,,,,,,,,,,,,,,,,,,opruimen,images/br_opruimen.png,images/cb_opruimen.png,,opruimen,,,,,,,,,,,0.3648149,-0.111111111,1,0,0,opruimen,0,16,16,59,1
,,,,,00111,2023-12-09_16h52.05.581,vbt_B2_day4,2022.2.4,Win32,60.31726883,,,,,,,,,,,,,,,,,,,,kaal,images/br_kaal.png,images/cb_kaal.png,,kaal,,,,,,,,,,,0.363888917,-0.111111111,1,0,0,kaal,0,17,17,1,1
,,,,,00111,2023-12-09_16h52.05.581,vbt_B2_day4,2022.2.4,Win32,60.31726883,,,,,,,,,,,,,,,,,,,,zaalrijk,images/br_zaalrijk.png,images/cb_zaalrijk.png,,zaalrijk,,,,,,,,,,,0.363888917,-0.111111111,1,0,0,zaalrijk,0,18,18,37,1
,,,,,00111,2023-12-09_16h52.05.581,vbt_B2_day4,2022.2.4,Win32,60.31726883,,,,,,,,,,,,,,,,,,,,tucket,images/br_tucket.png,images/cb_tucket.png,,ticket,,,,,,,,,,,0.363888917,-0.111111111,1,0,0,ticket,0,19,19,30,1
,,,,,00111,2023-12-09_16h52.05.581,vbt_B2_day4,2022.2.4,Win32,60.31726883,,,,,,,,,,,,,,,,,,,,praat,images/br_praat.png,images/cb_praat.png,,praat,,,,,,,,,,,0.363888917,-0.111111111,1,0,0,praat,0,20,20,7,1
,,,,,00111,2023-12-09_16h52.05.581,vbt_B2_day4,2022.2.4,Win32,60.31726883,,,,,,,,,,,,,,,,,,,,apparaat,images/br_apparaat.png,images/cb_apparaat.png,,apparaat,,,,,,,,,,,0.363888917,-0.111111111,1,0,0,apparaat,0,21,21,17,1
,,,,,00111,2023-12-09_16h52.05.581,vbt_B2_day4,2022.2.4,Win32,60.31726883,,,,,,,,,,,,,,,,,,,,wozing,images/br_wozing.png,images/cb_wozing.png,,wozing,,,,,,,,,,,0.363888917,-0.111111111,1,0,0,wozing,0,22,22,28,1
,,,,,00111,2023-12-09_16h52.05.581,vbt_B2_day4,2022.2.4,Win32,60.31726883,,,,,,,,,,,,,,,,,,,,weigeren,images/br_weigeren.png,images/cb_weigeren.png,,weigeren,,,,,,,,,,,0.363888917,-0.111111111,1,0,0,weigeren,0,23,23,16,1
,,,,,00111,2023-12-09_16h52.05.581,vbt_B2_day4,2022.2.4,Win32,60.31726883,,,,,,,,,,,,,,,,,,,,waarop,images/br_waarop.png,images/cb_waarop.png,,waarop,,,,,,,,,,,0.363888917,-0.111111111,1,0,0,waarop,0,24,24,9,1
,,,,,00111,2023-12-09_16h52.05.581,vbt_B2_day4,2022.2.4,Win32,60.31726883,,,,,,,,,,,,,,,,,,,,steen,images/br_steen.png,images/cb_steen.png,,steen,,,,,,,,,,,0.363888917,-0.111111111,1,0,0,steen,0,25,25,44,1
,,,,,00111,2023-12-09_16h52.05.581,vbt_B2_day4,2022.2.4,Win32,60.31726883,,,,,,,,,,,,,,,,,,,,midden,images/br_midden.png,images/cb_midden.png,,midden,,,,,,,,,,,0.363888917,-0.111111111,1,0,0,midden,0,26,26,50,1
,,,,,00111,2023-12-09_16h52.05.581,vbt_B2_day4,2022.2.4,Win32,60.31726883,,,,,,,,,,,,,,,,,,,,schotel,images/br_schotel.png,images/cb_schotel.png,,schotel ,,,,,,,,,,,0.363888917,-0.111111111,1,0,0,schotel ,0,27,27,52,1
,,,,,00111,2023-12-09_16h52.05.581,vbt_B2_day4,2022.2.4,Win32,60.31726883,,,,,,,,,,,,,,,,,,,,pijnlijk,images/br_pijnlijk.png,images/cb_pijnlijk.png,,pijnl..,,,,,,,,,,,0.363888917,-0.111111111,1,0,0,pijnl..,0,28,28,58,1
,,,,,00111,2023-12-09_16h52.05.581,vbt_B2_day4,2022.2.4,Win32,60.31726883,,,,,,,,,,,,,,,,,,,,kust,images/br_kust.png,images/cb_kust.png,,kust,,,,,,,,,,,0.363888917,-0.111111111,1,0,0,kust,0,29,29,0,1
,,,,,00111,2023-12-09_16h52.05.581,vbt_B2_day4,2022.2.4,Win32,60.31726883,,,,,,,,,,,,,,,,,,,,fran,images/br_fran.png,images/cb_fran.png,,fran,,,,,,,,,,,0.362037094,-0.112963005,1,0,0,fran,0,30,30,22,1
,,,,,00111,2023-12-09_16h52.05.581,vbt_B2_day4,2022.2.4,Win32,60.31726883,,,,,,,,,,,,,,,,,,,,dalen,images/br_dalen.png,images/cb_dalen.png,,dalen,,,,,,,,,,,0.362037094,-0.112963005,1,0,0,dalen,0,31,31,46,1
,,,,,00111,2023-12-09_16h52.05.581,vbt_B2_day4,2022.2.4,Win32,60.31726883,,,,,,,,,,,,,,,,,,,,broodje,images/br_broodje.png,images/cb_broodje.png,,broodje,,,,,,,,,,,0.362037094,-0.112963005,1,0,0,broodje,0,32,32,55,1
,,,,,00111,2023-12-09_16h52.05.581,vbt_B2_day4,2022.2.4,Win32,60.31726883,,,,,,,,,,,,,,,,,,,,schenden,images/br_schenden.png,images/cb_schenden.png,,schending,,,,,,,,,,,0.362037094,-0.112963005,1,0,0,schending,0,33,33,57,1
,,,,,00111,2023-12-09_16h52.05.581,vbt_B2_day4,2022.2.4,Win32,60.31726883,,,,,,,,,,,,,,,,,,,,oceaan,images/br_oceaan.png,images/cb_oceaan.png,,oceaan ,,,,,,,,,,,0.362037094,-0.112963005,1,0,0,oceaan ,0,34,34,10,1
,,,,,00111,2023-12-09_16h52.05.581,vbt_B2_day4,2022.2.4,Win32,60.31726883,,,,,,,,,,,,,,,,,,,,ezel,images/br_ezel.png,images/cb_ezel.png,,ezel,,,,,,,,,,,0.362037094,-0.112963005,1,0,0,ezel,0,35,35,42,1
,,,,,00111,2023-12-09_16h52.05.581,vbt_B2_day4,2022.2.4,Win32,60.31726883,,,,,,,,,,,,,,,,,,,,vreten,images/br_vreten.png,images/cb_vreten.png,,vreten,,,,,,,,,,,0.362037094,-0.112963005,1,0,0,vreten,0,36,36,11,1
,,,,,00111,2023-12-09_16h52.05.581,vbt_B2_day4,2022.2.4,Win32,60.31726883,,,,,,,,,,,,,,,,,,,,drooien,images/br_drooien.png,images/cb_drooien.png,,drooien,,,,,,,,,,,0.362037094,-0.112963005,1,0,0,drooien,0,37,37,32,1
,,,,,00111,2023-12-09_16h52.05.581,vbt_B2_day4,2022.2.4,Win32,60.31726883,,,,,,,,,,,,,,,,,,,,mekst,images/br_mekst.png,images/cb_mekst.png,,mekst,,,,,,,,,,,0.359259288,-0.112963005,1,0,0,mekst,0,38,38,27,1
,,,,,00111,2023-12-09_16h52.05.581,vbt_B2_day4,2022.2.4,Win32,60.31726883,,,,,,,,,,,,,,,,,,,,gebog,images/br_gebog.png,images/cb_gebog.png,,gebog,,,,,,,,,,,0.359259288,-0.112963005,1,0,0,gebog,0,39,39,24,1
,,,,,00111,2023-12-09_16h52.05.581,vbt_B2_day4,2022.2.4,Win32,60.31726883,,,,,,,,,,,,,,,,,,,,bisschap,images/br_bisschap.png,images/cb_bisschap.png,,bisshap,,,,,,,,,,,0.359259288,-0.112963005,1,0,0,bisshap,0,40,40,36,1
,,,,,00111,2023-12-09_16h52.05.581,vbt_B2_day4,2022.2.4,Win32,60.31726883,,,,,,,,,,,,,,,,,,,,drummer,images/br_drummer.png,images/cb_drummer.png,,drummer,,,,,,,,,,,0.359259288,-0.112963005,1,0,0,drummer,0,41,41,53,1
,,,,,00111,2023-12-09_16h52.05.581,vbt_B2_day4,2022.2.4,Win32,60.31726883,,,,,,,,,,,,,,,,,,,,toevol,images/br_toevol.png,images/cb_toevol.png,,toevol,,,,,,,,,,,0.359259288,-0.112963005,1,0,0,toevol,0,42,42,29,1
,,,,,00111,2023-12-09_16h52.05.581,vbt_B2_day4,2022.2.4,Win32,60.31726883,,,,,,,,,,,,,,,,,,,,getucht,images/br_getucht.png,images/cb_getucht.png,,getuch..,,,,,,,,,,,0.36018527,-0.114814829,1,0,0,getuch..,0,43,43,35,1
,,,,,00111,2023-12-09_16h52.05.581,vbt_B2_day4,2022.2.4,Win32,60.31726883,,,,,,,,,,,,,,,,,,,,rijp,images/br_rijp.png,images/cb_rijp.png,,rijp,,,,,,,,,,,0.36018527,-0.114814829,1,0,0,rijp,0,44,44,2,1
,,,,,00111,2023-12-09_16h52.05.581,vbt_B2_day4,2022.2.4,Win32,60.31726883,,,,,,,,,,,,,,,,,,,,geliefd,images/br_geliefd.png,images/cb_geliefd.png,,geliefd,,,,,,,,,,,0.36018527,-0.114814829,1,0,0,geliefd,0,45,45,14,1
,,,,,00111,2023-12-09_16h52.05.581,vbt_B2_day4,2022.2.4,Win32,60.31726883,,,,,,,,,,,,,,,,,,,,paalbaak,images/br_paalbaak.png,images/cb_paalbaak.png,,paalbaak,,,,,,,,,,,0.36018527,-0.114814829,1,0,0,paalbaak,0,46,46,39,1
,,,,,00111,2023-12-09_16h52.05.581,vbt_B2_day4,2022.2.4,Win32,60.31726883,,,,,,,,,,,,,,,,,,,,warel,images/br_warel.png,images/cb_warel.png,,warel,,,,,,,,,,,0.36018527,-0.114814829,1,0,0,warel,0,47,47,26,1
,,,,,00111,2023-12-09_16h52.05.581,vbt_B2_day4,2022.2.4,Win32,60.31726883,,,,,,,,,,,,,,,,,,,,flippen,images/br_flippen.png,images/cb_flippen.png,,flippen,,,,,,,,,,,0.36018527,-0.114814829,1,0,0,flippen,0,48,48,54,1
,,,,,00111,2023-12-09_16h52.05.581,vbt_B2_day4,2022.2.4,Win32,60.31726883,,,,,,,,,,,,,,,,,,,,heengaan,images/br_heengaan.png,images/cb_heengaan.png,,heengaan,,,,,,,,,,,0.474074046,-0.416666667,1,0,0,heengaan,0,49,49,19,1
,,,,,00111,2023-12-09_16h52.05.581,vbt_B2_day4,2022.2.4,Win32,60.31726883,,,,,,,,,,,,,,,,,,,,gedicht,images/br_gedicht.png,images/cb_gedicht.png,,gedicht,,,,,,,,,,,0.474074046,-0.416666667,1,0,0,gedicht,0,50,50,15,1
,,,,,00111,2023-12-09_16h52.05.581,vbt_B2_day4,2022.2.4,Win32,60.31726883,,,,,,,,,,,,,,,,,,,,bruin,images/br_bruin.png,images/cb_bruin.png,,bruin,,,,,,,,,,,0.296296296,-0.283333319,1,0,0,bruin,0,51,51,45,1
,,,,,00111,2023-12-09_16h52.05.581,vbt_B2_day4,2022.2.4,Win32,60.31726883,,,,,,,,,,,,,,,,,,,,sulbon,images/br_sulbon.png,images/cb_sulbon.png,,sulbon,,,,,,,,,,,0.296296296,-0.283333319,1,0,0,sulbon,0,52,52,31,1
,,,,,00111,2023-12-09_16h52.05.581,vbt_B2_day4,2022.2.4,Win32,60.31726883,,,,,,,,,,,,,,,,,,,,stemming,images/br_stemming.png,images/cb_stemming.png,,stemming,,,,,,,,,,,0.296296296,-0.283333319,1,0,0,stemming,0,53,53,18,1
,,,,,00111,2023-12-09_16h52.05.581,vbt_B2_day4,2022.2.4,Win32,60.31726883,,,,,,,,,,,,,,,,,,,,aanzwaag,images/br_aanzwaag.png,images/cb_aanzwaag.png,,aanzw...,,,,,,,,,,,0.296296296,-0.283333319,1,0,0,aanzw...,0,54,54,38,1
,,,,,00111,2023-12-09_16h52.05.581,vbt_B2_day4,2022.2.4,Win32,60.31726883,,,,,,,,,,,,,,,,,,,,baron,images/br_baron.png,images/cb_baron.png,,baron,,,,,,,,,,,0.296296296,-0.283333319,1,0,0,baron,0,55,55,5,1
,,,,,00111,2023-12-09_16h52.05.581,vbt_B2_day4,2022.2.4,Win32,60.31726883,,,,,,,,,,,,,,,,,,,,dozijn,images/br_dozijn.png,images/cb_dozijn.png,,dozijn,,,,,,,,,,,0.296296296,-0.283333319,1,0,0,dozijn,0,56,56,48,1
,,,,,00111,2023-12-09_16h52.05.581,vbt_B2_day4,2022.2.4,Win32,60.31726883,,,,,,,,,,,,,,,,,,,,seizoen,images/br_seizoen.png,images/cb_seizoen.png,,seizoen ,,,,,,,,,,,0.296296296,-0.283333319,1,0,0,seizoen ,0,57,57,13,1
,,,,,00111,2023-12-09_16h52.05.581,vbt_B2_day4,2022.2.4,Win32,60.31726883,,,,,,,,,,,,,,,,,,,,soda,images/br_soda.png,images/cb_soda.png,,soda,,,,,,,,,,,0.296296296,-0.283333319,1,0,0,soda,0,58,58,3,1
,,,,,00111,2023-12-09_16h52.05.581,vbt_B2_day4,2022.2.4,Win32,60.31726883,,,,,,,,,,,,,,,,,,,,gijf,images/br_gijf.png,images/cb_gijf.png,,gijf,,,,,,,,,,,0.296296296,-0.283333319,1,0,0,gijf,0,59,59,23,1
,,,,,00111,2023-12-09_16h52.05.581,vbt_B2_day4,2022.2.4,Win32,60.31726883,,,,,,,,,,,,,,,,,,,,,,,,,,,,,,,,,,,,,,,,,,,,,
