welcome_mouse.x,welcome_mouse.y,welcome_mouse.leftButton,welcome_mouse.midButton,welcome_mouse.rightButton,"ID",date,expName,psychopyVersion,OS,frameRate,participant,trainInstr_mouse.x,trainInstr_mouse.y,trainInstr_mouse.leftButton,trainInstr_mouse.midButton,trainInstr_mouse.rightButton,translation_key.keys,translation_key.corr,translation_key.rt,word_rsp.text,trWrd_mouse.x,trWrd_mouse.y,trWrd_mouse.leftButton,trWrd_mouse.midButton,trWrd_mouse.rightButton,train_loop.thisRepN,train_loop.thisTrialN,train_loop.thisN,train_loop.thisIndex,train_loop.ran,nlWrd,brWrd,cbWrd,test,testResp,mouse.x,mouse.y,mouse.leftButton,mouse.midButton,mouse.rightButton,testInstr_mouse.x,testInstr_mouse.y,testInstr_mouse.leftButton,testInstr_mouse.midButton,testInstr_mouse.rightButton,test_mouse.x,test_mouse.y,test_mouse.leftButton,test_mouse.midButton,test_mouse.rightButton,test_response.text,test_loop.thisRepN,test_loop.thisTrialN,test_loop.thisN,test_loop.thisIndex,test_loop.ran
0.03378565,-0.442473142,1,0,0,,2023-07-27_22h07.30.935,vbt_B2_day4,2022.2.4,Linux armv81,61.03515625,52204,,,,,,,,,,,,,,,,,,,,,,,,,,,,,,,,,,,,,,,,,,,,,
,,,,,,2023-07-27_22h07.30.935,vbt_B2_day4,2022.2.4,Linux armv81,61.03515625,52204,-0.195293127,-0.305672097,1,0,0,,,,,,,,,,,,,,,,,,,,,,,,,,,,,,,,,,,,,,,,
,,,,,,2023-07-27_22h07.30.935,vbt_B2_day4,2022.2.4,Linux armv81,61.03515625,52204,,,,,,down,0,1.1213,,-0.195293127,-0.305672097,1,0,0,0,0,0,14,1,rijp,images/br_rijp.png,images/cb_rijp.png,0,,,,,,,,,,,,,,,,,,,,,,
,,,,,,2023-07-27_22h07.30.935,vbt_B2_day4,2022.2.4,Linux armv81,61.03515625,52204,,,,,,down,0,0.3598,,-0.459558637,-0.121179731,1,0,0,0,1,1,180,1,openbaar,images/br_openbaar.png,images/cb_openbaar.png,0,,,,,,,,,,,,,,,,,,,,,,
,,,,,,2023-07-27_22h07.30.935,vbt_B2_day4,2022.2.4,Linux armv81,61.03515625,52204,,,,,,down,0,0.4248,,-0.459558637,-0.121179731,1,0,0,0,2,2,123,1,hiervan,images/br_hiervan.png,images/cb_hiervan.png,0,,,,,,,,,,,,,,,,,,,,,,
,,,,,,2023-07-27_22h07.30.935,vbt_B2_day4,2022.2.4,Linux armv81,61.03515625,52204,,,,,,down,0,1.1305,,-0.459558637,-0.121179731,1,0,0,0,3,3,125,1,aanzien,images/br_aanzien.png,images/cb_aanzien.png,0,,,,,,,,,,,,,,,,,,,,,,
,,,,,,2023-07-27_22h07.30.935,vbt_B2_day4,2022.2.4,Linux armv81,61.03515625,52204,,,,,,down,0,0.312,,-0.459558637,-0.121179731,1,0,0,0,4,4,53,1,baron,images/br_baron.png,images/cb_baron.png,0,,,,,,,,,,,,,,,,,,,,,,
,,,,,,2023-07-27_22h07.30.935,vbt_B2_day4,2022.2.4,Linux armv81,61.03515625,52204,,,,,,down,0,0.0247,,-0.459558637,-0.121179731,1,0,0,0,5,5,95,1,vreten,images/br_vreten.png,images/cb_vreten.png,0,,,,,,,,,,,,,,,,,,,,,,
,,,,,,2023-07-27_22h07.30.935,vbt_B2_day4,2022.2.4,Linux armv81,61.03515625,52204,,,,,,down,0,0.3572,,-0.459558637,-0.121179731,1,0,0,0,6,6,169,1,oprotten,images/br_oprotten.png,images/cb_oprotten.png,0,,,,,,,,,,,,,,,,,,,,,,
,,,,,,2023-07-27_22h07.30.935,vbt_B2_day4,2022.2.4,Linux armv81,61.03515625,52204,,,,,,down,0,0.2628,,-0.459558637,-0.121179731,1,0,0,0,7,7,117,1,kennis,images/br_kennis.png,images/cb_kennis.png,0,,,,,,,,,,,,,,,,,,,,,,
,,,,,,2023-07-27_22h07.30.935,vbt_B2_day4,2022.2.4,Linux armv81,61.03515625,52204,,,,,,down,0,0.0043,,-0.459558637,-0.121179731,1,0,0,0,8,8,154,1,aflopen,images/br_aflopen.png,images/cb_aflopen.png,0,,,,,,,,,,,,,,,,,,,,,,
,,,,,,2023-07-27_22h07.30.935,vbt_B2_day4,2022.2.4,Linux armv81,61.03515625,52204,,,,,,down,0,0.1816,,-0.459558637,-0.121179731,1,0,0,0,9,9,175,1,heengaan,images/br_heengaan.png,images/cb_heengaan.png,0,,,,,,,,,,,,,,,,,,,,,,
,,,,,,2023-07-27_22h07.30.935,vbt_B2_day4,2022.2.4,Linux armv81,61.03515625,52204,,,,,,down,0,0.2058,,-0.459558637,-0.121179731,1,0,0,0,10,10,4,1,moes,images/br_moes.png,images/cb_moes.png,0,,,,,,,,,,,,,,,,,,,,,,
,,,,,,2023-07-27_22h07.30.935,vbt_B2_day4,2022.2.4,Linux armv81,61.03515625,52204,,,,,,down,0,0.3433,,-0.459558637,-0.121179731,1,0,0,0,11,11,50,1,stoom,images/br_stoom.png,images/cb_stoom.png,0,,,,,,,,,,,,,,,,,,,,,,
,,,,,,2023-07-27_22h07.30.935,vbt_B2_day4,2022.2.4,Linux armv81,61.03515625,52204,,,,,,down,0,0.4375,,-0.462562739,-0.11817566,1,0,0,0,12,12,152,1,afnemen,images/br_afnemen.png,images/cb_afnemen.png,0,,,,,,,,,,,,,,,,,,,,,,
,,,,,,2023-07-27_22h07.30.935,vbt_B2_day4,2022.2.4,Linux armv81,61.03515625,52204,,,,,,down,0,0.6271,,-0.462562739,-0.11817566,1,0,0,0,13,13,162,1,uitdelen,images/br_uitdelen.png,images/cb_uitdelen.png,0,,,,,,,,,,,,,,,,,,,,,,
,,,,,,2023-07-27_22h07.30.935,vbt_B2_day4,2022.2.4,Linux armv81,61.03515625,52204,,,,,,down,0,0.1282,,-0.462562739,-0.11817566,1,0,0,0,14,14,160,1,daarheen,images/br_daarheen.png,images/cb_daarheen.png,0,,,,,,,,,,,,,,,,,,,,,,
,,,,,,2023-07-27_22h07.30.935,vbt_B2_day4,2022.2.4,Linux armv81,61.03515625,52204,,,,,,down,0,0.2441,,-0.462562739,-0.11817566,1,0,0,0,15,15,174,1,stemming,images/br_stemming.png,images/cb_stemming.png,0,,,,,,,,,,,,,,,,,,,,,,
,,,,,,2023-07-27_22h07.30.935,vbt_B2_day4,2022.2.4,Linux armv81,61.03515625,52204,,,,,,down,0,0.9483,,-0.462562739,-0.11817566,1,0,0,0,16,16,155,1,gerucht,images/br_gerucht.png,images/cb_gerucht.png,0,,,,,,,,,,,,,,,,,,,,,,
,,,,,,2023-07-27_22h07.30.935,vbt_B2_day4,2022.2.4,Linux armv81,61.03515625,52204,,,,,,down,0,0.1562,,-0.462562739,-0.11817566,1,0,0,0,17,17,132,1,grappen,images/br_grappen.png,images/cb_grappen.png,0,,,,,,,,,,,,,,,,,,,,,,
,,,,,,2023-07-27_22h07.30.935,vbt_B2_day4,2022.2.4,Linux armv81,61.03515625,52204,,,,,,down,0,1.2551,,-0.462562739,-0.11817566,1,0,0,0,18,18,90,1,geluid,images/br_geluid.png,images/cb_geluid.png,0,,,,,,,,,,,,,,,,,,,,,,
,,,,,,2023-07-27_22h07.30.935,vbt_B2_day4,2022.2.4,Linux armv81,61.03515625,52204,,,,,,down,0,0.4451,,-0.462562739,-0.11817566,1,0,0,0,19,19,129,1,verhaal,images/br_verhaal.png,images/cb_verhaal.png,0,,,,,,,,,,,,,,,,,,,,,,
,,,,,,2023-07-27_22h07.30.935,vbt_B2_day4,2022.2.4,Linux armv81,61.03515625,52204,,,,,,down,0,1.0853,,-0.462562739,-0.11817566,1,0,0,0,20,20,177,1,maaltijd,images/br_maaltijd.png,images/cb_maaltijd.png,0,,,,,,,,,,,,,,,,,,,,,,
,,,,,,2023-07-27_22h07.30.935,vbt_B2_day4,2022.2.4,Linux armv81,61.03515625,52204,,,,,,down,0,0.3764,,-0.462562739,-0.11817566,1,0,0,0,21,21,115,1,kleren,images/br_kleren.png,images/cb_kleren.png,0,,,,,,,,,,,,,,,,,,,,,,
,,,,,,2023-07-27_22h07.30.935,vbt_B2_day4,2022.2.4,Linux armv81,61.03515625,52204,,,,,,down,0,0.2669,,-0.462562739,-0.11817566,1,0,0,0,22,22,93,1,waarop,images/br_waarop.png,images/cb_waarop.png,0,,,,,,,,,,,,,,,,,,,,,,
,,,,,,2023-07-27_22h07.30.935,vbt_B2_day4,2022.2.4,Linux armv81,61.03515625,52204,,,,,,down,0,0.3639,,-0.462562739,-0.11817566,1,0,0,0,23,23,37,1,mijn,images/br_mijn.png,images/cb_mijn.png,0,,,,,,,,,,,,,,,,,,,,,,
,,,,,,2023-07-27_22h07.30.935,vbt_B2_day4,2022.2.4,Linux armv81,61.03515625,52204,,,,,,down,0,0.3512,,-0.462562739,-0.11817566,1,0,0,0,24,24,46,1,jagen,images/br_jagen.png,images/cb_jagen.png,0,,,,,,,,,,,,,,,,,,,,,,
,,,,,,2023-07-27_22h07.30.935,vbt_B2_day4,2022.2.4,Linux armv81,61.03515625,52204,,,,,,down,0,0.0909,,-0.462562739,-0.11817566,1,0,0,0,25,25,176,1,techniek,images/br_techniek.png,images/cb_techniek.png,0,,,,,,,,,,,,,,,,,,,,,,
,,,,,,2023-07-27_22h07.30.935,vbt_B2_day4,2022.2.4,Linux armv81,61.03515625,52204,,,,,,down,0,1.7225,,-0.462562739,-0.11817566,1,0,0,0,26,26,124,1,bloeien,images/br_bloeien.png,images/cb_bloeien.png,0,,,,,,,,,,,,,,,,,,,,,,
,,,,,,2023-07-27_22h07.30.935,vbt_B2_day4,2022.2.4,Linux armv81,61.03515625,52204,,,,,,down,0,11.6894,,-0.311089421,0.037957615,1,0,0,0,27,27,107,1,maling,images/br_maling.png,images/cb_maling.png,1,maling,,,,,,,,,,,,,,,,,,,,,
,,,,,,2023-07-27_22h07.30.935,vbt_B2_day4,2022.2.4,Linux armv81,61.03515625,52204,,,,,,down,0,0.4119,,-0.311089421,0.037957615,1,0,0,0,28,28,196,1,nakijken,images/br_nakijken.png,images/cb_nakijken.png,0,,,,,,,,,,,,,,,,,,,,,,
,,,,,,2023-07-27_22h07.30.935,vbt_B2_day4,2022.2.4,Linux armv81,61.03515625,52204,,,,,,down,0,0.3191,,-0.311089421,0.037957615,1,0,0,0,29,29,0,1,slak,images/br_slak.png,images/cb_slak.png,0,,,,,,,,,,,,,,,,,,,,,,
,,,,,,2023-07-27_22h07.30.935,vbt_B2_day4,2022.2.4,Linux armv81,61.03515625,52204,,,,,,down,0,0.3474,,-0.311089421,0.037957615,1,0,0,0,30,30,165,1,feestdag,images/br_feestdag.png,images/cb_feestdag.png,0,,,,,,,,,,,,,,,,,,,,,,
,,,,,,2023-07-27_22h07.30.935,vbt_B2_day4,2022.2.4,Linux armv81,61.03515625,52204,,,,,,down,0,2.2534,,-0.311089421,0.037957615,1,0,0,0,31,31,48,1,steel,images/br_steel.png,images/cb_steel.png,0,,,,,,,,,,,,,,,,,,,,,,
,,,,,,2023-07-27_22h07.30.935,vbt_B2_day4,2022.2.4,Linux armv81,61.03515625,52204,,,,,,down,0,1.2113,,-0.311089421,0.037957615,1,0,0,0,32,32,39,1,laag,images/br_laag.png,images/cb_laag.png,0,,,,,,,,,,,,,,,,,,,,,,
,,,,,,2023-07-27_22h07.30.935,vbt_B2_day4,2022.2.4,Linux armv81,61.03515625,52204,,,,,,down,0,1.1011,,-0.311089421,0.037957615,1,0,0,0,33,33,139,1,stiekem,images/br_stiekem.png,images/cb_stiekem.png,0,,,,,,,,,,,,,,,,,,,,,,
,,,,,,2023-07-27_22h07.30.935,vbt_B2_day4,2022.2.4,Linux armv81,61.03515625,52204,,,,,,down,0,1.77,,-0.311089421,0.037957615,1,0,0,0,34,34,189,1,aanraden,images/br_aanraden.png,images/cb_aanraden.png,0,,,,,,,,,,,,,,,,,,,,,,
,,,,,,2023-07-27_22h07.30.935,vbt_B2_day4,2022.2.4,Linux armv81,61.03515625,52204,,,,,,down,0,4.0246,,-0.311089421,0.037957615,1,0,0,0,35,35,29,1,baas,images/br_baas.png,images/cb_baas.png,0,,,,,,,,,,,,,,,,,,,,,,
,,,,,,2023-07-27_22h07.30.935,vbt_B2_day4,2022.2.4,Linux armv81,61.03515625,52204,,,,,,down,0,18.4694,,-0.240872614,0.248441188,1,0,0,0,36,36,184,1,aandelen,images/br_aandelen.png,images/cb_aandelen.png,1,aandelen,,,,,,,,,,,,,,,,,,,,,
,,,,,,2023-07-27_22h07.30.935,vbt_B2_day4,2022.2.4,Linux armv81,61.03515625,52204,,,,,,down,0,26.5125,,-0.255192005,0.233486524,1,0,0,0,37,37,76,1,afval,images/br_afval.png,images/cb_afval.png,0,,,,,,,,,,,,,,,,,,,,,,
,,,,,,2023-07-27_22h07.30.935,vbt_B2_day4,2022.2.4,Linux armv81,61.03515625,52204,,,,,,down,0,4.5283,,-0.255192005,0.233486524,1,0,0,0,38,38,134,1,geliefd,images/br_geliefd.png,images/cb_geliefd.png,0,,,,,,,,,,,,,,,,,,,,,,
,,,,,,2023-07-27_22h07.30.935,vbt_B2_day4,2022.2.4,Linux armv81,61.03515625,52204,,,,,,down,0,7.0463,,-0.266186886,0.436731294,1,0,0,0,39,39,64,1,wegen,images/br_wegen.png,images/cb_wegen.png,1,wegen,,,,,,,,,,,,,,,,,,,,,
,,,,,,2023-07-27_22h07.30.935,vbt_B2_day4,2022.2.4,Linux armv81,61.03515625,52204,,,,,,down,0,0.0997,,-0.146552343,0.343709116,1,0,0,0,40,40,179,1,woestijn,images/br_woestijn.png,images/cb_woestijn.png,0,,,,,,,,,,,,,,,,,,,,,,
,,,,,,2023-07-27_22h07.30.935,vbt_B2_day4,2022.2.4,Linux armv81,61.03515625,52204,,,,,,down,0,0.1449,,-0.123372266,0.440981563,1,0,0,0,41,41,71,1,bever,images/br_bever.png,images/cb_bever.png,0,,,,,,,,,,,,,,,,,,,,,,
,,,,,,2023-07-27_22h07.30.935,vbt_B2_day4,2022.2.4,Linux armv81,61.03515625,52204,,,,,,down,0,14.0215,,-0.123372266,0.440981563,1,0,0,0,42,42,188,1,strekken,images/br_strekken.png,images/cb_strekken.png,0,,,,,,,,,,,,,,,,,,,,,,
,,,,,,2023-07-27_22h07.30.935,vbt_B2_day4,2022.2.4,Linux armv81,61.03515625,52204,,,,,,down,0,3.0554,,-0.123372266,0.440981563,1,0,0,0,43,43,74,1,graaf,images/br_graaf.png,images/cb_graaf.png,0,,,,,,,,,,,,,,,,,,,,,,
,,,,,,2023-07-27_22h07.30.935,vbt_B2_day4,2022.2.4,Linux armv81,61.03515625,52204,,,,,,down,0,0.8285,,-0.123372266,0.440981563,1,0,0,0,44,44,128,1,prikken,images/br_prikken.png,images/cb_prikken.png,0,,,,,,,,,,,,,,,,,,,,,,
,,,,,,2023-07-27_22h07.30.935,vbt_B2_day4,2022.2.4,Linux armv81,61.03515625,52204,,,,,,down,0,0.2021,,-0.123372266,0.440981563,1,0,0,0,45,45,10,1,leek,images/br_leek.png,images/cb_leek.png,0,,,,,,,,,,,,,,,,,,,,,,
,,,,,,2023-07-27_22h07.30.935,vbt_B2_day4,2022.2.4,Linux armv81,61.03515625,52204,,,,,,down,0,0.9171,,-0.123372266,0.440981563,1,0,0,0,46,46,77,1,woede,images/br_woede.png,images/cb_woede.png,0,,,,,,,,,,,,,,,,,,,,,,
,,,,,,2023-07-27_22h07.30.935,vbt_B2_day4,2022.2.4,Linux armv81,61.03515625,52204,,,,,,down,0,0.1689,,-0.123372266,0.440981563,1,0,0,0,47,47,44,1,flits,images/br_flits.png,images/cb_flits.png,0,,,,,,,,,,,,,,,,,,,,,,
,,,,,,2023-07-27_22h07.30.935,vbt_B2_day4,2022.2.4,Linux armv81,61.03515625,52204,,,,,,down,0,0.1359,,-0.123372266,0.439479476,1,0,0,0,48,48,102,1,legaal,images/br_legaal.png,images/cb_legaal.png,0,,,,,,,,,,,,,,,,,,,,,,
,,,,,,2023-07-27_22h07.30.935,vbt_B2_day4,2022.2.4,Linux armv81,61.03515625,52204,,,,,,down,0,1.8147,,-0.123372266,0.439479476,1,0,0,0,49,49,131,1,opzicht,images/br_opzicht.png,images/cb_opzicht.png,0,,,,,,,,,,,,,,,,,,,,,,
,,,,,,2023-07-27_22h07.30.935,vbt_B2_day4,2022.2.4,Linux armv81,61.03515625,52204,,,,,,down,0,1.0369,,-0.123372266,0.439479476,1,0,0,0,50,50,11,1,mode,images/br_mode.png,images/cb_mode.png,0,,,,,,,,,,,,,,,,,,,,,,
,,,,,,2023-07-27_22h07.30.935,vbt_B2_day4,2022.2.4,Linux armv81,61.03515625,52204,,,,,,down,0,37.9359,,0.10281262,0.246128533,1,0,0,0,51,51,147,1,komisch,images/br_komisch.png,images/cb_komisch.png,1,komisch,,,,,,,,,,,,,,,,,,,,,
,,,,,,2023-07-27_22h07.30.935,vbt_B2_day4,2022.2.4,Linux armv81,61.03515625,52204,,,,,,down,0,0.5553,,0.120456444,0.358700843,1,0,0,0,52,52,118,1,vinger,images/br_vinger.png,images/cb_vinger.png,0,,,,,,,,,,,,,,,,,,,,,,
,,,,,,2023-07-27_22h07.30.935,vbt_B2_day4,2022.2.4,Linux armv81,61.03515625,52204,,,,,,down,0,1.6602,,0.071396878,0.245251439,1,0,0,0,53,53,158,1,innemen,images/br_innemen.png,images/cb_innemen.png,0,,,,,,,,,,,,,,,,,,,,,,
,,,,,,2023-07-27_22h07.30.935,vbt_B2_day4,2022.2.4,Linux armv81,61.03515625,52204,,,,,,down,0,2.292,,0.071396878,0.245251439,1,0,0,0,54,54,94,1,oceaan,images/br_oceaan.png,images/cb_oceaan.png,0,,,,,,,,,,,,,,,,,,,,,,
,,,,,,2023-07-27_22h07.30.935,vbt_B2_day4,2022.2.4,Linux armv81,61.03515625,52204,,,,,,down,0,0.4304,,0.071396878,0.245251439,1,0,0,0,55,55,197,1,spanning,images/br_spanning.png,images/cb_spanning.png,0,,,,,,,,,,,,,,,,,,,,,,
,,,,,,2023-07-27_22h07.30.935,vbt_B2_day4,2022.2.4,Linux armv81,61.03515625,52204,,,,,,down,0,0.0398,,0.071396878,0.245251439,1,0,0,0,56,56,87,1,toeval,images/br_toeval.png,images/cb_toeval.png,0,,,,,,,,,,,,,,,,,,,,,,
,,,,,,2023-07-27_22h07.30.935,vbt_B2_day4,2022.2.4,Linux armv81,61.03515625,52204,,,,,,down,0,0.5748,,0.071396878,0.245251439,1,0,0,0,57,57,16,1,ziek,images/br_ziek.png,images/cb_ziek.png,0,,,,,,,,,,,,,,,,,,,,,,
,,,,,,2023-07-27_22h07.30.935,vbt_B2_day4,2022.2.4,Linux armv81,61.03515625,52204,,,,,,down,0,0.1366,,0.071396878,0.245251439,1,0,0,0,58,58,38,1,baai,images/br_baai.png,images/cb_baai.png,0,,,,,,,,,,,,,,,,,,,,,,
,,,,,,2023-07-27_22h07.30.935,vbt_B2_day4,2022.2.4,Linux armv81,61.03515625,52204,,,,,,down,0,0.9313,,0.071396878,0.245251439,1,0,0,0,59,59,164,1,anarchie,images/br_anarchie.png,images/cb_anarchie.png,0,,,,,,,,,,,,,,,,,,,,,,
,,,,,,2023-07-27_22h07.30.935,vbt_B2_day4,2022.2.4,Linux armv81,61.03515625,52204,,,,,,down,0,0.4579,,0.071396878,0.245251439,1,0,0,0,60,60,6,1,diep,images/br_diep.png,images/cb_diep.png,0,,,,,,,,,,,,,,,,,,,,,,
,,,,,,2023-07-27_22h07.30.935,vbt_B2_day4,2022.2.4,Linux armv81,61.03515625,52204,,,,,,down,0,0.4074,,0.071396878,0.245251439,1,0,0,0,61,61,52,1,wagon,images/br_wagon.png,images/cb_wagon.png,0,,,,,,,,,,,,,,,,,,,,,,
,,,,,,2023-07-27_22h07.30.935,vbt_B2_day4,2022.2.4,Linux armv81,61.03515625,52204,,,,,,down,0,1.413,,0.071396878,0.245251439,1,0,0,0,62,62,56,1,traag,images/br_traag.png,images/cb_traag.png,0,,,,,,,,,,,,,,,,,,,,,,
,,,,,,2023-07-27_22h07.30.935,vbt_B2_day4,2022.2.4,Linux armv81,61.03515625,52204,,,,,,down,0,0.4975,,0.071396878,0.245251439,1,0,0,0,63,63,178,1,huisdier,images/br_huisdier.png,images/cb_huisdier.png,0,,,,,,,,,,,,,,,,,,,,,,
,,,,,,2023-07-27_22h07.30.935,vbt_B2_day4,2022.2.4,Linux armv81,61.03515625,52204,,,,,,down,0,0.043,,0.071396878,0.245251439,1,0,0,0,64,64,96,1,slagen,images/br_slagen.png,images/cb_slagen.png,0,,,,,,,,,,,,,,,,,,,,,,
,,,,,,2023-07-27_22h07.30.935,vbt_B2_day4,2022.2.4,Linux armv81,61.03515625,52204,,,,,,down,0,0.8393,,0.071396878,0.245251439,1,0,0,0,65,65,138,1,akkoord,images/br_akkoord.png,images/cb_akkoord.png,0,,,,,,,,,,,,,,,,,,,,,,
,,,,,,2023-07-27_22h07.30.935,vbt_B2_day4,2022.2.4,Linux armv81,61.03515625,52204,,,,,,down,0,7.6952,,0.067390641,0.259545947,1,0,0,0,66,66,67,1,zwart,images/br_zwart.png,images/cb_zwart.png,1,zwart,,,,,,,,,,,,,,,,,,,,,
,,,,,,2023-07-27_22h07.30.935,vbt_B2_day4,2022.2.4,Linux armv81,61.03515625,52204,,,,,,down,0,0.03,,0.071396878,0.245251439,1,0,0,0,67,67,161,1,attentie,images/br_attentie.png,images/cb_attentie.png,0,,,,,,,,,,,,,,,,,,,,,,
,,,,,,2023-07-27_22h07.30.935,vbt_B2_day4,2022.2.4,Linux armv81,61.03515625,52204,,,,,,down,0,35.7951,,0.071396878,0.245251439,1,0,0,0,68,68,187,1,opkijken,images/br_opkijken.png,images/cb_opkijken.png,1,opkijken,,,,,,,,,,,,,,,,,,,,,
,,,,,,2023-07-27_22h07.30.935,vbt_B2_day4,2022.2.4,Linux armv81,61.03515625,52204,,,,,,down,0,4.1634,,0.071396878,0.245251439,1,0,0,0,69,69,151,1,aanzoek,images/br_aanzoek.png,images/cb_aanzoek.png,0,,,,,,,,,,,,,,,,,,,,,,
,,,,,,2023-07-27_22h07.30.935,vbt_B2_day4,2022.2.4,Linux armv81,61.03515625,52204,,,,,,down,0,1.3742,,0.071396878,0.245251439,1,0,0,0,70,70,173,1,apparaat,images/br_apparaat.png,images/cb_apparaat.png,0,,,,,,,,,,,,,,,,,,,,,,
,,,,,,2023-07-27_22h07.30.935,vbt_B2_day4,2022.2.4,Linux armv81,61.03515625,52204,,,,,,down,0,4.4912,,0.071396878,0.245251439,1,0,0,0,71,71,42,1,bleek,images/br_bleek.png,images/cb_bleek.png,0,,,,,,,,,,,,,,,,,,,,,,
,,,,,,2023-07-27_22h07.30.935,vbt_B2_day4,2022.2.4,Linux armv81,61.03515625,52204,,,,,,down,0,0.9146,,0.071396878,0.245251439,1,0,0,0,72,72,163,1,schuilen,images/br_schuilen.png,images/cb_schuilen.png,0,,,,,,,,,,,,,,,,,,,,,,
,,,,,,2023-07-27_22h07.30.935,vbt_B2_day4,2022.2.4,Linux armv81,61.03515625,52204,,,,,,down,0,0.4294,,0.071396878,0.245251439,1,0,0,0,73,73,192,1,schaamte,images/br_schaamte.png,images/cb_schaamte.png,0,,,,,,,,,,,,,,,,,,,,,,
,,,,,,2023-07-27_22h07.30.935,vbt_B2_day4,2022.2.4,Linux armv81,61.03515625,52204,,,,,,down,0,8.393,,0.19166672,0.253923955,1,0,0,0,74,74,24,1,jurk,images/br_jurk.png,images/cb_jurk.png,1,jurk,,,,,,,,,,,,,,,,,,,,,
,,,,,,2023-07-27_22h07.30.935,vbt_B2_day4,2022.2.4,Linux armv81,61.03515625,52204,,,,,,down,0,0.4776,,0.171318168,0.295383866,1,0,0,0,75,75,21,1,mist,images/br_mist.png,images/cb_mist.png,0,,,,,,,,,,,,,,,,,,,,,,
,,,,,,2023-07-27_22h07.30.935,vbt_B2_day4,2022.2.4,Linux armv81,61.03515625,52204,,,,,,down,0,1.2155,,0.171318168,0.295383866,1,0,0,0,76,76,60,1,jasje,images/br_jasje.png,images/cb_jasje.png,0,,,,,,,,,,,,,,,,,,,,,,
,,,,,,2023-07-27_22h07.30.935,vbt_B2_day4,2022.2.4,Linux armv81,61.03515625,52204,,,,,,down,0,3.0516,,0.171318168,0.295383866,1,0,0,0,77,77,113,1,koppen,images/br_koppen.png,images/cb_koppen.png,0,,,,,,,,,,,,,,,,,,,,,,
,,,,,,2023-07-27_22h07.30.935,vbt_B2_day4,2022.2.4,Linux armv81,61.03515625,52204,,,,,,down,0,0.1828,,0.171318168,0.295383866,1,0,0,0,78,78,194,1,driemaal,images/br_driemaal.png,images/cb_driemaal.png,0,,,,,,,,,,,,,,,,,,,,,,
,,,,,,2023-07-27_22h07.30.935,vbt_B2_day4,2022.2.4,Linux armv81,61.03515625,52204,,,,,,down,0,0.3694,,0.207868637,0.322421258,1,0,0,0,79,79,58,1,tekst,images/br_tekst.png,images/cb_tekst.png,0,,,,,,,,,,,,,,,,,,,,,,
,,,,,,2023-07-27_22h07.30.935,vbt_B2_day4,2022.2.4,Linux armv81,61.03515625,52204,,,,,,down,0,0.5121,,0.207868637,0.322421258,1,0,0,0,80,80,36,1,vuur,images/br_vuur.png,images/cb_vuur.png,0,,,,,,,,,,,,,,,,,,,,,,
,,,,,,2023-07-27_22h07.30.935,vbt_B2_day4,2022.2.4,Linux armv81,61.03515625,52204,,,,,,down,0,0.2663,,0.207868637,0.322421258,1,0,0,0,81,81,88,1,boeien,images/br_boeien.png,images/cb_boeien.png,0,,,,,,,,,,,,,,,,,,,,,,
,,,,,,2023-07-27_22h07.30.935,vbt_B2_day4,2022.2.4,Linux armv81,61.03515625,52204,,,,,,down,0,0.2894,,0.207868637,0.322421258,1,0,0,0,82,82,28,1,stal,images/br_stal.png,images/cb_stal.png,0,,,,,,,,,,,,,,,,,,,,,,
,,,,,,2023-07-27_22h07.30.935,vbt_B2_day4,2022.2.4,Linux armv81,61.03515625,52204,,,,,,down,0,0.1659,,0.207868637,0.322421258,1,0,0,0,83,83,43,1,klauw,images/br_klauw.png,images/cb_klauw.png,0,,,,,,,,,,,,,,,,,,,,,,
,,,,,,2023-07-27_22h07.30.935,vbt_B2_day4,2022.2.4,Linux armv81,61.03515625,52204,,,,,,down,0,0.0617,,0.207868637,0.322421258,1,0,0,0,84,84,34,1,vorm,images/br_vorm.png,images/cb_vorm.png,0,,,,,,,,,,,,,,,,,,,,,,
,,,,,,2023-07-27_22h07.30.935,vbt_B2_day4,2022.2.4,Linux armv81,61.03515625,52204,,,,,,down,0,0.2009,,0.207868637,0.322421258,1,0,0,0,85,85,112,1,lukken,images/br_lukken.png,images/cb_lukken.png,0,,,,,,,,,,,,,,,,,,,,,,
,,,,,,2023-07-27_22h07.30.935,vbt_B2_day4,2022.2.4,Linux armv81,61.03515625,52204,,,,,,down,0,0.3182,,0.207868637,0.322421258,1,0,0,0,86,86,9,1,hier,images/br_hier.png,images/cb_hier.png,0,,,,,,,,,,,,,,,,,,,,,,
,,,,,,2023-07-27_22h07.30.935,vbt_B2_day4,2022.2.4,Linux armv81,61.03515625,52204,,,,,,down,0,0.7272,,0.207868637,0.322421258,1,0,0,0,87,87,84,1,lokken,images/br_lokken.png,images/cb_lokken.png,0,,,,,,,,,,,,,,,,,,,,,,
,,,,,,2023-07-27_22h07.30.935,vbt_B2_day4,2022.2.4,Linux armv81,61.03515625,52204,,,,,,down,0,0.3287,,0.207868637,0.322421258,1,0,0,0,88,88,99,1,koffie,images/br_koffie.png,images/cb_koffie.png,0,,,,,,,,,,,,,,,,,,,,,,
,,,,,,2023-07-27_22h07.30.935,vbt_B2_day4,2022.2.4,Linux armv81,61.03515625,52204,,,,,,down,0,0.5344,,0.207868637,0.322421258,1,0,0,0,89,89,70,1,ijdel,images/br_ijdel.png,images/cb_ijdel.png,0,,,,,,,,,,,,,,,,,,,,,,
,,,,,,2023-07-27_22h07.30.935,vbt_B2_day4,2022.2.4,Linux armv81,61.03515625,52204,,,,,,down,0,0.7711,,0.207868637,0.322421258,1,0,0,0,90,90,116,1,besmet,images/br_besmet.png,images/cb_besmet.png,0,,,,,,,,,,,,,,,,,,,,,,
,,,,,,2023-07-27_22h07.30.935,vbt_B2_day4,2022.2.4,Linux armv81,61.03515625,52204,,,,,,down,0,9.4873,,0.196204665,0.332385596,1,0,0,0,91,91,25,1,plek,images/br_plek.png,images/cb_plek.png,1,plek,,,,,,,,,,,,,,,,,,,,,
,,,,,,2023-07-27_22h07.30.935,vbt_B2_day4,2022.2.4,Linux armv81,61.03515625,52204,,,,,,down,0,0.0031,,0.207868637,0.322421258,1,0,0,0,92,92,32,1,palm,images/br_palm.png,images/cb_palm.png,0,,,,,,,,,,,,,,,,,,,,,,
,,,,,,2023-07-27_22h07.30.935,vbt_B2_day4,2022.2.4,Linux armv81,61.03515625,52204,,,,,,down,0,0.2361,,0.207868637,0.322421258,1,0,0,0,93,93,100,1,geduld,images/br_geduld.png,images/cb_geduld.png,0,,,,,,,,,,,,,,,,,,,,,,
,,,,,,2023-07-27_22h07.30.935,vbt_B2_day4,2022.2.4,Linux armv81,61.03515625,52204,,,,,,down,0,0.0425,,0.207868637,0.322421258,1,0,0,0,94,94,111,1,ticket,images/br_ticket.png,images/cb_ticket.png,0,,,,,,,,,,,,,,,,,,,,,,
,,,,,,2023-07-27_22h07.30.935,vbt_B2_day4,2022.2.4,Linux armv81,61.03515625,52204,,,,,,down,0,0.4194,,0.207868637,0.322421258,1,0,0,0,95,95,122,1,waarvan,images/br_waarvan.png,images/cb_waarvan.png,0,,,,,,,,,,,,,,,,,,,,,,
,,,,,,2023-07-27_22h07.30.935,vbt_B2_day4,2022.2.4,Linux armv81,61.03515625,52204,,,,,,down,0,0.1736,,0.207868637,0.322421258,1,0,0,0,96,96,126,1,kasteel,images/br_kasteel.png,images/cb_kasteel.png,0,,,,,,,,,,,,,,,,,,,,,,
,,,,,,2023-07-27_22h07.30.935,vbt_B2_day4,2022.2.4,Linux armv81,61.03515625,52204,,,,,,down,0,0.6802,,0.209655114,0.309699753,1,0,0,0,97,97,148,1,smullen,images/br_smullen.png,images/cb_smullen.png,0,,,,,,,,,,,,,,,,,,,,,,
,,,,,,2023-07-27_22h07.30.935,vbt_B2_day4,2022.2.4,Linux armv81,61.03515625,52204,,,,,,down,0,0.2616,,0.209655114,0.309699753,1,0,0,0,98,98,149,1,redding,images/br_redding.png,images/cb_redding.png,0,,,,,,,,,,,,,,,,,,,,,,
,,,,,,2023-07-27_22h07.30.935,vbt_B2_day4,2022.2.4,Linux armv81,61.03515625,52204,,,,,,down,0,0.1319,,0.209655114,0.309699753,1,0,0,0,99,99,89,1,slapen,images/br_slapen.png,images/cb_slapen.png,0,,,,,,,,,,,,,,,,,,,,,,
,,,,,,2023-07-27_22h07.30.935,vbt_B2_day4,2022.2.4,Linux armv81,61.03515625,52204,,,,,,down,0,1.5504,,0.209655114,0.309699753,1,0,0,0,100,100,136,1,waarbij,images/br_waarbij.png,images/cb_waarbij.png,0,,,,,,,,,,,,,,,,,,,,,,
,,,,,,2023-07-27_22h07.30.935,vbt_B2_day4,2022.2.4,Linux armv81,61.03515625,52204,,,,,,down,0,0.2007,,0.209655114,0.309699753,1,0,0,0,101,101,101,1,staren,images/br_staren.png,images/cb_staren.png,0,,,,,,,,,,,,,,,,,,,,,,
,,,,,,2023-07-27_22h07.30.935,vbt_B2_day4,2022.2.4,Linux armv81,61.03515625,52204,,,,,,down,0,0.1,,0.209655114,0.309699753,1,0,0,0,102,102,61,1,groen,images/br_groen.png,images/cb_groen.png,0,,,,,,,,,,,,,,,,,,,,,,
,,,,,,2023-07-27_22h07.30.935,vbt_B2_day4,2022.2.4,Linux armv81,61.03515625,52204,,,,,,down,0,0.3364,,0.209655114,0.309699753,1,0,0,0,103,103,85,1,heilig,images/br_heilig.png,images/cb_heilig.png,0,,,,,,,,,,,,,,,,,,,,,,
,,,,,,2023-07-27_22h07.30.935,vbt_B2_day4,2022.2.4,Linux armv81,61.03515625,52204,,,,,,down,0,0.2211,,0.209655114,0.309699753,1,0,0,0,104,104,198,1,bedoelen,images/br_bedoelen.png,images/cb_bedoelen.png,0,,,,,,,,,,,,,,,,,,,,,,
,,,,,,2023-07-27_22h07.30.935,vbt_B2_day4,2022.2.4,Linux armv81,61.03515625,52204,,,,,,down,0,6.1242,,0.209655114,0.309699753,1,0,0,0,105,105,105,1,wijlen,images/br_wijlen.png,images/cb_wijlen.png,1,wijlen,,,,,,,,,,,,,,,,,,,,,
,,,,,,2023-07-27_22h07.30.935,vbt_B2_day4,2022.2.4,Linux armv81,61.03515625,52204,,,,,,down,0,2.1054,,0.209655114,0.309699753,1,0,0,0,106,106,195,1,middelen,images/br_middelen.png,images/cb_middelen.png,0,,,,,,,,,,,,,,,,,,,,,,
,,,,,,2023-07-27_22h07.30.935,vbt_B2_day4,2022.2.4,Linux armv81,61.03515625,52204,,,,,,down,0,0.9305,,0.209655114,0.309699753,1,0,0,0,107,107,31,1,poes,images/br_poes.png,images/cb_poes.png,0,,,,,,,,,,,,,,,,,,,,,,
,,,,,,2023-07-27_22h07.30.935,vbt_B2_day4,2022.2.4,Linux armv81,61.03515625,52204,,,,,,down,0,1.886,,0.209655114,0.309699753,1,0,0,0,108,108,68,1,schat,images/br_schat.png,images/cb_schat.png,0,,,,,,,,,,,,,,,,,,,,,,
,,,,,,2023-07-27_22h07.30.935,vbt_B2_day4,2022.2.4,Linux armv81,61.03515625,52204,,,,,,down,0,0.742,,0.208153079,0.313204609,1,0,0,0,109,109,133,1,seizoen,images/br_seizoen.png,images/cb_seizoen.png,0,,,,,,,,,,,,,,,,,,,,,,
,,,,,,2023-07-27_22h07.30.935,vbt_B2_day4,2022.2.4,Linux armv81,61.03515625,52204,,,,,,down,0,2.1442,,0.208153079,0.313204609,1,0,0,0,110,110,3,1,mand,images/br_mand.png,images/cb_mand.png,0,,,,,,,,,,,,,,,,,,,,,,
,,,,,,2023-07-27_22h07.30.935,vbt_B2_day4,2022.2.4,Linux armv81,61.03515625,52204,,,,,,down,0,0.2661,,0.208153079,0.313204609,1,0,0,0,111,111,57,1,steek,images/br_steek.png,images/cb_steek.png,0,,,,,,,,,,,,,,,,,,,,,,
,,,,,,2023-07-27_22h07.30.935,vbt_B2_day4,2022.2.4,Linux armv81,61.03515625,52204,,,,,,down,0,0.4892,,0.208153079,0.313204609,1,0,0,0,112,112,13,1,kaal,images/br_kaal.png,images/cb_kaal.png,0,,,,,,,,,,,,,,,,,,,,,,
,,,,,,2023-07-27_22h07.30.935,vbt_B2_day4,2022.2.4,Linux armv81,61.03515625,52204,,,,,,down,0,0.3203,,0.208153079,0.313204609,1,0,0,0,113,113,170,1,schatten,images/br_schatten.png,images/cb_schatten.png,0,,,,,,,,,,,,,,,,,,,,,,
,,,,,,2023-07-27_22h07.30.935,vbt_B2_day4,2022.2.4,Linux armv81,61.03515625,52204,,,,,,down,0,0.5314,,0.208153079,0.313204609,1,0,0,0,114,114,168,1,bisschop,images/br_bisschop.png,images/cb_bisschop.png,0,,,,,,,,,,,,,,,,,,,,,,
,,,,,,2023-07-27_22h07.30.935,vbt_B2_day4,2022.2.4,Linux armv81,61.03515625,52204,,,,,,down,0,0.1954,,0.208153079,0.313204609,1,0,0,0,115,115,20,1,site,images/br_site.png,images/cb_site.png,0,,,,,,,,,,,,,,,,,,,,,,
,,,,,,2023-07-27_22h07.30.935,vbt_B2_day4,2022.2.4,Linux armv81,61.03515625,52204,,,,,,down,0,0.2837,,0.208153079,0.313204609,1,0,0,0,116,116,18,1,blik,images/br_blik.png,images/cb_blik.png,0,,,,,,,,,,,,,,,,,,,,,,
,,,,,,2023-07-27_22h07.30.935,vbt_B2_day4,2022.2.4,Linux armv81,61.03515625,52204,,,,,,down,0,0.1696,,0.208153079,0.313204609,1,0,0,0,117,117,78,1,leren,images/br_leren.png,images/cb_leren.png,0,,,,,,,,,,,,,,,,,,,,,,
,,,,,,2023-07-27_22h07.30.935,vbt_B2_day4,2022.2.4,Linux armv81,61.03515625,52204,,,,,,down,0,0.1951,,0.208153079,0.313204609,1,0,0,0,118,118,140,1,blijven,images/br_blijven.png,images/cb_blijven.png,0,,,,,,,,,,,,,,,,,,,,,,
,,,,,,2023-07-27_22h07.30.935,vbt_B2_day4,2022.2.4,Linux armv81,61.03515625,52204,,,,,,down,0,2.6575,,0.208153079,0.313204609,1,0,0,0,119,119,137,1,trekker,images/br_trekker.png,images/cb_trekker.png,0,,,,,,,,,,,,,,,,,,,,,,
,,,,,,2023-07-27_22h07.30.935,vbt_B2_day4,2022.2.4,Linux armv81,61.03515625,52204,,,,,,down,0,0.4174,,0.208153079,0.313204609,1,0,0,0,120,120,59,1,kring,images/br_kring.png,images/cb_kring.png,0,,,,,,,,,,,,,,,,,,,,,,
,,,,,,2023-07-27_22h07.30.935,vbt_B2_day4,2022.2.4,Linux armv81,61.03515625,52204,,,,,,down,0,0.1352,,0.208153079,0.313204609,1,0,0,0,121,121,5,1,blad,images/br_blad.png,images/cb_blad.png,0,,,,,,,,,,,,,,,,,,,,,,
,,,,,,2023-07-27_22h07.30.935,vbt_B2_day4,2022.2.4,Linux armv81,61.03515625,52204,,,,,,down,0,1.9078,,0.208153079,0.313204609,1,0,0,0,122,122,8,1,knie,images/br_knie.png,images/cb_knie.png,0,,,,,,,,,,,,,,,,,,,,,,
,,,,,,2023-07-27_22h07.30.935,vbt_B2_day4,2022.2.4,Linux armv81,61.03515625,52204,,,,,,down,0,4.71,,0.208153079,0.313204609,1,0,0,0,123,123,23,1,zout,images/br_zout.png,images/cb_zout.png,0,,,,,,,,,,,,,,,,,,,,,,
,,,,,,2023-07-27_22h07.30.935,vbt_B2_day4,2022.2.4,Linux armv81,61.03515625,52204,,,,,,down,0,0.299,,0.208153079,0.313204609,1,0,0,0,124,124,141,1,knielen,images/br_knielen.png,images/cb_knielen.png,0,,,,,,,,,,,,,,,,,,,,,,
,,,,,,2023-07-27_22h07.30.935,vbt_B2_day4,2022.2.4,Linux armv81,61.03515625,52204,,,,,,down,0,1.2747,,0.208153079,0.313204609,1,0,0,0,125,125,199,1,beseffen,images/br_beseffen.png,images/cb_beseffen.png,0,,,,,,,,,,,,,,,,,,,,,,
,,,,,,2023-07-27_22h07.30.935,vbt_B2_day4,2022.2.4,Linux armv81,61.03515625,52204,,,,,,down,0,0.4616,,0.208153079,0.313204609,1,0,0,0,126,126,114,1,vullen,images/br_vullen.png,images/cb_vullen.png,0,,,,,,,,,,,,,,,,,,,,,,
,,,,,,2023-07-27_22h07.30.935,vbt_B2_day4,2022.2.4,Linux armv81,61.03515625,52204,,,,,,down,0,0.0429,,0.208153079,0.313204609,1,0,0,0,127,127,79,1,nodig,images/br_nodig.png,images/cb_nodig.png,0,,,,,,,,,,,,,,,,,,,,,,
,,,,,,2023-07-27_22h07.30.935,vbt_B2_day4,2022.2.4,Linux armv81,61.03515625,52204,,,,,,down,0,1.1691,,0.208153079,0.313204609,1,0,0,0,128,128,63,1,flirt,images/br_flirt.png,images/cb_flirt.png,0,,,,,,,,,,,,,,,,,,,,,,
,,,,,,2023-07-27_22h07.30.935,vbt_B2_day4,2022.2.4,Linux armv81,61.03515625,52204,,,,,,down,0,1.6714,,0.208153079,0.313204609,1,0,0,0,129,129,166,1,strikken,images/br_strikken.png,images/cb_strikken.png,0,,,,,,,,,,,,,,,,,,,,,,
,,,,,,2023-07-27_22h07.30.935,vbt_B2_day4,2022.2.4,Linux armv81,61.03515625,52204,,,,,,down,0,1.0359,,0.208153079,0.313204609,1,0,0,0,130,130,156,1,rechten,images/br_rechten.png,images/cb_rechten.png,0,,,,,,,,,,,,,,,,,,,,,,
,,,,,,2023-07-27_22h07.30.935,vbt_B2_day4,2022.2.4,Linux armv81,61.03515625,52204,,,,,,down,0,0.2662,,0.208153079,0.313204609,1,0,0,0,131,131,97,1,loyaal,images/br_loyaal.png,images/cb_loyaal.png,0,,,,,,,,,,,,,,,,,,,,,,
,,,,,,2023-07-27_22h07.30.935,vbt_B2_day4,2022.2.4,Linux armv81,61.03515625,52204,,,,,,down,0,1.0137,,0.208153079,0.313204609,1,0,0,0,132,132,130,1,keihard,images/br_keihard.png,images/cb_keihard.png,0,,,,,,,,,,,,,,,,,,,,,,
,,,,,,2023-07-27_22h07.30.935,vbt_B2_day4,2022.2.4,Linux armv81,61.03515625,52204,,,,,,down,0,36.2768,,0.307508594,0.211384994,1,0,0,0,133,133,145,1,invloed,images/br_invloed.png,images/cb_invloed.png,1,invloed,,,,,,,,,,,,,,,,,,,,,
,,,,,,2023-07-27_22h07.30.935,vbt_B2_day4,2022.2.4,Linux armv81,61.03515625,52204,,,,,,down,0,0.8545,,0.307508594,0.211384994,1,0,0,0,134,134,142,1,snuiven,images/br_snuiven.png,images/cb_snuiven.png,0,,,,,,,,,,,,,,,,,,,,,,
,,,,,,2023-07-27_22h07.30.935,vbt_B2_day4,2022.2.4,Linux armv81,61.03515625,52204,,,,,,down,0,0.3115,,0.307508594,0.211384994,1,0,0,0,135,135,121,1,twijfel,images/br_twijfel.png,images/cb_twijfel.png,0,,,,,,,,,,,,,,,,,,,,,,
,,,,,,2023-07-27_22h07.30.935,vbt_B2_day4,2022.2.4,Linux armv81,61.03515625,52204,,,,,,down,0,1.6273,,0.307508594,0.211384994,1,0,0,0,136,136,80,1,kanjer,images/br_kanjer.png,images/cb_kanjer.png,0,,,,,,,,,,,,,,,,,,,,,,
,,,,,,2023-07-27_22h07.30.935,vbt_B2_day4,2022.2.4,Linux armv81,61.03515625,52204,,,,,,down,0,13.9114,,0.232991018,0.304945717,1,0,0,0,137,137,65,1,parel,images/br_parel.png,images/cb_parel.png,1,parel,,,,,,,,,,,,,,,,,,,,,
,,,,,,2023-07-27_22h07.30.935,vbt_B2_day4,2022.2.4,Linux armv81,61.03515625,52204,,,,,,down,0,2.695,,0.195486016,0.385711848,1,0,0,0,138,138,83,1,mening,images/br_mening.png,images/cb_mening.png,0,,,,,,,,,,,,,,,,,,,,,,
,,,,,,2023-07-27_22h07.30.935,vbt_B2_day4,2022.2.4,Linux armv81,61.03515625,52204,,,,,,down,0,1.9375,,0.195486016,0.385711848,1,0,0,0,139,139,33,1,vlek,images/br_vlek.png,images/cb_vlek.png,0,,,,,,,,,,,,,,,,,,,,,,
,,,,,,2023-07-27_22h07.30.935,vbt_B2_day4,2022.2.4,Linux armv81,61.03515625,52204,,,,,,down,0,3.4419,,0.195486016,0.385711848,1,0,0,0,140,140,54,1,gebit,images/br_gebit.png,images/cb_gebit.png,0,,,,,,,,,,,,,,,,,,,,,,
,,,,,,2023-07-27_22h07.30.935,vbt_B2_day4,2022.2.4,Linux armv81,61.03515625,52204,,,,,,down,0,0.9499,,0.195486016,0.385711848,1,0,0,0,141,141,182,1,bijkomen,images/br_bijkomen.png,images/cb_bijkomen.png,0,,,,,,,,,,,,,,,,,,,,,,
,,,,,,2023-07-27_22h07.30.935,vbt_B2_day4,2022.2.4,Linux armv81,61.03515625,52204,,,,,,down,0,4.1478,,0.195486016,0.385711848,1,0,0,0,142,142,181,1,toegeven,images/br_toegeven.png,images/cb_toegeven.png,0,,,,,,,,,,,,,,,,,,,,,,
,,,,,,2023-07-27_22h07.30.935,vbt_B2_day4,2022.2.4,Linux armv81,61.03515625,52204,,,,,,down,0,0.2011,,0.195486016,0.385711848,1,0,0,0,143,143,49,1,laken,images/br_laken.png,images/cb_laken.png,0,,,,,,,,,,,,,,,,,,,,,,
,,,,,,2023-07-27_22h07.30.935,vbt_B2_day4,2022.2.4,Linux armv81,61.03515625,52204,,,,,,down,0,0.2943,,0.195486016,0.385711848,1,0,0,0,144,144,109,1,totaal,images/br_totaal.png,images/cb_totaal.png,0,,,,,,,,,,,,,,,,,,,,,,
,,,,,,2023-07-27_22h07.30.935,vbt_B2_day4,2022.2.4,Linux armv81,61.03515625,52204,,,,,,down,0,0.7719,,0.195486016,0.385711848,1,0,0,0,145,145,159,1,sufferd,images/br_sufferd.png,images/cb_sufferd.png,0,,,,,,,,,,,,,,,,,,,,,,
,,,,,,2023-07-27_22h07.30.935,vbt_B2_day4,2022.2.4,Linux armv81,61.03515625,52204,,,,,,down,0,0.0501,,0.195486016,0.385711848,1,0,0,0,146,146,40,1,schep,images/br_schep.png,images/cb_schep.png,0,,,,,,,,,,,,,,,,,,,,,,
,,,,,,2023-07-27_22h07.30.935,vbt_B2_day4,2022.2.4,Linux armv81,61.03515625,52204,,,,,,down,0,0.0029,,0.195486016,0.385711848,1,0,0,0,147,147,41,1,maken,images/br_maken.png,images/cb_maken.png,0,,,,,,,,,,,,,,,,,,,,,,
,,,,,,2023-07-27_22h07.30.935,vbt_B2_day4,2022.2.4,Linux armv81,61.03515625,52204,,,,,,down,0,20.6782,,0.184516861,0.392124811,1,0,0,0,148,148,144,1,eetlust,images/br_eetlust.png,images/cb_eetlust.png,1,eetlust,,,,,,,,,,,,,,,,,,,,,
,,,,,,2023-07-27_22h07.30.935,vbt_B2_day4,2022.2.4,Linux armv81,61.03515625,52204,,,,,,down,0,0.1615,,0.195486016,0.385711848,1,0,0,0,149,149,190,1,goedkoop,images/br_goedkoop.png,images/cb_goedkoop.png,0,,,,,,,,,,,,,,,,,,,,,,
,,,,,,2023-07-27_22h07.30.935,vbt_B2_day4,2022.2.4,Linux armv81,61.03515625,52204,,,,,,down,0,0.8554,,0.195486016,0.385711848,1,0,0,0,150,150,150,1,gegeven,images/br_gegeven.png,images/cb_gegeven.png,0,,,,,,,,,,,,,,,,,,,,,,
,,,,,,2023-07-27_22h07.30.935,vbt_B2_day4,2022.2.4,Linux armv81,61.03515625,52204,,,,,,down,0,0.2009,,0.195486016,0.385711848,1,0,0,0,151,151,81,1,dubbel,images/br_dubbel.png,images/cb_dubbel.png,0,,,,,,,,,,,,,,,,,,,,,,
,,,,,,2023-07-27_22h07.30.935,vbt_B2_day4,2022.2.4,Linux armv81,61.03515625,52204,,,,,,down,0,8.2614,,0.195486016,0.385711848,1,0,0,0,152,152,55,1,praat,images/br_praat.png,images/cb_praat.png,0,,,,,,,,,,,,,,,,,,,,,,
,,,,,,2023-07-27_22h07.30.935,vbt_B2_day4,2022.2.4,Linux armv81,61.03515625,52204,,,,,,down,0,0.6835,,0.195486016,0.385711848,1,0,0,0,153,153,62,1,knaap,images/br_knaap.png,images/cb_knaap.png,0,,,,,,,,,,,,,,,,,,,,,,
,,,,,,2023-07-27_22h07.30.935,vbt_B2_day4,2022.2.4,Linux armv81,61.03515625,52204,,,,,,down,0,26.4439,,0.195486016,0.385711848,1,0,0,0,154,154,110,1,zuster,images/br_zuster.png,images/cb_zuster.png,0,,,,,,,,,,,,,,,,,,,,,,
,,,,,,2023-07-27_22h07.30.935,vbt_B2_day4,2022.2.4,Linux armv81,61.03515625,52204,,,,,,down,0,8.5886,,0.195486016,0.385711848,1,0,0,0,155,155,19,1,geit,images/br_geit.png,images/cb_geit.png,0,,,,,,,,,,,,,,,,,,,,,,
,,,,,,2023-07-27_22h07.30.935,vbt_B2_day4,2022.2.4,Linux armv81,61.03515625,52204,,,,,,down,0,3.7603,,0.195486016,0.385711848,1,0,0,0,156,156,2,1,jaar,images/br_jaar.png,images/cb_jaar.png,0,,,,,,,,,,,,,,,,,,,,,,
,,,,,,2023-07-27_22h07.30.935,vbt_B2_day4,2022.2.4,Linux armv81,61.03515625,52204,,,,,,down,0,0.4982,,0.195486016,0.385711848,1,0,0,0,157,157,172,1,weigeren,images/br_weigeren.png,images/cb_weigeren.png,0,,,,,,,,,,,,,,,,,,,,,,
,,,,,,2023-07-27_22h07.30.935,vbt_B2_day4,2022.2.4,Linux armv81,61.03515625,52204,,,,,,down,0,1.214,,0.195486016,0.385711848,1,0,0,0,158,158,92,1,geheim,images/br_geheim.png,images/cb_geheim.png,0,,,,,,,,,,,,,,,,,,,,,,
,,,,,,2023-07-27_22h07.30.935,vbt_B2_day4,2022.2.4,Linux armv81,61.03515625,52204,,,,,,down,0,0.0224,,0.195486016,0.385711848,1,0,0,0,159,159,119,1,liefje,images/br_liefje.png,images/cb_liefje.png,0,,,,,,,,,,,,,,,,,,,,,,
,,,,,,2023-07-27_22h07.30.935,vbt_B2_day4,2022.2.4,Linux armv81,61.03515625,52204,,,,,,down,0,1.4817,,0.195486016,0.385711848,1,0,0,0,160,160,72,1,strak,images/br_strak.png,images/cb_strak.png,0,,,,,,,,,,,,,,,,,,,,,,
,,,,,,2023-07-27_22h07.30.935,vbt_B2_day4,2022.2.4,Linux armv81,61.03515625,52204,,,,,,down,0,11.7764,,0.195486016,0.385711848,1,0,0,0,161,161,73,1,volop,images/br_volop.png,images/cb_volop.png,0,,,,,,,,,,,,,,,,,,,,,,
,,,,,,2023-07-27_22h07.30.935,vbt_B2_day4,2022.2.4,Linux armv81,61.03515625,52204,,,,,,down,0,3.3301,,0.195486016,0.385711848,1,0,0,0,162,162,157,1,uitlaat,images/br_uitlaat.png,images/cb_uitlaat.png,0,,,,,,,,,,,,,,,,,,,,,,
,,,,,,2023-07-27_22h07.30.935,vbt_B2_day4,2022.2.4,Linux armv81,61.03515625,52204,,,,,,down,0,0.0843,,0.195486016,0.385711848,1,0,0,0,163,163,98,1,kreeft,images/br_kreeft.png,images/cb_kreeft.png,0,,,,,,,,,,,,,,,,,,,,,,
,,,,,,2023-07-27_22h07.30.935,vbt_B2_day4,2022.2.4,Linux armv81,61.03515625,52204,,,,,,down,0,0.0529,,0.195486016,0.385711848,1,0,0,0,164,164,120,1,klimmen,images/br_klimmen.png,images/cb_klimmen.png,0,,,,,,,,,,,,,,,,,,,,,,
,,,,,,2023-07-27_22h07.30.935,vbt_B2_day4,2022.2.4,Linux armv81,61.03515625,52204,,,,,,down,0,0.3119,,0.195486016,0.385711848,1,0,0,0,165,165,103,1,joggen,images/br_joggen.png,images/cb_joggen.png,0,,,,,,,,,,,,,,,,,,,,,,
,,,,,,2023-07-27_22h07.30.935,vbt_B2_day4,2022.2.4,Linux armv81,61.03515625,52204,,,,,,down,0,0.9255,,0.195486016,0.385711848,1,0,0,0,166,166,86,1,woning,images/br_woning.png,images/cb_woning.png,0,,,,,,,,,,,,,,,,,,,,,,
,,,,,,2023-07-27_22h07.30.935,vbt_B2_day4,2022.2.4,Linux armv81,61.03515625,52204,,,,,,down,0,0.3145,,0.195486016,0.385711848,1,0,0,0,167,167,127,1,doodmoe,images/br_doodmoe.png,images/cb_doodmoe.png,0,,,,,,,,,,,,,,,,,,,,,,
,,,,,,2023-07-27_22h07.30.935,vbt_B2_day4,2022.2.4,Linux armv81,61.03515625,52204,,,,,,down,0,10.3581,,0.195486016,0.385711848,1,0,0,0,168,168,15,1,soda,images/br_soda.png,images/cb_soda.png,0,,,,,,,,,,,,,,,,,,,,,,
,,,,,,2023-07-27_22h07.30.935,vbt_B2_day4,2022.2.4,Linux armv81,61.03515625,52204,,,,,,down,0,9.3504,,0.184516861,0.392124811,1,0,0,0,169,169,27,1,dans,images/br_dans.png,images/cb_dans.png,1,dans,,,,,,,,,,,,,,,,,,,,,
,,,,,,2023-07-27_22h07.30.935,vbt_B2_day4,2022.2.4,Linux armv81,61.03515625,52204,,,,,,down,0,0.2951,,0.195486016,0.385711848,1,0,0,0,170,170,51,1,samen,images/br_samen.png,images/cb_samen.png,0,,,,,,,,,,,,,,,,,,,,,,
,,,,,,2023-07-27_22h07.30.935,vbt_B2_day4,2022.2.4,Linux armv81,61.03515625,52204,,,,,,down,0,0.1759,,0.195486016,0.385711848,1,0,0,0,171,171,191,1,opheffen,images/br_opheffen.png,images/cb_opheffen.png,0,,,,,,,,,,,,,,,,,,,,,,
,,,,,,2023-07-27_22h07.30.935,vbt_B2_day4,2022.2.4,Linux armv81,61.03515625,52204,,,,,,down,0,0.2577,,0.195486016,0.385711848,1,0,0,0,172,172,153,1,vervoer,images/br_vervoer.png,images/cb_vervoer.png,0,,,,,,,,,,,,,,,,,,,,,,
,,,,,,2023-07-27_22h07.30.935,vbt_B2_day4,2022.2.4,Linux armv81,61.03515625,52204,,,,,,down,0,0.9368,,0.195486016,0.385711848,1,0,0,0,173,173,143,1,hechten,images/br_hechten.png,images/cb_hechten.png,0,,,,,,,,,,,,,,,,,,,,,,
,,,,,,2023-07-27_22h07.30.935,vbt_B2_day4,2022.2.4,Linux armv81,61.03515625,52204,,,,,,down,0,18.6657,,0.195486016,0.385711848,1,0,0,0,174,174,146,1,opkomen,images/br_opkomen.png,images/cb_opkomen.png,1,opkomen,,,,,,,,,,,,,,,,,,,,,
,,,,,,2023-07-27_22h07.30.935,vbt_B2_day4,2022.2.4,Linux armv81,61.03515625,52204,,,,,,down,0,0.8068,,0.195486016,0.385711848,1,0,0,0,175,175,45,1,piste,images/br_piste.png,images/cb_piste.png,0,,,,,,,,,,,,,,,,,,,,,,
,,,,,,2023-07-27_22h07.30.935,vbt_B2_day4,2022.2.4,Linux armv81,61.03515625,52204,,,,,,down,0,0.8569,,0.195486016,0.385711848,1,0,0,0,176,176,47,1,kabel,images/br_kabel.png,images/cb_kabel.png,0,,,,,,,,,,,,,,,,,,,,,,
,,,,,,2023-07-27_22h07.30.935,vbt_B2_day4,2022.2.4,Linux armv81,61.03515625,52204,,,,,,down,0,1.7237,,0.195486016,0.385711848,1,0,0,0,177,177,12,1,kust,images/br_kust.png,images/cb_kust.png,0,,,,,,,,,,,,,,,,,,,,,,
,,,,,,2023-07-27_22h07.30.935,vbt_B2_day4,2022.2.4,Linux armv81,61.03515625,52204,,,,,,down,0,2.8294,,0.184516861,0.392124811,1,0,0,0,178,178,26,1,leuk,images/br_leuk.png,images/cb_leuk.png,1,leuk,,,,,,,,,,,,,,,,,,,,,
,,,,,,2023-07-27_22h07.30.935,vbt_B2_day4,2022.2.4,Linux armv81,61.03515625,52204,,,,,,down,0,9.8065,,0.182153858,0.394960392,1,0,0,0,179,179,104,1,zweven,images/br_zweven.png,images/cb_zweven.png,1,zweven,,,,,,,,,,,,,,,,,,,,,
,,,,,,2023-07-27_22h07.30.935,vbt_B2_day4,2022.2.4,Linux armv81,61.03515625,52204,,,,,,down,0,0.6415,,0.192982538,0.388715999,1,0,0,0,180,180,1,1,zaal,images/br_zaal.png,images/cb_zaal.png,0,,,,,,,,,,,,,,,,,,,,,,
,,,,,,2023-07-27_22h07.30.935,vbt_B2_day4,2022.2.4,Linux armv81,61.03515625,52204,,,,,,down,0,0.135,,0.192982538,0.388715999,1,0,0,0,181,181,167,1,eenhoorn,images/br_eenhoorn.png,images/cb_eenhoorn.png,0,,,,,,,,,,,,,,,,,,,,,,
,,,,,,2023-07-27_22h07.30.935,vbt_B2_day4,2022.2.4,Linux armv81,61.03515625,52204,,,,,,down,0,0.8978,,0.192982538,0.388715999,1,0,0,0,182,182,183,1,getuigen,images/br_getuigen.png,images/cb_getuigen.png,0,,,,,,,,,,,,,,,,,,,,,,
,,,,,,2023-07-27_22h07.30.935,vbt_B2_day4,2022.2.4,Linux armv81,61.03515625,52204,,,,,,down,0,0.1341,,0.192982538,0.388715999,1,0,0,0,183,183,22,1,stof,images/br_stof.png,images/cb_stof.png,0,,,,,,,,,,,,,,,,,,,,,,
,,,,,,2023-07-27_22h07.30.935,vbt_B2_day4,2022.2.4,Linux armv81,61.03515625,52204,,,,,,down,0,3.9873,,0.182153858,0.394960392,1,0,0,0,184,184,66,1,lever,images/br_lever.png,images/cb_lever.png,1,lever,,,,,,,,,,,,,,,,,,,,,
,,,,,,2023-07-27_22h07.30.935,vbt_B2_day4,2022.2.4,Linux armv81,61.03515625,52204,,,,,,down,0,0.0553,,0.192982538,0.388715999,1,0,0,0,185,185,193,1,weeshuis,images/br_weeshuis.png,images/cb_weeshuis.png,0,,,,,,,,,,,,,,,,,,,,,,
,,,,,,2023-07-27_22h07.30.935,vbt_B2_day4,2022.2.4,Linux armv81,61.03515625,52204,,,,,,down,0,18.4115,,0.130755774,0.44903097,1,0,0,0,186,186,185,1,mijnheer,images/br_mijnheer.png,images/cb_mijnheer.png,1,mijnheer,,,,,,,,,,,,,,,,,,,,,
,,,,,,2023-07-27_22h07.30.935,vbt_B2_day4,2022.2.4,Linux armv81,61.03515625,52204,,,,,,down,0,0.0187,,0.138528941,0.446000964,1,0,0,0,187,187,108,1,excuus,images/br_excuus.png,images/cb_excuus.png,0,,,,,,,,,,,,,,,,,,,,,,
,,,,,,2023-07-27_22h07.30.935,vbt_B2_day4,2022.2.4,Linux armv81,61.03515625,52204,,,,,,down,0,0.0169,,0.138528941,0.446000964,1,0,0,0,188,188,171,1,aarzelen,images/br_aarzelen.png,images/cb_aarzelen.png,0,,,,,,,,,,,,,,,,,,,,,,
,,,,,,2023-07-27_22h07.30.935,vbt_B2_day4,2022.2.4,Linux armv81,61.03515625,52204,,,,,,down,0,7.4352,,0.130755774,0.44903097,1,0,0,0,189,189,106,1,zingen,images/br_zingen.png,images/cb_zingen.png,1,zingen,,,,,,,,,,,,,,,,,,,,,
,,,,,,2023-07-27_22h07.30.935,vbt_B2_day4,2022.2.4,Linux armv81,61.03515625,52204,,,,,,down,0,0.6809,,0.138528941,0.446000964,1,0,0,0,190,190,91,1,gezond,images/br_gezond.png,images/cb_gezond.png,0,,,,,,,,,,,,,,,,,,,,,,
,,,,,,2023-07-27_22h07.30.935,vbt_B2_day4,2022.2.4,Linux armv81,61.03515625,52204,,,,,,down,0,0.2016,,0.138528941,0.446000964,1,0,0,0,191,191,30,1,uien,images/br_uien.png,images/cb_uien.png,0,,,,,,,,,,,,,,,,,,,,,,
,,,,,,2023-07-27_22h07.30.935,vbt_B2_day4,2022.2.4,Linux armv81,61.03515625,52204,,,,,,down,0,0.1089,,0.138528941,0.446000964,1,0,0,0,192,192,82,1,muziek,images/br_muziek.png,images/cb_muziek.png,0,,,,,,,,,,,,,,,,,,,,,,
,,,,,,2023-07-27_22h07.30.935,vbt_B2_day4,2022.2.4,Linux armv81,61.03515625,52204,,,,,,down,0,0.5454,,0.138528941,0.446000964,1,0,0,0,193,193,7,1,geld,images/br_geld.png,images/cb_geld.png,0,,,,,,,,,,,,,,,,,,,,,,
,,,,,,2023-07-27_22h07.30.935,vbt_B2_day4,2022.2.4,Linux armv81,61.03515625,52204,,,,,,down,0,0.4667,,0.138528941,0.446000964,1,0,0,0,194,194,17,1,taal,images/br_taal.png,images/cb_taal.png,0,,,,,,,,,,,,,,,,,,,,,,
,,,,,,2023-07-27_22h07.30.935,vbt_B2_day4,2022.2.4,Linux armv81,61.03515625,52204,,,,,,down,0,0.2688,,0.138528941,0.446000964,1,0,0,0,195,195,135,1,gedicht,images/br_gedicht.png,images/cb_gedicht.png,0,,,,,,,,,,,,,,,,,,,,,,
,,,,,,2023-07-27_22h07.30.935,vbt_B2_day4,2022.2.4,Linux armv81,61.03515625,52204,,,,,,down,0,0.7013,,0.138528941,0.446000964,1,0,0,0,196,196,35,1,lust,images/br_lust.png,images/cb_lust.png,0,,,,,,,,,,,,,,,,,,,,,,
,,,,,,2023-07-27_22h07.30.935,vbt_B2_day4,2022.2.4,Linux armv81,61.03515625,52204,,,,,,down,0,0.3203,,0.138528941,0.446000964,1,0,0,0,197,197,75,1,snoep,images/br_snoep.png,images/cb_snoep.png,0,,,,,,,,,,,,,,,,,,,,,,
,,,,,,2023-07-27_22h07.30.935,vbt_B2_day4,2022.2.4,Linux armv81,61.03515625,52204,,,,,,down,0,0.7359,,0.138528941,0.446000964,1,0,0,0,198,198,69,1,waken,images/br_waken.png,images/cb_waken.png,0,,,,,,,,,,,,,,,,,,,,,,
,,,,,,2023-07-27_22h07.30.935,vbt_B2_day4,2022.2.4,Linux armv81,61.03515625,52204,,,,,,down,0,9.4313,,0.130755774,0.44903097,1,0,0,0,199,199,186,1,voorraad,images/br_voorraad.png,images/cb_voorraad.png,1,voorraad,,,,,,,,,,,,,,,,,,,,,
,,,,,,2023-07-27_22h07.30.935,vbt_B2_day4,2022.2.4,Linux armv81,61.03515625,52204,,,,,,,,,,,,,,,,,,,,,,,,,0.138528941,0.446000964,1,0,0,,,,,,,,,,,,,,,,
,,,,,,2023-07-27_22h07.30.935,vbt_B2_day4,2022.2.4,Linux armv81,61.03515625,52204,,,,,,,,,,,,,,,,,,,,,,,,,,,,,,0.138528941,0.446000964,1,0,0,,,,,,,,,,,
,,,,,,2023-07-27_22h07.30.935,vbt_B2_day4,2022.2.4,Linux armv81,61.03515625,52204,,,,,,,,,,,,,,,,,,,,seizoon,images/br_seizoon.png,images/cb_seizoon.png,,seizoon,,,,,,,,,,,0.008394991,0.5,1,0,0,seizoon,0,0,0,33,1
,,,,,,2023-07-27_22h07.30.935,vbt_B2_day4,2022.2.4,Linux armv81,61.03515625,52204,,,,,,,,,,,,,,,,,,,,soda,images/br_soda.png,images/cb_soda.png,,soda,,,,,,,,,,,0.132256899,0.366188422,1,0,0,soda,0,1,1,3,1
,,,,,,2023-07-27_22h07.30.935,vbt_B2_day4,2022.2.4,Linux armv81,61.03515625,52204,,,,,,,,,,,,,,,,,,,,gaaf,images/br_gaaf.png,images/cb_gaaf.png,,gaaf,,,,,,,,,,,0.132256899,0.366188422,1,0,0,gaaf,0,2,2,43,1
,,,,,,2023-07-27_22h07.30.935,vbt_B2_day4,2022.2.4,Linux armv81,61.03515625,52204,,,,,,,,,,,,,,,,,,,,bruin,images/br_bruin.png,images/cb_bruin.png,,bruin,,,,,,,,,,,0.071880559,0.098083172,1,0,0,bruin,0,3,3,45,1
,,,,,,2023-07-27_22h07.30.935,vbt_B2_day4,2022.2.4,Linux armv81,61.03515625,52204,,,,,,,,,,,,,,,,,,,,warel,images/br_warel.png,images/cb_warel.png,,warel,,,,,,,,,,,0.087990018,0.110613554,1,0,0,warel,0,4,4,26,1
,,,,,,2023-07-27_22h07.30.935,vbt_B2_day4,2022.2.4,Linux armv81,61.03515625,52204,,,,,,,,,,,,,,,,,,,,tucket,images/br_tucket.png,images/cb_tucket.png,,sucket,,,,,,,,,,,-0.175372276,0.372383782,1,0,0,sucket,0,5,5,30,1
,,,,,,2023-07-27_22h07.30.935,vbt_B2_day4,2022.2.4,Linux armv81,61.03515625,52204,,,,,,,,,,,,,,,,,,,,wozing,images/br_wozing.png,images/cb_wozing.png,,wozing,,,,,,,,,,,0.297390624,0.156176233,1,0,0,wozing,0,6,6,28,1
,,,,,,2023-07-27_22h07.30.935,vbt_B2_day4,2022.2.4,Linux armv81,61.03515625,52204,,,,,,,,,,,,,,,,,,,,opruimen,images/br_opruimen.png,images/cb_opruimen.png,,opruimen,,,,,,,,,,,0.141747088,0.341953512,1,0,0,opruimen,0,7,7,59,1
,,,,,,2023-07-27_22h07.30.935,vbt_B2_day4,2022.2.4,Linux armv81,61.03515625,52204,,,,,,,,,,,,,,,,,,,,drummer,images/br_drummer.png,images/cb_drummer.png,,drummer,,,,,,,,,,,0.033726135,0.426890906,1,0,0,drummer,0,8,8,53,1
,,,,,,2023-07-27_22h07.30.935,vbt_B2_day4,2022.2.4,Linux armv81,61.03515625,52204,,,,,,,,,,,,,,,,,,,,ezel,images/br_ezel.png,images/cb_ezel.png,,ezel,,,,,,,,,,,0.033726135,0.426890906,1,0,0,ezel,0,9,9,42,1
,,,,,,2023-07-27_22h07.30.935,vbt_B2_day4,2022.2.4,Linux armv81,61.03515625,52204,,,,,,,,,,,,,,,,,,,,dozijn,images/br_dozijn.png,images/cb_dozijn.png,,dozijn,,,,,,,,,,,0.033726135,0.426890906,1,0,0,dozijn,0,10,10,48,1
,,,,,,2023-07-27_22h07.30.935,vbt_B2_day4,2022.2.4,Linux armv81,61.03515625,52204,,,,,,,,,,,,,,,,,,,,sulbon,images/br_sulbon.png,images/cb_sulbon.png,,sulbon,,,,,,,,,,,0.033726135,0.426890906,1,0,0,sulbon,0,11,11,31,1
,,,,,,2023-07-27_22h07.30.935,vbt_B2_day4,2022.2.4,Linux armv81,61.03515625,52204,,,,,,,,,,,,,,,,,,,,pijnlijk,images/br_pijnlijk.png,images/cb_pijnlijk.png,,pijnlijk,,,,,,,,,,,0.033726135,0.426890906,1,0,0,pijnlijk,0,12,12,58,1
,,,,,,2023-07-27_22h07.30.935,vbt_B2_day4,2022.2.4,Linux armv81,61.03515625,52204,,,,,,,,,,,,,,,,,,,,drooien,images/br_drooien.png,images/cb_drooien.png,,drooien,,,,,,,,,,,0.033726135,0.426890906,1,0,0,drooien,0,13,13,32,1
,,,,,,2023-07-27_22h07.30.935,vbt_B2_day4,2022.2.4,Linux armv81,61.03515625,52204,,,,,,,,,,,,,,,,,,,,aanzwaag,images/br_aanzwaag.png,images/cb_aanzwaag.png,,aanzwaag,,,,,,,,,,,0.095044049,0.333621614,1,0,0,aanzwaag,0,14,14,38,1
,,,,,,2023-07-27_22h07.30.935,vbt_B2_day4,2022.2.4,Linux armv81,61.03515625,52204,,,,,,,,,,,,,,,,,,,,schotel,images/br_schotel.png,images/cb_schotel.png,,schotel,,,,,,,,,,,0.097547397,0.314595265,1,0,0,schotel,0,15,15,52,1
,,,,,,2023-07-27_22h07.30.935,vbt_B2_day4,2022.2.4,Linux armv81,61.03515625,52204,,,,,,,,,,,,,,,,,,,,gijf,images/br_gijf.png,images/cb_gijf.png,,gijf,,,,,,,,,,,0.097547397,0.314595265,1,0,0,gijf,0,16,16,23,1
,,,,,,2023-07-27_22h07.30.935,vbt_B2_day4,2022.2.4,Linux armv81,61.03515625,52204,,,,,,,,,,,,,,,,,,,,geheim,images/br_geheim.png,images/cb_geheim.png,,geheim,,,,,,,,,,,0.097547397,0.314595265,1,0,0,geheim,0,17,17,8,1
,,,,,,2023-07-27_22h07.30.935,vbt_B2_day4,2022.2.4,Linux armv81,61.03515625,52204,,,,,,,,,,,,,,,,,,,,gedicht,images/br_gedicht.png,images/cb_gedicht.png,,gedicht,,,,,,,,,,,0.097547397,0.314595265,1,0,0,gedicht,0,18,18,15,1
,,,,,,2023-07-27_22h07.30.935,vbt_B2_day4,2022.2.4,Linux armv81,61.03515625,52204,,,,,,,,,,,,,,,,,,,,bisschap,images/br_bisschap.png,images/cb_bisschap.png,,bisschap,,,,,,,,,,,0.097547397,0.314595265,1,0,0,bisschap,0,19,19,36,1
,,,,,,2023-07-27_22h07.30.935,vbt_B2_day4,2022.2.4,Linux armv81,61.03515625,52204,,,,,,,,,,,,,,,,,,,,lappen,images/br_lappen.png,images/cb_lappen.png,,lappen,,,,,,,,,,,0.097547397,0.314595265,1,0,0,lappen,0,20,20,49,1
,,,,,,2023-07-27_22h07.30.935,vbt_B2_day4,2022.2.4,Linux armv81,61.03515625,52204,,,,,,,,,,,,,,,,,,,,midden,images/br_midden.png,images/cb_midden.png,,midden,,,,,,,,,,,0.033492815,0.435572821,1,0,0,midden,0,21,21,50,1
,,,,,,2023-07-27_22h07.30.935,vbt_B2_day4,2022.2.4,Linux armv81,61.03515625,52204,,,,,,,,,,,,,,,,,,,,kaal,images/br_kaal.png,images/cb_kaal.png,,kaal,,,,,,,,,,,0.033492815,0.435572821,1,0,0,kaal,0,22,22,1,1
,,,,,,2023-07-27_22h07.30.935,vbt_B2_day4,2022.2.4,Linux armv81,61.03515625,52204,,,,,,,,,,,,,,,,,,,,fran,images/br_fran.png,images/cb_fran.png,,fran,,,,,,,,,,,0.027985073,0.430565885,1,0,0,fran,0,23,23,22,1
,,,,,,2023-07-27_22h07.30.935,vbt_B2_day4,2022.2.4,Linux armv81,61.03515625,52204,,,,,,,,,,,,,,,,,,,,zaalrijk,images/br_zaalrijk.png,images/cb_zaalrijk.png,,zaalrijk,,,,,,,,,,,0.027985073,0.430565885,1,0,0,zaalrijk,0,24,24,37,1
,,,,,,2023-07-27_22h07.30.935,vbt_B2_day4,2022.2.4,Linux armv81,61.03515625,52204,,,,,,,,,,,,,,,,,,,,rijp,images/br_rijp.png,images/cb_rijp.png,,rijp,,,,,,,,,,,0.027985073,0.430565885,1,0,0,rijp,0,25,25,2,1
,,,,,,2023-07-27_22h07.30.935,vbt_B2_day4,2022.2.4,Linux armv81,61.03515625,52204,,,,,,,,,,,,,,,,,,,,heengaan,images/br_heengaan.png,images/cb_heengaan.png,,heengaan,,,,,,,,,,,0.027985073,0.430565885,1,0,0,heengaan,0,26,26,19,1
,,,,,,2023-07-27_22h07.30.935,vbt_B2_day4,2022.2.4,Linux armv81,61.03515625,52204,,,,,,,,,,,,,,,,,,,,eerst,images/br_eerst.png,images/cb_eerst.png,,,,,,,,,,,,,0.027985073,0.430565885,1,0,0,,0,27,27,47,1
,,,,,,2023-07-27_22h07.30.935,vbt_B2_day4,2022.2.4,Linux armv81,61.03515625,52204,,,,,,,,,,,,,,,,,,,,geliefd,images/br_geliefd.png,images/cb_geliefd.png,,geliefd,,,,,,,,,,,-0.002735373,0.370931087,1,0,0,geliefd,0,28,28,14,1
,,,,,,2023-07-27_22h07.30.935,vbt_B2_day4,2022.2.4,Linux armv81,61.03515625,52204,,,,,,,,,,,,,,,,,,,,waarop,images/br_waarop.png,images/cb_waarop.png,,waarop,,,,,,,,,,,-0.002735373,0.370931087,1,0,0,waarop,0,29,29,9,1
,,,,,,2023-07-27_22h07.30.935,vbt_B2_day4,2022.2.4,Linux armv81,61.03515625,52204,,,,,,,,,,,,,,,,,,,,strok,images/br_strok.png,images/cb_strok.png,,strok,,,,,,,,,,,-0.002735373,0.370931087,1,0,0,strok,0,30,30,25,1
,,,,,,2023-07-27_22h07.30.935,vbt_B2_day4,2022.2.4,Linux armv81,61.03515625,52204,,,,,,,,,,,,,,,,,,,,paalbaak,images/br_paalbaak.png,images/cb_paalbaak.png,,paalbaak,,,,,,,,,,,-0.002735373,0.370931087,1,0,0,paalbaak,0,31,31,39,1
,,,,,,2023-07-27_22h07.30.935,vbt_B2_day4,2022.2.4,Linux armv81,61.03515625,52204,,,,,,,,,,,,,,,,,,,,praat,images/br_praat.png,images/cb_praat.png,,praat,,,,,,,,,,,-0.002735373,0.370931087,1,0,0,praat,0,32,32,7,1
,,,,,,2023-07-27_22h07.30.935,vbt_B2_day4,2022.2.4,Linux armv81,61.03515625,52204,,,,,,,,,,,,,,,,,,,,noodzaak,images/br_noodzaak.png,images/cb_noodzaak.png,,noodzaak,,,,,,,,,,,-0.002735373,0.370931087,1,0,0,noodzaak,0,33,33,56,1
,,,,,,2023-07-27_22h07.30.935,vbt_B2_day4,2022.2.4,Linux armv81,61.03515625,52204,,,,,,,,,,,,,,,,,,,,snee,images/br_snee.png,images/cb_snee.png,,snee,,,,,,,,,,,-0.002735373,0.370931087,1,0,0,snee,0,34,34,40,1
,,,,,,2023-07-27_22h07.30.935,vbt_B2_day4,2022.2.4,Linux armv81,61.03515625,52204,,,,,,,,,,,,,,,,,,,,wagon,images/br_wagon.png,images/cb_wagon.png,,wagon,,,,,,,,,,,-0.002735373,0.370931087,1,0,0,wagon,0,35,35,4,1
,,,,,,2023-07-27_22h07.30.935,vbt_B2_day4,2022.2.4,Linux armv81,61.03515625,52204,,,,,,,,,,,,,,,,,,,,grappen,images/br_grappen.png,images/cb_grappen.png,,grappen,,,,,,,,,,,-0.002735373,0.370931087,1,0,0,grappen,0,36,36,12,1
,,,,,,2023-07-27_22h07.30.935,vbt_B2_day4,2022.2.4,Linux armv81,61.03515625,52204,,,,,,,,,,,,,,,,,,,,dalen,images/br_dalen.png,images/cb_dalen.png,,dalen,,,,,,,,,,,-0.002735373,0.370931087,1,0,0,dalen,0,37,37,46,1
,,,,,,2023-07-27_22h07.30.935,vbt_B2_day4,2022.2.4,Linux armv81,61.03515625,52204,,,,,,,,,,,,,,,,,,,,weigeren,images/br_weigeren.png,images/cb_weigeren.png,,weigeren,,,,,,,,,,,-0.002735373,0.370931087,1,0,0,weigeren,0,38,38,16,1
,,,,,,2023-07-27_22h07.30.935,vbt_B2_day4,2022.2.4,Linux armv81,61.03515625,52204,,,,,,,,,,,,,,,,,,,,gebog,images/br_gebog.png,images/cb_gebog.png,,,,,,,,,,,,,-0.002735373,0.370931087,1,0,0,,0,39,39,24,1
,,,,,,2023-07-27_22h07.30.935,vbt_B2_day4,2022.2.4,Linux armv81,61.03515625,52204,,,,,,,,,,,,,,,,,,,,stemming,images/br_stemming.png,images/cb_stemming.png,,stemming,,,,,,,,,,,-0.002735373,0.370931087,1,0,0,stemming,0,40,40,18,1
,,,,,,2023-07-27_22h07.30.935,vbt_B2_day4,2022.2.4,Linux armv81,61.03515625,52204,,,,,,,,,,,,,,,,,,,,flippen,images/br_flippen.png,images/cb_flippen.png,,plippen,,,,,,,,,,,-0.002735373,0.370931087,1,0,0,plippen,0,41,41,54,1
,,,,,,2023-07-27_22h07.30.935,vbt_B2_day4,2022.2.4,Linux armv81,61.03515625,52204,,,,,,,,,,,,,,,,,,,,haza,images/br_haza.png,images/cb_haza.png,,hana,,,,,,,,,,,-0.002735373,0.370931087,1,0,0,hana,0,42,42,21,1
,,,,,,2023-07-27_22h07.30.935,vbt_B2_day4,2022.2.4,Linux armv81,61.03515625,52204,,,,,,,,,,,,,,,,,,,,oceaan,images/br_oceaan.png,images/cb_oceaan.png,,oceaan,,,,,,,,,,,-0.002735373,0.370931087,1,0,0,oceaan,0,43,43,10,1
,,,,,,2023-07-27_22h07.30.935,vbt_B2_day4,2022.2.4,Linux armv81,61.03515625,52204,,,,,,,,,,,,,,,,,,,,getucht,images/br_getucht.png,images/cb_getucht.png,,getucht,,,,,,,,,,,-0.002735373,0.370931087,1,0,0,getucht,0,44,44,35,1
,,,,,,2023-07-27_22h07.30.935,vbt_B2_day4,2022.2.4,Linux armv81,61.03515625,52204,,,,,,,,,,,,,,,,,,,,pittig,images/br_pittig.png,images/cb_pittig.png,,pittig,,,,,,,,,,,-0.002735373,0.370931087,1,0,0,pittig,0,45,45,51,1
,,,,,,2023-07-27_22h07.30.935,vbt_B2_day4,2022.2.4,Linux armv81,61.03515625,52204,,,,,,,,,,,,,,,,,,,,broodje,images/br_broodje.png,images/cb_broodje.png,,broodje,,,,,,,,,,,-0.002735373,0.370931087,1,0,0,broodje,0,46,46,55,1
,,,,,,2023-07-27_22h07.30.935,vbt_B2_day4,2022.2.4,Linux armv81,61.03515625,52204,,,,,,,,,,,,,,,,,,,,mekst,images/br_mekst.png,images/cb_mekst.png,,mekst,,,,,,,,,,,-0.002735373,0.370931087,1,0,0,mekst,0,47,47,27,1
,,,,,,2023-07-27_22h07.30.935,vbt_B2_day4,2022.2.4,Linux armv81,61.03515625,52204,,,,,,,,,,,,,,,,,,,,steen,images/br_steen.png,images/cb_steen.png,,steen,,,,,,,,,,,-0.002735373,0.370931087,1,0,0,steen,0,48,48,44,1
,,,,,,2023-07-27_22h07.30.935,vbt_B2_day4,2022.2.4,Linux armv81,61.03515625,52204,,,,,,,,,,,,,,,,,,,,schenden,images/br_schenden.png,images/cb_schenden.png,,schenden,,,,,,,,,,,-0.002735373,0.370931087,1,0,0,schenden,0,49,49,57,1
,,,,,,2023-07-27_22h07.30.935,vbt_B2_day4,2022.2.4,Linux armv81,61.03515625,52204,,,,,,,,,,,,,,,,,,,,opkicht,images/br_opkicht.png,images/cb_opkicht.png,,opkicht,,,,,,,,,,,-0.002735373,0.370931087,1,0,0,opkicht,0,50,50,34,1
,,,,,,2023-07-27_22h07.30.935,vbt_B2_day4,2022.2.4,Linux armv81,61.03515625,52204,,,,,,,,,,,,,,,,,,,,zwek,images/br_zwek.png,images/cb_zwek.png,,swek,,,,,,,,,,,-0.002735373,0.370931087,1,0,0,swek,0,51,51,20,1
,,,,,,2023-07-27_22h07.30.935,vbt_B2_day4,2022.2.4,Linux armv81,61.03515625,52204,,,,,,,,,,,,,,,,,,,,gebit,images/br_gebit.png,images/cb_gebit.png,,gebit,,,,,,,,,,,-0.002735373,0.370931087,1,0,0,gebit,0,52,52,6,1
,,,,,,2023-07-27_22h07.30.935,vbt_B2_day4,2022.2.4,Linux armv81,61.03515625,52204,,,,,,,,,,,,,,,,,,,,toevol,images/br_toevol.png,images/cb_toevol.png,,toevol,,,,,,,,,,,-0.002735373,0.370931087,1,0,0,toevol,0,53,53,29,1
,,,,,,2023-07-27_22h07.30.935,vbt_B2_day4,2022.2.4,Linux armv81,61.03515625,52204,,,,,,,,,,,,,,,,,,,,apparaat,images/br_apparaat.png,images/cb_apparaat.png,,apparaat,,,,,,,,,,,-0.013560431,0.390178275,1,0,0,apparaat,0,54,54,17,1
,,,,,,2023-07-27_22h07.30.935,vbt_B2_day4,2022.2.4,Linux armv81,61.03515625,52204,,,,,,,,,,,,,,,,,,,,kust,images/br_kust.png,images/cb_kust.png,,kust,,,,,,,,,,,-0.013560431,0.390178275,1,0,0,kust,0,55,55,0,1
,,,,,,2023-07-27_22h07.30.935,vbt_B2_day4,2022.2.4,Linux armv81,61.03515625,52204,,,,,,,,,,,,,,,,,,,,seizoen,images/br_seizoen.png,images/cb_seizoen.png,,seizoen,,,,,,,,,,,-0.013560431,0.390178275,1,0,0,seizoen,0,56,56,13,1
,,,,,,2023-07-27_22h07.30.935,vbt_B2_day4,2022.2.4,Linux armv81,61.03515625,52204,,,,,,,,,,,,,,,,,,,,gaan,images/br_gaan.png,images/cb_gaan.png,,gaan,,,,,,,,,,,-0.013560431,0.390178275,1,0,0,gaan,0,57,57,41,1
,,,,,,2023-07-27_22h07.30.935,vbt_B2_day4,2022.2.4,Linux armv81,61.03515625,52204,,,,,,,,,,,,,,,,,,,,baron,images/br_baron.png,images/cb_baron.png,,baron,,,,,,,,,,,-0.013560431,0.390178275,1,0,0,baron,0,58,58,5,1
,,,,,,2023-07-27_22h07.30.935,vbt_B2_day4,2022.2.4,Linux armv81,61.03515625,52204,,,,,,,,,,,,,,,,,,,,vreten,images/br_vreten.png,images/cb_vreten.png,,vreten,,,,,,,,,,,-0.013560431,0.390178275,1,0,0,vreten,0,59,59,11,1
,,,,,,2023-07-27_22h07.30.935,vbt_B2_day4,2022.2.4,Linux armv81,61.03515625,52204,,,,,,,,,,,,,,,,,,,,,,,,,,,,,,,,,,,,,,,,,,,,,
