welcome_mouse.x,welcome_mouse.y,welcome_mouse.leftButton,welcome_mouse.midButton,welcome_mouse.rightButton,"ID",date,expName,psychopyVersion,OS,frameRate,trainInstr_mouse.x,trainInstr_mouse.y,trainInstr_mouse.leftButton,trainInstr_mouse.midButton,trainInstr_mouse.rightButton,translation_key.keys,translation_key.corr,translation_key.rt,word_rsp.text,trWrd_mouse.x,trWrd_mouse.y,trWrd_mouse.leftButton,trWrd_mouse.midButton,trWrd_mouse.rightButton,train_loop.thisRepN,train_loop.thisTrialN,train_loop.thisN,train_loop.thisIndex,train_loop.ran,nlWrd,brWrd,cbWrd,test,testResp,mouse.x,mouse.y,mouse.leftButton,mouse.midButton,mouse.rightButton,testInstr_mouse.x,testInstr_mouse.y,testInstr_mouse.leftButton,testInstr_mouse.midButton,testInstr_mouse.rightButton,test_mouse.x,test_mouse.y,test_mouse.leftButton,test_mouse.midButton,test_mouse.rightButton,test_response.text,test_loop.thisRepN,test_loop.thisTrialN,test_loop.thisN,test_loop.thisIndex,test_loop.ran
-0.164444444,-0.271111111,1,0,0,00106,2023-11-13_18h48.53.790,vbt_B2_day4,2022.2.4,MacIntel,66.66666667,,,,,,,,,,,,,,,,,,,,,,,,,,,,,,,,,,,,,,,,,,,,,
,,,,,00106,2023-11-13_18h48.53.790,vbt_B2_day4,2022.2.4,MacIntel,66.66666667,-0.164444444,-0.271111111,1,0,0,,,,,,,,,,,,,,,,,,,,,,,,,,,,,,,,,,,,,,,,
,,,,,00106,2023-11-13_18h48.53.790,vbt_B2_day4,2022.2.4,MacIntel,66.66666667,,,,,,down,0,2.631,,-0.164444444,-0.271111111,1,0,0,0,0,0,114,1,vullen,images/br_vullen.png,images/cb_vullen.png,0,,,,,,,,,,,,,,,,,,,,,,
,,,,,00106,2023-11-13_18h48.53.790,vbt_B2_day4,2022.2.4,MacIntel,66.66666667,,,,,,down,0,15.469,,-0.164444444,-0.271111111,1,0,0,0,1,1,21,1,mist,images/br_mist.png,images/cb_mist.png,0,,,,,,,,,,,,,,,,,,,,,,
,,,,,00106,2023-11-13_18h48.53.790,vbt_B2_day4,2022.2.4,MacIntel,66.66666667,,,,,,down,0,7.955,,-0.164444444,-0.271111111,1,0,0,0,2,2,198,1,bedoelen,images/br_bedoelen.png,images/cb_bedoelen.png,0,,,,,,,,,,,,,,,,,,,,,,
,,,,,00106,2023-11-13_18h48.53.790,vbt_B2_day4,2022.2.4,MacIntel,66.66666667,,,,,,down,0,16.984,,-0.164444444,-0.271111111,1,0,0,0,3,3,130,1,keihard,images/br_keihard.png,images/cb_keihard.png,0,,,,,,,,,,,,,,,,,,,,,,
,,,,,00106,2023-11-13_18h48.53.790,vbt_B2_day4,2022.2.4,MacIntel,66.66666667,,,,,,down,0,4.571,,-0.164444444,-0.271111111,1,0,0,0,4,4,95,1,vreten,images/br_vreten.png,images/cb_vreten.png,0,,,,,,,,,,,,,,,,,,,,,,
,,,,,00106,2023-11-13_18h48.53.790,vbt_B2_day4,2022.2.4,MacIntel,66.66666667,,,,,,down,0,7.676,,-0.164444444,-0.271111111,1,0,0,0,5,5,148,1,smullen,images/br_smullen.png,images/cb_smullen.png,0,,,,,,,,,,,,,,,,,,,,,,
,,,,,00106,2023-11-13_18h48.53.790,vbt_B2_day4,2022.2.4,MacIntel,66.66666667,,,,,,down,0,7.32,,-0.164444444,-0.271111111,1,0,0,0,6,6,155,1,gerucht,images/br_gerucht.png,images/cb_gerucht.png,0,,,,,,,,,,,,,,,,,,,,,,
,,,,,00106,2023-11-13_18h48.53.790,vbt_B2_day4,2022.2.4,MacIntel,66.66666667,,,,,,down,0,4.524,,-0.164444444,-0.271111111,1,0,0,0,7,7,123,1,hiervan,images/br_hiervan.png,images/cb_hiervan.png,0,,,,,,,,,,,,,,,,,,,,,,
,,,,,00106,2023-11-13_18h48.53.790,vbt_B2_day4,2022.2.4,MacIntel,66.66666667,,,,,,down,0,2.543,,-0.164444444,-0.271111111,1,0,0,0,8,8,74,1,graaf,images/br_graaf.png,images/cb_graaf.png,0,,,,,,,,,,,,,,,,,,,,,,
,,,,,00106,2023-11-13_18h48.53.790,vbt_B2_day4,2022.2.4,MacIntel,66.66666667,,,,,,down,0,9.285,,-0.164444444,-0.271111111,1,0,0,0,9,9,184,1,aandelen,images/br_aandelen.png,images/cb_aandelen.png,1,aandelen,,,,,,,,,,,,,,,,,,,,,
,,,,,00106,2023-11-13_18h48.53.790,vbt_B2_day4,2022.2.4,MacIntel,66.66666667,,,,,,down,0,5.105,,0.177777778,0.074444444,1,0,0,0,10,10,4,1,moes,images/br_moes.png,images/cb_moes.png,0,,,,,,,,,,,,,,,,,,,,,,
,,,,,00106,2023-11-13_18h48.53.790,vbt_B2_day4,2022.2.4,MacIntel,66.66666667,,,,,,down,0,14.121,,0.177777778,0.074444444,1,0,0,0,11,11,192,1,schaamte,images/br_schaamte.png,images/cb_schaamte.png,0,,,,,,,,,,,,,,,,,,,,,,
,,,,,00106,2023-11-13_18h48.53.790,vbt_B2_day4,2022.2.4,MacIntel,66.66666667,,,,,,down,0,3.092,,0.177777778,0.074444444,1,0,0,0,12,12,77,1,woede,images/br_woede.png,images/cb_woede.png,0,,,,,,,,,,,,,,,,,,,,,,
,,,,,00106,2023-11-13_18h48.53.790,vbt_B2_day4,2022.2.4,MacIntel,66.66666667,,,,,,down,0,4.894,,0.177777778,0.074444444,1,0,0,0,13,13,2,1,jaar,images/br_jaar.png,images/cb_jaar.png,0,,,,,,,,,,,,,,,,,,,,,,
,,,,,00106,2023-11-13_18h48.53.790,vbt_B2_day4,2022.2.4,MacIntel,66.66666667,,,,,,down,0,19.91,,0.177777778,0.074444444,1,0,0,0,14,14,152,1,afnemen,images/br_afnemen.png,images/cb_afnemen.png,0,,,,,,,,,,,,,,,,,,,,,,
,,,,,00106,2023-11-13_18h48.53.790,vbt_B2_day4,2022.2.4,MacIntel,66.66666667,,,,,,down,0,28.056,,0.177777778,0.074444444,1,0,0,0,15,15,182,1,bijkomen,images/br_bijkomen.png,images/cb_bijkomen.png,0,,,,,,,,,,,,,,,,,,,,,,
,,,,,00106,2023-11-13_18h48.53.790,vbt_B2_day4,2022.2.4,MacIntel,66.66666667,,,,,,down,0,11.418,,0.177777778,0.074444444,1,0,0,0,16,16,91,1,gezond,images/br_gezond.png,images/cb_gezond.png,0,,,,,,,,,,,,,,,,,,,,,,
,,,,,00106,2023-11-13_18h48.53.790,vbt_B2_day4,2022.2.4,MacIntel,66.66666667,,,,,,down,0,3.893,,0.177777778,0.074444444,1,0,0,0,17,17,132,1,grappen,images/br_grappen.png,images/cb_grappen.png,0,,,,,,,,,,,,,,,,,,,,,,
,,,,,00106,2023-11-13_18h48.53.790,vbt_B2_day4,2022.2.4,MacIntel,66.66666667,,,,,,down,0,1.142,,0.177777778,0.074444444,1,0,0,0,18,18,87,1,toeval,images/br_toeval.png,images/cb_toeval.png,0,,,,,,,,,,,,,,,,,,,,,,
,,,,,00106,2023-11-13_18h48.53.790,vbt_B2_day4,2022.2.4,MacIntel,66.66666667,,,,,,down,0,0.465,,0.177777778,0.074444444,1,0,0,0,19,19,29,1,baas,images/br_baas.png,images/cb_baas.png,0,,,,,,,,,,,,,,,,,,,,,,
,,,,,00106,2023-11-13_18h48.53.790,vbt_B2_day4,2022.2.4,MacIntel,66.66666667,,,,,,down,0,1.683,,0.177777778,0.074444444,1,0,0,0,20,20,19,1,geit,images/br_geit.png,images/cb_geit.png,0,,,,,,,,,,,,,,,,,,,,,,
,,,,,00106,2023-11-13_18h48.53.790,vbt_B2_day4,2022.2.4,MacIntel,66.66666667,,,,,,down,0,9.268,,0.177777778,0.074444444,1,0,0,0,21,21,30,1,uien,images/br_uien.png,images/cb_uien.png,0,,,,,,,,,,,,,,,,,,,,,,
,,,,,00106,2023-11-13_18h48.53.790,vbt_B2_day4,2022.2.4,MacIntel,66.66666667,,,,,,down,0,1.219,,0.177777778,0.074444444,1,0,0,0,22,22,62,1,knaap,images/br_knaap.png,images/cb_knaap.png,0,,,,,,,,,,,,,,,,,,,,,,
,,,,,00106,2023-11-13_18h48.53.790,vbt_B2_day4,2022.2.4,MacIntel,66.66666667,,,,,,down,0,2.443,,0.177777778,0.074444444,1,0,0,0,23,23,5,1,blad,images/br_blad.png,images/cb_blad.png,0,,,,,,,,,,,,,,,,,,,,,,
,,,,,00106,2023-11-13_18h48.53.790,vbt_B2_day4,2022.2.4,MacIntel,66.66666667,,,,,,down,0,8.809,,0.177777778,0.074444444,1,0,0,0,24,24,170,1,schatten,images/br_schatten.png,images/cb_schatten.png,0,,,,,,,,,,,,,,,,,,,,,,
,,,,,00106,2023-11-13_18h48.53.790,vbt_B2_day4,2022.2.4,MacIntel,66.66666667,,,,,,down,0,56.221,,0.205555556,-0.252222222,1,0,0,0,25,25,160,1,daarheen,images/br_daarheen.png,images/cb_daarheen.png,0,,,,,,,,,,,,,,,,,,,,,,
,,,,,00106,2023-11-13_18h48.53.790,vbt_B2_day4,2022.2.4,MacIntel,66.66666667,,,,,,down,0,8.074,,0.304444444,0.063333333,1,0,0,0,26,26,135,1,gedicht,images/br_gedicht.png,images/cb_gedicht.png,0,,,,,,,,,,,,,,,,,,,,,,
,,,,,00106,2023-11-13_18h48.53.790,vbt_B2_day4,2022.2.4,MacIntel,66.66666667,,,,,,down,0,1.79,,0.304444444,0.063333333,1,0,0,0,27,27,150,1,gegeven,images/br_gegeven.png,images/cb_gegeven.png,0,,,,,,,,,,,,,,,,,,,,,,
,,,,,00106,2023-11-13_18h48.53.790,vbt_B2_day4,2022.2.4,MacIntel,66.66666667,,,,,,down,0,25.041,,0.304444444,0.063333333,1,0,0,0,28,28,82,1,muziek,images/br_muziek.png,images/cb_muziek.png,0,,,,,,,,,,,,,,,,,,,,,,
,,,,,00106,2023-11-13_18h48.53.790,vbt_B2_day4,2022.2.4,MacIntel,66.66666667,,,,,,down,0,3.135,,0.394444444,0.104444444,1,0,0,0,29,29,173,1,apparaat,images/br_apparaat.png,images/cb_apparaat.png,0,,,,,,,,,,,,,,,,,,,,,,
,,,,,00106,2023-11-13_18h48.53.790,vbt_B2_day4,2022.2.4,MacIntel,66.66666667,,,,,,down,0,5.769,,0.394444444,0.104444444,1,0,0,0,30,30,118,1,vinger,images/br_vinger.png,images/cb_vinger.png,0,,,,,,,,,,,,,,,,,,,,,,
,,,,,00106,2023-11-13_18h48.53.790,vbt_B2_day4,2022.2.4,MacIntel,66.66666667,,,,,,down,0,1.992,,0.394444444,0.104444444,1,0,0,0,31,31,40,1,schep,images/br_schep.png,images/cb_schep.png,0,,,,,,,,,,,,,,,,,,,,,,
,,,,,00106,2023-11-13_18h48.53.790,vbt_B2_day4,2022.2.4,MacIntel,66.66666667,,,,,,down,0,47.311,,0.394444444,0.104444444,1,0,0,0,32,32,189,1,aanraden,images/br_aanraden.png,images/cb_aanraden.png,0,,,,,,,,,,,,,,,,,,,,,,
,,,,,00106,2023-11-13_18h48.53.790,vbt_B2_day4,2022.2.4,MacIntel,66.66666667,,,,,,down,0,8.34,,0.394444444,0.104444444,1,0,0,0,33,33,119,1,liefje,images/br_liefje.png,images/cb_liefje.png,0,,,,,,,,,,,,,,,,,,,,,,
,,,,,00106,2023-11-13_18h48.53.790,vbt_B2_day4,2022.2.4,MacIntel,66.66666667,,,,,,down,0,1.675,,0.381111111,0.106666667,1,0,0,0,34,34,75,1,snoep,images/br_snoep.png,images/cb_snoep.png,0,,,,,,,,,,,,,,,,,,,,,,
,,,,,00106,2023-11-13_18h48.53.790,vbt_B2_day4,2022.2.4,MacIntel,66.66666667,,,,,,down,0,6.034,,0.41,-0.075555556,1,0,0,0,35,35,22,1,stof,images/br_stof.png,images/cb_stof.png,0,,,,,,,,,,,,,,,,,,,,,,
,,,,,00106,2023-11-13_18h48.53.790,vbt_B2_day4,2022.2.4,MacIntel,66.66666667,,,,,,down,0,3.236,,0.41,-0.075555556,1,0,0,0,36,36,61,1,groen,images/br_groen.png,images/cb_groen.png,0,,,,,,,,,,,,,,,,,,,,,,
,,,,,00106,2023-11-13_18h48.53.790,vbt_B2_day4,2022.2.4,MacIntel,66.66666667,,,,,,down,0,8.936,,0.412222222,-0.067777778,1,0,0,0,37,37,137,1,trekker,images/br_trekker.png,images/cb_trekker.png,0,,,,,,,,,,,,,,,,,,,,,,
,,,,,00106,2023-11-13_18h48.53.790,vbt_B2_day4,2022.2.4,MacIntel,66.66666667,,,,,,down,0,3.769,,0.412222222,-0.067777778,1,0,0,0,38,38,154,1,aflopen,images/br_aflopen.png,images/cb_aflopen.png,0,,,,,,,,,,,,,,,,,,,,,,
,,,,,00106,2023-11-13_18h48.53.790,vbt_B2_day4,2022.2.4,MacIntel,66.66666667,,,,,,down,0,16.226,,0.412222222,-0.067777778,1,0,0,0,39,39,176,1,techniek,images/br_techniek.png,images/cb_techniek.png,0,,,,,,,,,,,,,,,,,,,,,,
,,,,,00106,2023-11-13_18h48.53.790,vbt_B2_day4,2022.2.4,MacIntel,66.66666667,,,,,,down,0,4.755,,0.287777778,-0.098888889,1,0,0,0,40,40,26,1,leuk,images/br_leuk.png,images/cb_leuk.png,1,leuk,,,,,,,,,,,,,,,,,,,,,
,,,,,00106,2023-11-13_18h48.53.790,vbt_B2_day4,2022.2.4,MacIntel,66.66666667,,,,,,down,0,2.171,,0.287777778,-0.098888889,1,0,0,0,41,41,7,1,geld,images/br_geld.png,images/cb_geld.png,0,,,,,,,,,,,,,,,,,,,,,,
,,,,,00106,2023-11-13_18h48.53.790,vbt_B2_day4,2022.2.4,MacIntel,66.66666667,,,,,,down,0,5.027,,0.287777778,-0.098888889,1,0,0,0,42,42,100,1,geduld,images/br_geduld.png,images/cb_geduld.png,0,,,,,,,,,,,,,,,,,,,,,,
,,,,,00106,2023-11-13_18h48.53.790,vbt_B2_day4,2022.2.4,MacIntel,66.66666667,,,,,,down,0,4.685,,0.376666667,-0.016666667,1,0,0,0,43,43,109,1,totaal,images/br_totaal.png,images/cb_totaal.png,0,,,,,,,,,,,,,,,,,,,,,,
,,,,,00106,2023-11-13_18h48.53.790,vbt_B2_day4,2022.2.4,MacIntel,66.66666667,,,,,,down,0,1.118,,0.376666667,-0.016666667,1,0,0,0,44,44,45,1,piste,images/br_piste.png,images/cb_piste.png,0,,,,,,,,,,,,,,,,,,,,,,
,,,,,00106,2023-11-13_18h48.53.790,vbt_B2_day4,2022.2.4,MacIntel,66.66666667,,,,,,down,0,32.694,,0.376666667,-0.016666667,1,0,0,0,45,45,3,1,mand,images/br_mand.png,images/cb_mand.png,0,,,,,,,,,,,,,,,,,,,,,,
,,,,,00106,2023-11-13_18h48.53.790,vbt_B2_day4,2022.2.4,MacIntel,66.66666667,,,,,,down,0,12.169,,0.254444444,-0.046666667,1,0,0,0,46,46,124,1,bloeien,images/br_bloeien.png,images/cb_bloeien.png,0,,,,,,,,,,,,,,,,,,,,,,
,,,,,00106,2023-11-13_18h48.53.790,vbt_B2_day4,2022.2.4,MacIntel,66.66666667,,,,,,down,0,2.625,,0.254444444,-0.046666667,1,0,0,0,47,47,83,1,mening,images/br_mening.png,images/cb_mening.png,0,,,,,,,,,,,,,,,,,,,,,,
,,,,,00106,2023-11-13_18h48.53.790,vbt_B2_day4,2022.2.4,MacIntel,66.66666667,,,,,,down,0,16.3,,0.254444444,-0.046666667,1,0,0,0,48,48,10,1,leek,images/br_leek.png,images/cb_leek.png,0,,,,,,,,,,,,,,,,,,,,,,
,,,,,00106,2023-11-13_18h48.53.790,vbt_B2_day4,2022.2.4,MacIntel,66.66666667,,,,,,down,0,2.935,,0.254444444,-0.046666667,1,0,0,0,49,49,139,1,stiekem,images/br_stiekem.png,images/cb_stiekem.png,0,,,,,,,,,,,,,,,,,,,,,,
,,,,,00106,2023-11-13_18h48.53.790,vbt_B2_day4,2022.2.4,MacIntel,66.66666667,,,,,,down,0,16.857,,0.254444444,-0.046666667,1,0,0,0,50,50,47,1,kabel,images/br_kabel.png,images/cb_kabel.png,0,,,,,,,,,,,,,,,,,,,,,,
,,,,,00106,2023-11-13_18h48.53.790,vbt_B2_day4,2022.2.4,MacIntel,66.66666667,,,,,,down,0,96.223,,0.322222222,-0.118888889,1,0,0,0,51,51,34,1,vorm,images/br_vorm.png,images/cb_vorm.png,0,,,,,,,,,,,,,,,,,,,,,,
,,,,,00106,2023-11-13_18h48.53.790,vbt_B2_day4,2022.2.4,MacIntel,66.66666667,,,,,,down,0,8.191,,0.322222222,-0.118888889,1,0,0,0,52,52,24,1,jurk,images/br_jurk.png,images/cb_jurk.png,1,jurk,,,,,,,,,,,,,,,,,,,,,
,,,,,00106,2023-11-13_18h48.53.790,vbt_B2_day4,2022.2.4,MacIntel,66.66666667,,,,,,down,0,26.058,,0.322222222,-0.118888889,1,0,0,0,53,53,44,1,flits,images/br_flits.png,images/cb_flits.png,0,,,,,,,,,,,,,,,,,,,,,,
,,,,,00106,2023-11-13_18h48.53.790,vbt_B2_day4,2022.2.4,MacIntel,66.66666667,,,,,,down,0,15.477,,0.322222222,-0.118888889,1,0,0,0,54,54,187,1,opkijken,images/br_opkijken.png,images/cb_opkijken.png,1,opkijken,,,,,,,,,,,,,,,,,,,,,
,,,,,00106,2023-11-13_18h48.53.790,vbt_B2_day4,2022.2.4,MacIntel,66.66666667,,,,,,down,0,1.841,,0.322222222,-0.118888889,1,0,0,0,55,55,125,1,aanzien,images/br_aanzien.png,images/cb_aanzien.png,0,,,,,,,,,,,,,,,,,,,,,,
,,,,,00106,2023-11-13_18h48.53.790,vbt_B2_day4,2022.2.4,MacIntel,66.66666667,,,,,,down,0,9.925,,0.323333333,-0.122222222,1,0,0,0,56,56,72,1,strak,images/br_strak.png,images/cb_strak.png,0,,,,,,,,,,,,,,,,,,,,,,
,,,,,00106,2023-11-13_18h48.53.790,vbt_B2_day4,2022.2.4,MacIntel,66.66666667,,,,,,down,0,4.126,,0.323333333,-0.122222222,1,0,0,0,57,57,107,1,maling,images/br_maling.png,images/cb_maling.png,1,maling,,,,,,,,,,,,,,,,,,,,,
,,,,,00106,2023-11-13_18h48.53.790,vbt_B2_day4,2022.2.4,MacIntel,66.66666667,,,,,,down,0,5.492,,0.402222222,-0.088888889,1,0,0,0,58,58,183,1,getuigen,images/br_getuigen.png,images/cb_getuigen.png,0,,,,,,,,,,,,,,,,,,,,,,
,,,,,00106,2023-11-13_18h48.53.790,vbt_B2_day4,2022.2.4,MacIntel,66.66666667,,,,,,down,0,5.877,,0.402222222,-0.088888889,1,0,0,0,59,59,110,1,zuster,images/br_zuster.png,images/cb_zuster.png,0,,,,,,,,,,,,,,,,,,,,,,
,,,,,00106,2023-11-13_18h48.53.790,vbt_B2_day4,2022.2.4,MacIntel,66.66666667,,,,,,down,0,1.894,,0.402222222,-0.088888889,1,0,0,0,60,60,60,1,jasje,images/br_jasje.png,images/cb_jasje.png,0,,,,,,,,,,,,,,,,,,,,,,
,,,,,00106,2023-11-13_18h48.53.790,vbt_B2_day4,2022.2.4,MacIntel,66.66666667,,,,,,down,0,0.758,,0.402222222,-0.088888889,1,0,0,0,61,61,31,1,poes,images/br_poes.png,images/cb_poes.png,0,,,,,,,,,,,,,,,,,,,,,,
,,,,,00106,2023-11-13_18h48.53.790,vbt_B2_day4,2022.2.4,MacIntel,66.66666667,,,,,,down,0,21.826,,0.402222222,-0.088888889,1,0,0,0,62,62,134,1,geliefd,images/br_geliefd.png,images/cb_geliefd.png,0,,,,,,,,,,,,,,,,,,,,,,
,,,,,00106,2023-11-13_18h48.53.790,vbt_B2_day4,2022.2.4,MacIntel,66.66666667,,,,,,down,0,5.409,,0.402222222,-0.088888889,1,0,0,0,63,63,149,1,redding,images/br_redding.png,images/cb_redding.png,0,,,,,,,,,,,,,,,,,,,,,,
,,,,,00106,2023-11-13_18h48.53.790,vbt_B2_day4,2022.2.4,MacIntel,66.66666667,,,,,,down,0,1.21,,0.402222222,-0.088888889,1,0,0,0,64,64,191,1,opheffen,images/br_opheffen.png,images/cb_opheffen.png,0,,,,,,,,,,,,,,,,,,,,,,
,,,,,00106,2023-11-13_18h48.53.790,vbt_B2_day4,2022.2.4,MacIntel,66.66666667,,,,,,down,0,1.585,,0.402222222,-0.088888889,1,0,0,0,65,65,141,1,knielen,images/br_knielen.png,images/cb_knielen.png,0,,,,,,,,,,,,,,,,,,,,,,
,,,,,00106,2023-11-13_18h48.53.790,vbt_B2_day4,2022.2.4,MacIntel,66.66666667,,,,,,down,0,1.876,,0.402222222,-0.088888889,1,0,0,0,66,66,156,1,rechten,images/br_rechten.png,images/cb_rechten.png,0,,,,,,,,,,,,,,,,,,,,,,
,,,,,00106,2023-11-13_18h48.53.790,vbt_B2_day4,2022.2.4,MacIntel,66.66666667,,,,,,down,0,1.811,,0.402222222,-0.088888889,1,0,0,0,67,67,102,1,legaal,images/br_legaal.png,images/cb_legaal.png,0,,,,,,,,,,,,,,,,,,,,,,
,,,,,00106,2023-11-13_18h48.53.790,vbt_B2_day4,2022.2.4,MacIntel,66.66666667,,,,,,down,0,1.643,,0.408888889,-0.084444444,1,0,0,0,68,68,59,1,kring,images/br_kring.png,images/cb_kring.png,0,,,,,,,,,,,,,,,,,,,,,,
,,,,,00106,2023-11-13_18h48.53.790,vbt_B2_day4,2022.2.4,MacIntel,66.66666667,,,,,,down,0,1.285,,0.408888889,-0.084444444,1,0,0,0,69,69,81,1,dubbel,images/br_dubbel.png,images/cb_dubbel.png,0,,,,,,,,,,,,,,,,,,,,,,
,,,,,00106,2023-11-13_18h48.53.790,vbt_B2_day4,2022.2.4,MacIntel,66.66666667,,,,,,down,0,4.872,,0.408888889,-0.084444444,1,0,0,0,70,70,172,1,weigeren,images/br_weigeren.png,images/cb_weigeren.png,0,,,,,,,,,,,,,,,,,,,,,,
,,,,,00106,2023-11-13_18h48.53.790,vbt_B2_day4,2022.2.4,MacIntel,66.66666667,,,,,,down,0,1.7,,0.408888889,-0.084444444,1,0,0,0,71,71,101,1,staren,images/br_staren.png,images/cb_staren.png,0,,,,,,,,,,,,,,,,,,,,,,
,,,,,00106,2023-11-13_18h48.53.790,vbt_B2_day4,2022.2.4,MacIntel,66.66666667,,,,,,down,0,4.369,,0.408888889,-0.084444444,1,0,0,0,72,72,186,1,voorraad,images/br_voorraad.png,images/cb_voorraad.png,1,voorraad,,,,,,,,,,,,,,,,,,,,,
,,,,,00106,2023-11-13_18h48.53.790,vbt_B2_day4,2022.2.4,MacIntel,66.66666667,,,,,,down,0,19.501,,0.408888889,-0.084444444,1,0,0,0,73,73,64,1,wegen,images/br_wegen.png,images/cb_wegen.png,1,wegen,,,,,,,,,,,,,,,,,,,,,
,,,,,00106,2023-11-13_18h48.53.790,vbt_B2_day4,2022.2.4,MacIntel,66.66666667,,,,,,down,0,3.275,,0.408888889,-0.084444444,1,0,0,0,74,74,48,1,steel,images/br_steel.png,images/cb_steel.png,0,,,,,,,,,,,,,,,,,,,,,,
,,,,,00106,2023-11-13_18h48.53.790,vbt_B2_day4,2022.2.4,MacIntel,66.66666667,,,,,,down,0,6.642,,0.408888889,-0.084444444,1,0,0,0,75,75,41,1,maken,images/br_maken.png,images/cb_maken.png,0,,,,,,,,,,,,,,,,,,,,,,
,,,,,00106,2023-11-13_18h48.53.790,vbt_B2_day4,2022.2.4,MacIntel,66.66666667,,,,,,down,0,24.872,,0.408888889,-0.084444444,1,0,0,0,76,76,136,1,waarbij,images/br_waarbij.png,images/cb_waarbij.png,0,,,,,,,,,,,,,,,,,,,,,,
,,,,,00106,2023-11-13_18h48.53.790,vbt_B2_day4,2022.2.4,MacIntel,66.66666667,,,,,,down,0,3.957,,0.408888889,-0.084444444,1,0,0,0,77,77,97,1,loyaal,images/br_loyaal.png,images/cb_loyaal.png,0,,,,,,,,,,,,,,,,,,,,,,
,,,,,00106,2023-11-13_18h48.53.790,vbt_B2_day4,2022.2.4,MacIntel,66.66666667,,,,,,down,0,5.942,,0.408888889,-0.084444444,1,0,0,0,78,78,106,1,zingen,images/br_zingen.png,images/cb_zingen.png,1,zingen,,,,,,,,,,,,,,,,,,,,,
,,,,,00106,2023-11-13_18h48.53.790,vbt_B2_day4,2022.2.4,MacIntel,66.66666667,,,,,,down,0,3.525,,0.408888889,-0.084444444,1,0,0,0,79,79,103,1,joggen,images/br_joggen.png,images/cb_joggen.png,0,,,,,,,,,,,,,,,,,,,,,,
,,,,,00106,2023-11-13_18h48.53.790,vbt_B2_day4,2022.2.4,MacIntel,66.66666667,,,,,,down,0,59.357,,0.617777778,0.05,1,0,0,0,80,80,33,1,vlek,images/br_vlek.png,images/cb_vlek.png,0,,,,,,,,,,,,,,,,,,,,,,
,,,,,00106,2023-11-13_18h48.53.790,vbt_B2_day4,2022.2.4,MacIntel,66.66666667,,,,,,down,0,2.873,,0.617777778,0.05,1,0,0,0,81,81,50,1,stoom,images/br_stoom.png,images/cb_stoom.png,0,,,,,,,,,,,,,,,,,,,,,,
,,,,,00106,2023-11-13_18h48.53.790,vbt_B2_day4,2022.2.4,MacIntel,66.66666667,,,,,,down,0,0.586,,0.617777778,0.05,1,0,0,0,82,82,37,1,mijn,images/br_mijn.png,images/cb_mijn.png,0,,,,,,,,,,,,,,,,,,,,,,
,,,,,00106,2023-11-13_18h48.53.790,vbt_B2_day4,2022.2.4,MacIntel,66.66666667,,,,,,down,0,0.708,,0.617777778,0.05,1,0,0,0,83,83,86,1,woning,images/br_woning.png,images/cb_woning.png,0,,,,,,,,,,,,,,,,,,,,,,
,,,,,00106,2023-11-13_18h48.53.790,vbt_B2_day4,2022.2.4,MacIntel,66.66666667,,,,,,down,0,174.502,,0.655555556,-0.206666667,1,0,0,0,84,84,94,1,oceaan,images/br_oceaan.png,images/cb_oceaan.png,0,,,,,,,,,,,,,,,,,,,,,,
,,,,,00106,2023-11-13_18h48.53.790,vbt_B2_day4,2022.2.4,MacIntel,66.66666667,,,,,,down,0,0.768,,0.655555556,-0.206666667,1,0,0,0,85,85,53,1,baron,images/br_baron.png,images/cb_baron.png,0,,,,,,,,,,,,,,,,,,,,,,
,,,,,00106,2023-11-13_18h48.53.790,vbt_B2_day4,2022.2.4,MacIntel,66.66666667,,,,,,down,0,1.802,,0.655555556,-0.206666667,1,0,0,0,86,86,51,1,samen,images/br_samen.png,images/cb_samen.png,0,,,,,,,,,,,,,,,,,,,,,,
,,,,,00106,2023-11-13_18h48.53.790,vbt_B2_day4,2022.2.4,MacIntel,66.66666667,,,,,,down,0,4.102,,0.655555556,-0.206666667,1,0,0,0,87,87,165,1,feestdag,images/br_feestdag.png,images/cb_feestdag.png,0,,,,,,,,,,,,,,,,,,,,,,
,,,,,00106,2023-11-13_18h48.53.790,vbt_B2_day4,2022.2.4,MacIntel,66.66666667,,,,,,down,0,0.252,,0.655555556,-0.206666667,1,0,0,0,88,88,8,1,knie,images/br_knie.png,images/cb_knie.png,0,,,,,,,,,,,,,,,,,,,,,,
,,,,,00106,2023-11-13_18h48.53.790,vbt_B2_day4,2022.2.4,MacIntel,66.66666667,,,,,,down,0,0.117,,0.655555556,-0.206666667,1,0,0,0,89,89,78,1,leren,images/br_leren.png,images/cb_leren.png,0,,,,,,,,,,,,,,,,,,,,,,
,,,,,00106,2023-11-13_18h48.53.790,vbt_B2_day4,2022.2.4,MacIntel,66.66666667,,,,,,down,0,0.959,,0.728888889,0.052222222,1,0,0,0,90,90,120,1,klimmen,images/br_klimmen.png,images/cb_klimmen.png,0,,,,,,,,,,,,,,,,,,,,,,
,,,,,00106,2023-11-13_18h48.53.790,vbt_B2_day4,2022.2.4,MacIntel,66.66666667,,,,,,down,0,0.954,,0.728888889,0.052222222,1,0,0,0,91,91,38,1,baai,images/br_baai.png,images/cb_baai.png,0,,,,,,,,,,,,,,,,,,,,,,
,,,,,00106,2023-11-13_18h48.53.790,vbt_B2_day4,2022.2.4,MacIntel,66.66666667,,,,,,down,0,12.445,,0.727777778,0.05,1,0,0,0,92,92,133,1,seizoen,images/br_seizoen.png,images/cb_seizoen.png,0,,,,,,,,,,,,,,,,,,,,,,
,,,,,00106,2023-11-13_18h48.53.790,vbt_B2_day4,2022.2.4,MacIntel,66.66666667,,,,,,down,0,1.822,,0.727777778,0.05,1,0,0,0,93,93,93,1,waarop,images/br_waarop.png,images/cb_waarop.png,0,,,,,,,,,,,,,,,,,,,,,,
,,,,,00106,2023-11-13_18h48.53.790,vbt_B2_day4,2022.2.4,MacIntel,66.66666667,,,,,,down,0,3.394,,0.727777778,0.05,1,0,0,0,94,94,159,1,sufferd,images/br_sufferd.png,images/cb_sufferd.png,0,,,,,,,,,,,,,,,,,,,,,,
,,,,,00106,2023-11-13_18h48.53.790,vbt_B2_day4,2022.2.4,MacIntel,66.66666667,,,,,,down,0,22.378,,0.727777778,0.05,1,0,0,0,95,95,15,1,soda,images/br_soda.png,images/cb_soda.png,0,,,,,,,,,,,,,,,,,,,,,,
,,,,,00106,2023-11-13_18h48.53.790,vbt_B2_day4,2022.2.4,MacIntel,66.66666667,,,,,,down,0,10.777,,0.727777778,0.05,1,0,0,0,96,96,88,1,boeien,images/br_boeien.png,images/cb_boeien.png,0,,,,,,,,,,,,,,,,,,,,,,
,,,,,00106,2023-11-13_18h48.53.790,vbt_B2_day4,2022.2.4,MacIntel,66.66666667,,,,,,down,0,2.354,,0.727777778,0.05,1,0,0,0,97,97,36,1,vuur,images/br_vuur.png,images/cb_vuur.png,0,,,,,,,,,,,,,,,,,,,,,,
,,,,,00106,2023-11-13_18h48.53.790,vbt_B2_day4,2022.2.4,MacIntel,66.66666667,,,,,,down,0,4.46,,0.727777778,0.05,1,0,0,0,98,98,18,1,blik,images/br_blik.png,images/cb_blik.png,0,,,,,,,,,,,,,,,,,,,,,,
,,,,,00106,2023-11-13_18h48.53.790,vbt_B2_day4,2022.2.4,MacIntel,66.66666667,,,,,,down,0,11.878,,0.73,0.05,1,0,0,0,99,99,143,1,hechten,images/br_hechten.png,images/cb_hechten.png,0,,,,,,,,,,,,,,,,,,,,,,
,,,,,00106,2023-11-13_18h48.53.790,vbt_B2_day4,2022.2.4,MacIntel,66.66666667,,,,,,down,0,8.635,,0.73,0.05,1,0,0,0,100,100,153,1,vervoer,images/br_vervoer.png,images/cb_vervoer.png,0,,,,,,,,,,,,,,,,,,,,,,
,,,,,00106,2023-11-13_18h48.53.790,vbt_B2_day4,2022.2.4,MacIntel,66.66666667,,,,,,down,0,12.829,,0.574444444,0.216666667,1,0,0,0,101,101,117,1,kennis,images/br_kennis.png,images/cb_kennis.png,0,,,,,,,,,,,,,,,,,,,,,,
,,,,,00106,2023-11-13_18h48.53.790,vbt_B2_day4,2022.2.4,MacIntel,66.66666667,,,,,,down,0,27.626,,0.573333333,0.216666667,1,0,0,0,102,102,195,1,middelen,images/br_middelen.png,images/cb_middelen.png,0,,,,,,,,,,,,,,,,,,,,,,
,,,,,00106,2023-11-13_18h48.53.790,vbt_B2_day4,2022.2.4,MacIntel,66.66666667,,,,,,down,0,9.903,,0.573333333,0.216666667,1,0,0,0,103,103,65,1,parel,images/br_parel.png,images/cb_parel.png,1,parel,,,,,,,,,,,,,,,,,,,,,
,,,,,00106,2023-11-13_18h48.53.790,vbt_B2_day4,2022.2.4,MacIntel,66.66666667,,,,,,down,0,4.773,,0.573333333,0.216666667,1,0,0,0,104,104,43,1,klauw,images/br_klauw.png,images/cb_klauw.png,0,,,,,,,,,,,,,,,,,,,,,,
,,,,,00106,2023-11-13_18h48.53.790,vbt_B2_day4,2022.2.4,MacIntel,66.66666667,,,,,,down,0,6.884,,0.573333333,0.216666667,1,0,0,0,105,105,16,1,ziek,images/br_ziek.png,images/cb_ziek.png,0,,,,,,,,,,,,,,,,,,,,,,
,,,,,00106,2023-11-13_18h48.53.790,vbt_B2_day4,2022.2.4,MacIntel,66.66666667,,,,,,down,0,0.5,,0.577777778,0.216666667,1,0,0,0,106,106,121,1,twijfel,images/br_twijfel.png,images/cb_twijfel.png,0,,,,,,,,,,,,,,,,,,,,,,
,,,,,00106,2023-11-13_18h48.53.790,vbt_B2_day4,2022.2.4,MacIntel,66.66666667,,,,,,down,0,1.143,,0.458888889,0.105555556,1,0,0,0,107,107,13,1,kaal,images/br_kaal.png,images/cb_kaal.png,0,,,,,,,,,,,,,,,,,,,,,,
,,,,,00106,2023-11-13_18h48.53.790,vbt_B2_day4,2022.2.4,MacIntel,66.66666667,,,,,,down,0,39.252,,0.458888889,0.105555556,1,0,0,0,108,108,115,1,kleren,images/br_kleren.png,images/cb_kleren.png,0,,,,,,,,,,,,,,,,,,,,,,
,,,,,00106,2023-11-13_18h48.53.790,vbt_B2_day4,2022.2.4,MacIntel,66.66666667,,,,,,down,0,2.633,,0.458888889,0.105555556,1,0,0,0,109,109,96,1,slagen,images/br_slagen.png,images/cb_slagen.png,0,,,,,,,,,,,,,,,,,,,,,,
,,,,,00106,2023-11-13_18h48.53.790,vbt_B2_day4,2022.2.4,MacIntel,66.66666667,,,,,,down,0,5.051,,0.458888889,0.105555556,1,0,0,0,110,110,171,1,aarzelen,images/br_aarzelen.png,images/cb_aarzelen.png,0,,,,,,,,,,,,,,,,,,,,,,
,,,,,00106,2023-11-13_18h48.53.790,vbt_B2_day4,2022.2.4,MacIntel,66.66666667,,,,,,down,0,10.627,,0.458888889,0.105555556,1,0,0,0,111,111,175,1,heengaan,images/br_heengaan.png,images/cb_heengaan.png,0,,,,,,,,,,,,,,,,,,,,,,
,,,,,00106,2023-11-13_18h48.53.790,vbt_B2_day4,2022.2.4,MacIntel,66.66666667,,,,,,down,0,35.428,,0.458888889,0.105555556,1,0,0,0,112,112,108,1,excuus,images/br_excuus.png,images/cb_excuus.png,0,,,,,,,,,,,,,,,,,,,,,,
,,,,,00106,2023-11-13_18h48.53.790,vbt_B2_day4,2022.2.4,MacIntel,66.66666667,,,,,,down,0,13.834,,0.458888889,0.105555556,1,0,0,0,113,113,129,1,verhaal,images/br_verhaal.png,images/cb_verhaal.png,0,,,,,,,,,,,,,,,,,,,,,,
,,,,,00106,2023-11-13_18h48.53.790,vbt_B2_day4,2022.2.4,MacIntel,66.66666667,,,,,,down,0,2.842,,0.458888889,0.105555556,1,0,0,0,114,114,42,1,bleek,images/br_bleek.png,images/cb_bleek.png,0,,,,,,,,,,,,,,,,,,,,,,
,,,,,00106,2023-11-13_18h48.53.790,vbt_B2_day4,2022.2.4,MacIntel,66.66666667,,,,,,down,0,9.583,,0.461111111,0.106666667,1,0,0,0,115,115,179,1,woestijn,images/br_woestijn.png,images/cb_woestijn.png,0,,,,,,,,,,,,,,,,,,,,,,
,,,,,00106,2023-11-13_18h48.53.790,vbt_B2_day4,2022.2.4,MacIntel,66.66666667,,,,,,down,0,4.85,,0.376666667,-0.001111111,1,0,0,0,116,116,90,1,geluid,images/br_geluid.png,images/cb_geluid.png,0,,,,,,,,,,,,,,,,,,,,,,
,,,,,00106,2023-11-13_18h48.53.790,vbt_B2_day4,2022.2.4,MacIntel,66.66666667,,,,,,down,0,8.344,,0.384444444,0,1,0,0,0,117,117,178,1,huisdier,images/br_huisdier.png,images/cb_huisdier.png,0,,,,,,,,,,,,,,,,,,,,,,
,,,,,00106,2023-11-13_18h48.53.790,vbt_B2_day4,2022.2.4,MacIntel,66.66666667,,,,,,down,0,25.144,,0.384444444,0,1,0,0,0,118,118,158,1,innemen,images/br_innemen.png,images/cb_innemen.png,0,,,,,,,,,,,,,,,,,,,,,,
,,,,,00106,2023-11-13_18h48.53.790,vbt_B2_day4,2022.2.4,MacIntel,66.66666667,,,,,,down,0,17.904,,0.384444444,0,1,0,0,0,119,119,161,1,attentie,images/br_attentie.png,images/cb_attentie.png,0,,,,,,,,,,,,,,,,,,,,,,
,,,,,00106,2023-11-13_18h48.53.790,vbt_B2_day4,2022.2.4,MacIntel,66.66666667,,,,,,down,0,9.64,,0.387777778,0.002222222,1,0,0,0,120,120,66,1,lever,images/br_lever.png,images/cb_lever.png,1,lever,,,,,,,,,,,,,,,,,,,,,
,,,,,00106,2023-11-13_18h48.53.790,vbt_B2_day4,2022.2.4,MacIntel,66.66666667,,,,,,down,0,7.083,,0.203333333,0.162222222,1,0,0,0,121,121,166,1,strikken,images/br_strikken.png,images/cb_strikken.png,0,,,,,,,,,,,,,,,,,,,,,,
,,,,,00106,2023-11-13_18h48.53.790,vbt_B2_day4,2022.2.4,MacIntel,66.66666667,,,,,,down,0,51.096,,0.203333333,0.162222222,1,0,0,0,122,122,99,1,koffie,images/br_koffie.png,images/cb_koffie.png,0,,,,,,,,,,,,,,,,,,,,,,
,,,,,00106,2023-11-13_18h48.53.790,vbt_B2_day4,2022.2.4,MacIntel,66.66666667,,,,,,down,0,2.485,,0.203333333,0.162222222,1,0,0,0,123,123,20,1,site,images/br_site.png,images/cb_site.png,0,,,,,,,,,,,,,,,,,,,,,,
,,,,,00106,2023-11-13_18h48.53.790,vbt_B2_day4,2022.2.4,MacIntel,66.66666667,,,,,,down,0,1.255,,0.203333333,0.162222222,1,0,0,0,124,124,9,1,hier,images/br_hier.png,images/cb_hier.png,0,,,,,,,,,,,,,,,,,,,,,,
,,,,,00106,2023-11-13_18h48.53.790,vbt_B2_day4,2022.2.4,MacIntel,66.66666667,,,,,,down,0,0.402,,0.203333333,0.162222222,1,0,0,0,125,125,28,1,stal,images/br_stal.png,images/cb_stal.png,0,,,,,,,,,,,,,,,,,,,,,,
,,,,,00106,2023-11-13_18h48.53.790,vbt_B2_day4,2022.2.4,MacIntel,66.66666667,,,,,,down,0,38.939,,0.203333333,0.162222222,1,0,0,0,126,126,145,1,invloed,images/br_invloed.png,images/cb_invloed.png,1,invloed,,,,,,,,,,,,,,,,,,,,,
,,,,,00106,2023-11-13_18h48.53.790,vbt_B2_day4,2022.2.4,MacIntel,66.66666667,,,,,,down,0,5.975,,0.203333333,0.162222222,1,0,0,0,127,127,126,1,kasteel,images/br_kasteel.png,images/cb_kasteel.png,0,,,,,,,,,,,,,,,,,,,,,,
,,,,,00106,2023-11-13_18h48.53.790,vbt_B2_day4,2022.2.4,MacIntel,66.66666667,,,,,,down,0,1.08,,0.203333333,0.162222222,1,0,0,0,128,128,92,1,geheim,images/br_geheim.png,images/cb_geheim.png,0,,,,,,,,,,,,,,,,,,,,,,
,,,,,00106,2023-11-13_18h48.53.790,vbt_B2_day4,2022.2.4,MacIntel,66.66666667,,,,,,down,0,2.909,,0.203333333,0.162222222,1,0,0,0,129,129,194,1,driemaal,images/br_driemaal.png,images/cb_driemaal.png,0,,,,,,,,,,,,,,,,,,,,,,
,,,,,00106,2023-11-13_18h48.53.790,vbt_B2_day4,2022.2.4,MacIntel,66.66666667,,,,,,down,0,1.316,,0.224444444,0.165555556,1,0,0,0,130,130,55,1,praat,images/br_praat.png,images/cb_praat.png,0,,,,,,,,,,,,,,,,,,,,,,
,,,,,00106,2023-11-13_18h48.53.790,vbt_B2_day4,2022.2.4,MacIntel,66.66666667,,,,,,down,0,1.09,,0.224444444,0.168888889,1,0,0,0,131,131,98,1,kreeft,images/br_kreeft.png,images/cb_kreeft.png,0,,,,,,,,,,,,,,,,,,,,,,
,,,,,00106,2023-11-13_18h48.53.790,vbt_B2_day4,2022.2.4,MacIntel,66.66666667,,,,,,down,0,7.21,,0.224444444,0.168888889,1,0,0,0,132,132,174,1,stemming,images/br_stemming.png,images/cb_stemming.png,0,,,,,,,,,,,,,,,,,,,,,,
,,,,,00106,2023-11-13_18h48.53.790,vbt_B2_day4,2022.2.4,MacIntel,66.66666667,,,,,,down,0,8.284,,0.225555556,0.17,1,0,0,0,133,133,104,1,zweven,images/br_zweven.png,images/cb_zweven.png,1,zweven,,,,,,,,,,,,,,,,,,,,,
,,,,,00106,2023-11-13_18h48.53.790,vbt_B2_day4,2022.2.4,MacIntel,66.66666667,,,,,,down,0,0.806,,0.225555556,0.17,1,0,0,0,134,134,127,1,doodmoe,images/br_doodmoe.png,images/cb_doodmoe.png,0,,,,,,,,,,,,,,,,,,,,,,
,,,,,00106,2023-11-13_18h48.53.790,vbt_B2_day4,2022.2.4,MacIntel,66.66666667,,,,,,down,0,1.959,,0.217777778,0.17,1,0,0,0,135,135,112,1,lukken,images/br_lukken.png,images/cb_lukken.png,0,,,,,,,,,,,,,,,,,,,,,,
,,,,,00106,2023-11-13_18h48.53.790,vbt_B2_day4,2022.2.4,MacIntel,66.66666667,,,,,,down,0,1.005,,0.217777778,0.17,1,0,0,0,136,136,76,1,afval,images/br_afval.png,images/cb_afval.png,0,,,,,,,,,,,,,,,,,,,,,,
,,,,,00106,2023-11-13_18h48.53.790,vbt_B2_day4,2022.2.4,MacIntel,66.66666667,,,,,,down,0,1.167,,0.217777778,0.17,1,0,0,0,137,137,197,1,spanning,images/br_spanning.png,images/cb_spanning.png,0,,,,,,,,,,,,,,,,,,,,,,
,,,,,00106,2023-11-13_18h48.53.790,vbt_B2_day4,2022.2.4,MacIntel,66.66666667,,,,,,down,0,0.674,,0.217777778,0.17,1,0,0,0,138,138,167,1,eenhoorn,images/br_eenhoorn.png,images/cb_eenhoorn.png,0,,,,,,,,,,,,,,,,,,,,,,
,,,,,00106,2023-11-13_18h48.53.790,vbt_B2_day4,2022.2.4,MacIntel,66.66666667,,,,,,down,0,7.755,,0.217777778,0.17,1,0,0,0,139,139,190,1,goedkoop,images/br_goedkoop.png,images/cb_goedkoop.png,0,,,,,,,,,,,,,,,,,,,,,,
,,,,,00106,2023-11-13_18h48.53.790,vbt_B2_day4,2022.2.4,MacIntel,66.66666667,,,,,,down,0,19.538,,0.217777778,0.17,1,0,0,0,140,140,35,1,lust,images/br_lust.png,images/cb_lust.png,0,,,,,,,,,,,,,,,,,,,,,,
,,,,,00106,2023-11-13_18h48.53.790,vbt_B2_day4,2022.2.4,MacIntel,66.66666667,,,,,,down,0,1.77,,0.217777778,0.17,1,0,0,0,141,141,146,1,opkomen,images/br_opkomen.png,images/cb_opkomen.png,1,,,,,,,,,,,,,,,,,,,,,,
,,,,,00106,2023-11-13_18h48.53.790,vbt_B2_day4,2022.2.4,MacIntel,66.66666667,,,,,,down,0,0.019,,0.217777778,0.17,1,0,0,0,142,142,113,1,koppen,images/br_koppen.png,images/cb_koppen.png,0,,,,,,,,,,,,,,,,,,,,,,
,,,,,00106,2023-11-13_18h48.53.790,vbt_B2_day4,2022.2.4,MacIntel,66.66666667,,,,,,down,0,4.826,,0.217777778,0.17,1,0,0,0,143,143,105,1,wijlen,images/br_wijlen.png,images/cb_wijlen.png,1,,,,,,,,,,,,,,,,,,,,,,
,,,,,00106,2023-11-13_18h48.53.790,vbt_B2_day4,2022.2.4,MacIntel,66.66666667,,,,,,down,0,0.934,,0.23,0.17,1,0,0,0,144,144,140,1,blijven,images/br_blijven.png,images/cb_blijven.png,0,,,,,,,,,,,,,,,,,,,,,,
,,,,,00106,2023-11-13_18h48.53.790,vbt_B2_day4,2022.2.4,MacIntel,66.66666667,,,,,,down,0,0.391,,0.23,0.17,1,0,0,0,145,145,69,1,waken,images/br_waken.png,images/cb_waken.png,0,,,,,,,,,,,,,,,,,,,,,,
,,,,,00106,2023-11-13_18h48.53.790,vbt_B2_day4,2022.2.4,MacIntel,66.66666667,,,,,,down,0,0.456,,0.23,0.17,1,0,0,0,146,146,193,1,weeshuis,images/br_weeshuis.png,images/cb_weeshuis.png,0,,,,,,,,,,,,,,,,,,,,,,
,,,,,00106,2023-11-13_18h48.53.790,vbt_B2_day4,2022.2.4,MacIntel,66.66666667,,,,,,down,0,18.545,,0.028888889,-0.29,1,0,0,0,147,147,185,1,mijnheer,images/br_mijnheer.png,images/cb_mijnheer.png,1,mijnheer,,,,,,,,,,,,,,,,,,,,,
,,,,,00106,2023-11-13_18h48.53.790,vbt_B2_day4,2022.2.4,MacIntel,66.66666667,,,,,,down,0,0.857,,0.028888889,-0.29,1,0,0,0,148,148,199,1,beseffen,images/br_beseffen.png,images/cb_beseffen.png,0,,,,,,,,,,,,,,,,,,,,,,
,,,,,00106,2023-11-13_18h48.53.790,vbt_B2_day4,2022.2.4,MacIntel,66.66666667,,,,,,down,0,4.287,,0.028888889,-0.29,1,0,0,0,149,149,144,1,eetlust,images/br_eetlust.png,images/cb_eetlust.png,1,eetlust,,,,,,,,,,,,,,,,,,,,,
,,,,,00106,2023-11-13_18h48.53.790,vbt_B2_day4,2022.2.4,MacIntel,66.66666667,,,,,,down,0,0.449,,0.028888889,-0.29,1,0,0,0,150,150,169,1,oprotten,images/br_oprotten.png,images/cb_oprotten.png,0,,,,,,,,,,,,,,,,,,,,,,
,,,,,00106,2023-11-13_18h48.53.790,vbt_B2_day4,2022.2.4,MacIntel,66.66666667,,,,,,down,0,13.805,,0.028888889,-0.29,1,0,0,0,151,151,116,1,besmet,images/br_besmet.png,images/cb_besmet.png,0,,,,,,,,,,,,,,,,,,,,,,
,,,,,00106,2023-11-13_18h48.53.790,vbt_B2_day4,2022.2.4,MacIntel,66.66666667,,,,,,down,0,3.527,,0.028888889,-0.29,1,0,0,0,152,152,54,1,gebit,images/br_gebit.png,images/cb_gebit.png,0,,,,,,,,,,,,,,,,,,,,,,
,,,,,00106,2023-11-13_18h48.53.790,vbt_B2_day4,2022.2.4,MacIntel,66.66666667,,,,,,down,0,2.2,,0.028888889,-0.29,1,0,0,0,153,153,180,1,openbaar,images/br_openbaar.png,images/cb_openbaar.png,0,,,,,,,,,,,,,,,,,,,,,,
,,,,,00106,2023-11-13_18h48.53.790,vbt_B2_day4,2022.2.4,MacIntel,66.66666667,,,,,,down,0,4.533,,0.025555556,-0.288888889,1,0,0,0,154,154,68,1,schat,images/br_schat.png,images/cb_schat.png,0,,,,,,,,,,,,,,,,,,,,,,
,,,,,00106,2023-11-13_18h48.53.790,vbt_B2_day4,2022.2.4,MacIntel,66.66666667,,,,,,down,0,2.866,,0.025555556,-0.288888889,1,0,0,0,155,155,49,1,laken,images/br_laken.png,images/cb_laken.png,0,,,,,,,,,,,,,,,,,,,,,,
,,,,,00106,2023-11-13_18h48.53.790,vbt_B2_day4,2022.2.4,MacIntel,66.66666667,,,,,,down,0,2.593,,0.025555556,-0.288888889,1,0,0,0,156,156,142,1,snuiven,images/br_snuiven.png,images/cb_snuiven.png,0,,,,,,,,,,,,,,,,,,,,,,
,,,,,00106,2023-11-13_18h48.53.790,vbt_B2_day4,2022.2.4,MacIntel,66.66666667,,,,,,down,0,2.606,,0.025555556,-0.288888889,1,0,0,0,157,157,25,1,plek,images/br_plek.png,images/cb_plek.png,1,plek,,,,,,,,,,,,,,,,,,,,,
,,,,,00106,2023-11-13_18h48.53.790,vbt_B2_day4,2022.2.4,MacIntel,66.66666667,,,,,,down,0,15.894,,0.025555556,-0.288888889,1,0,0,0,158,158,168,1,bisschop,images/br_bisschop.png,images/cb_bisschop.png,0,,,,,,,,,,,,,,,,,,,,,,
,,,,,00106,2023-11-13_18h48.53.790,vbt_B2_day4,2022.2.4,MacIntel,66.66666667,,,,,,down,0,6.749,,0.025555556,-0.288888889,1,0,0,0,159,159,67,1,zwart,images/br_zwart.png,images/cb_zwart.png,1,zwart,,,,,,,,,,,,,,,,,,,,,
,,,,,00106,2023-11-13_18h48.53.790,vbt_B2_day4,2022.2.4,MacIntel,66.66666667,,,,,,down,0,0.051,,0.025555556,-0.288888889,1,0,0,0,160,160,58,1,tekst,images/br_tekst.png,images/cb_tekst.png,0,,,,,,,,,,,,,,,,,,,,,,
,,,,,00106,2023-11-13_18h48.53.790,vbt_B2_day4,2022.2.4,MacIntel,66.66666667,,,,,,down,0,0.182,,0.025555556,-0.288888889,1,0,0,0,161,161,79,1,nodig,images/br_nodig.png,images/cb_nodig.png,0,,,,,,,,,,,,,,,,,,,,,,
,,,,,00106,2023-11-13_18h48.53.790,vbt_B2_day4,2022.2.4,MacIntel,66.66666667,,,,,,down,0,0.875,,0.025555556,-0.288888889,1,0,0,0,162,162,52,1,wagon,images/br_wagon.png,images/cb_wagon.png,0,,,,,,,,,,,,,,,,,,,,,,
,,,,,00106,2023-11-13_18h48.53.790,vbt_B2_day4,2022.2.4,MacIntel,66.66666667,,,,,,down,0,0.619,,0.025555556,-0.288888889,1,0,0,0,163,163,14,1,rijp,images/br_rijp.png,images/cb_rijp.png,0,,,,,,,,,,,,,,,,,,,,,,
,,,,,00106,2023-11-13_18h48.53.790,vbt_B2_day4,2022.2.4,MacIntel,66.66666667,,,,,,down,0,0.402,,0.025555556,-0.288888889,1,0,0,0,164,164,32,1,palm,images/br_palm.png,images/cb_palm.png,0,,,,,,,,,,,,,,,,,,,,,,
,,,,,00106,2023-11-13_18h48.53.790,vbt_B2_day4,2022.2.4,MacIntel,66.66666667,,,,,,down,0,1.356,,0.025555556,-0.288888889,1,0,0,0,165,165,89,1,slapen,images/br_slapen.png,images/cb_slapen.png,0,,,,,,,,,,,,,,,,,,,,,,
,,,,,00106,2023-11-13_18h48.53.790,vbt_B2_day4,2022.2.4,MacIntel,66.66666667,,,,,,down,0,1.359,,0.025555556,-0.288888889,1,0,0,0,166,166,163,1,schuilen,images/br_schuilen.png,images/cb_schuilen.png,0,,,,,,,,,,,,,,,,,,,,,,
,,,,,00106,2023-11-13_18h48.53.790,vbt_B2_day4,2022.2.4,MacIntel,66.66666667,,,,,,down,0,0.333,,0.025555556,-0.288888889,1,0,0,0,167,167,157,1,uitlaat,images/br_uitlaat.png,images/cb_uitlaat.png,0,,,,,,,,,,,,,,,,,,,,,,
,,,,,00106,2023-11-13_18h48.53.790,vbt_B2_day4,2022.2.4,MacIntel,66.66666667,,,,,,down,0,1.456,,0.025555556,-0.288888889,1,0,0,0,168,168,181,1,toegeven,images/br_toegeven.png,images/cb_toegeven.png,0,,,,,,,,,,,,,,,,,,,,,,
,,,,,00106,2023-11-13_18h48.53.790,vbt_B2_day4,2022.2.4,MacIntel,66.66666667,,,,,,down,0,1.743,,-0.048888889,-0.321111111,1,0,0,0,169,169,85,1,heilig,images/br_heilig.png,images/cb_heilig.png,0,,,,,,,,,,,,,,,,,,,,,,
,,,,,00106,2023-11-13_18h48.53.790,vbt_B2_day4,2022.2.4,MacIntel,66.66666667,,,,,,down,0,6.09,,-0.048888889,-0.321111111,1,0,0,0,170,170,84,1,lokken,images/br_lokken.png,images/cb_lokken.png,0,,,,,,,,,,,,,,,,,,,,,,
,,,,,00106,2023-11-13_18h48.53.790,vbt_B2_day4,2022.2.4,MacIntel,66.66666667,,,,,,down,0,8.191,,-0.048888889,-0.321111111,1,0,0,0,171,171,147,1,komisch,images/br_komisch.png,images/cb_komisch.png,1,komisch,,,,,,,,,,,,,,,,,,,,,
,,,,,00106,2023-11-13_18h48.53.790,vbt_B2_day4,2022.2.4,MacIntel,66.66666667,,,,,,down,0,6.04,,-0.048888889,-0.321111111,1,0,0,0,172,172,63,1,flirt,images/br_flirt.png,images/cb_flirt.png,0,,,,,,,,,,,,,,,,,,,,,,
,,,,,00106,2023-11-13_18h48.53.790,vbt_B2_day4,2022.2.4,MacIntel,66.66666667,,,,,,down,0,1.176,,-0.048888889,-0.321111111,1,0,0,0,173,173,164,1,anarchie,images/br_anarchie.png,images/cb_anarchie.png,0,,,,,,,,,,,,,,,,,,,,,,
,,,,,00106,2023-11-13_18h48.53.790,vbt_B2_day4,2022.2.4,MacIntel,66.66666667,,,,,,down,0,6.044,,-0.048888889,-0.321111111,1,0,0,0,174,174,111,1,ticket,images/br_ticket.png,images/cb_ticket.png,0,,,,,,,,,,,,,,,,,,,,,,
,,,,,00106,2023-11-13_18h48.53.790,vbt_B2_day4,2022.2.4,MacIntel,66.66666667,,,,,,down,0,0.002,,-0.048888889,-0.321111111,1,0,0,0,175,175,128,1,prikken,images/br_prikken.png,images/cb_prikken.png,0,,,,,,,,,,,,,,,,,,,,,,
,,,,,00106,2023-11-13_18h48.53.790,vbt_B2_day4,2022.2.4,MacIntel,66.66666667,,,,,,down,0,0.334,,-0.048888889,-0.321111111,1,0,0,0,176,176,162,1,uitdelen,images/br_uitdelen.png,images/cb_uitdelen.png,0,,,,,,,,,,,,,,,,,,,,,,
,,,,,00106,2023-11-13_18h48.53.790,vbt_B2_day4,2022.2.4,MacIntel,66.66666667,,,,,,down,0,5.718,,-0.048888889,-0.321111111,1,0,0,0,177,177,188,1,strekken,images/br_strekken.png,images/cb_strekken.png,0,,,,,,,,,,,,,,,,,,,,,,
,,,,,00106,2023-11-13_18h48.53.790,vbt_B2_day4,2022.2.4,MacIntel,66.66666667,,,,,,down,0,7.768,,-0.043333333,-0.327777778,1,0,0,0,178,178,73,1,volop,images/br_volop.png,images/cb_volop.png,0,,,,,,,,,,,,,,,,,,,,,,
,,,,,00106,2023-11-13_18h48.53.790,vbt_B2_day4,2022.2.4,MacIntel,66.66666667,,,,,,down,0,5.277,,-0.043333333,-0.327777778,1,0,0,0,179,179,71,1,bever,images/br_bever.png,images/cb_bever.png,0,,,,,,,,,,,,,,,,,,,,,,
,,,,,00106,2023-11-13_18h48.53.790,vbt_B2_day4,2022.2.4,MacIntel,66.66666667,,,,,,down,0,0.45,,-0.043333333,-0.327777778,1,0,0,0,180,180,57,1,steek,images/br_steek.png,images/cb_steek.png,0,,,,,,,,,,,,,,,,,,,,,,
,,,,,00106,2023-11-13_18h48.53.790,vbt_B2_day4,2022.2.4,MacIntel,66.66666667,,,,,,down,0,0.516,,-0.043333333,-0.327777778,1,0,0,0,181,181,6,1,diep,images/br_diep.png,images/cb_diep.png,0,,,,,,,,,,,,,,,,,,,,,,
,,,,,00106,2023-11-13_18h48.53.790,vbt_B2_day4,2022.2.4,MacIntel,66.66666667,,,,,,down,0,0.224,,-0.043333333,-0.327777778,1,0,0,0,182,182,56,1,traag,images/br_traag.png,images/cb_traag.png,0,,,,,,,,,,,,,,,,,,,,,,
,,,,,00106,2023-11-13_18h48.53.790,vbt_B2_day4,2022.2.4,MacIntel,66.66666667,,,,,,down,0,2.667,,-0.043333333,-0.327777778,1,0,0,0,183,183,131,1,opzicht,images/br_opzicht.png,images/cb_opzicht.png,0,,,,,,,,,,,,,,,,,,,,,,
,,,,,00106,2023-11-13_18h48.53.790,vbt_B2_day4,2022.2.4,MacIntel,66.66666667,,,,,,down,0,0.936,,-0.043333333,-0.327777778,1,0,0,0,184,184,17,1,taal,images/br_taal.png,images/cb_taal.png,0,,,,,,,,,,,,,,,,,,,,,,
,,,,,00106,2023-11-13_18h48.53.790,vbt_B2_day4,2022.2.4,MacIntel,66.66666667,,,,,,down,0,0.877,,-0.043333333,-0.327777778,1,0,0,0,185,185,70,1,ijdel,images/br_ijdel.png,images/cb_ijdel.png,0,,,,,,,,,,,,,,,,,,,,,,
,,,,,00106,2023-11-13_18h48.53.790,vbt_B2_day4,2022.2.4,MacIntel,66.66666667,,,,,,down,0,0.201,,-0.043333333,-0.327777778,1,0,0,0,186,186,27,1,dans,images/br_dans.png,images/cb_dans.png,1,,,,,,,,,,,,,,,,,,,,,,
,,,,,00106,2023-11-13_18h48.53.790,vbt_B2_day4,2022.2.4,MacIntel,66.66666667,,,,,,down,0,0.19,,-0.042222222,-0.33,1,0,0,0,187,187,151,1,aanzoek,images/br_aanzoek.png,images/cb_aanzoek.png,0,,,,,,,,,,,,,,,,,,,,,,
,,,,,00106,2023-11-13_18h48.53.790,vbt_B2_day4,2022.2.4,MacIntel,66.66666667,,,,,,down,0,0.807,,-0.042222222,-0.33,1,0,0,0,188,188,23,1,zout,images/br_zout.png,images/cb_zout.png,0,,,,,,,,,,,,,,,,,,,,,,
,,,,,00106,2023-11-13_18h48.53.790,vbt_B2_day4,2022.2.4,MacIntel,66.66666667,,,,,,down,0,0.191,,0.39,0.123333333,1,0,0,0,189,189,196,1,nakijken,images/br_nakijken.png,images/cb_nakijken.png,0,,,,,,,,,,,,,,,,,,,,,,
,,,,,00106,2023-11-13_18h48.53.790,vbt_B2_day4,2022.2.4,MacIntel,66.66666667,,,,,,down,0,0.275,,0.39,0.123333333,1,0,0,0,190,190,39,1,laag,images/br_laag.png,images/cb_laag.png,0,,,,,,,,,,,,,,,,,,,,,,
,,,,,00106,2023-11-13_18h48.53.790,vbt_B2_day4,2022.2.4,MacIntel,66.66666667,,,,,,down,0,0.725,,0.39,0.123333333,1,0,0,0,191,191,177,1,maaltijd,images/br_maaltijd.png,images/cb_maaltijd.png,0,,,,,,,,,,,,,,,,,,,,,,
,,,,,00106,2023-11-13_18h48.53.790,vbt_B2_day4,2022.2.4,MacIntel,66.66666667,,,,,,down,0,0.385,,0.39,0.123333333,1,0,0,0,192,192,46,1,jagen,images/br_jagen.png,images/cb_jagen.png,0,,,,,,,,,,,,,,,,,,,,,,
,,,,,00106,2023-11-13_18h48.53.790,vbt_B2_day4,2022.2.4,MacIntel,66.66666667,,,,,,down,0,0.365,,0.39,0.123333333,1,0,0,0,193,193,1,1,zaal,images/br_zaal.png,images/cb_zaal.png,0,,,,,,,,,,,,,,,,,,,,,,
,,,,,00106,2023-11-13_18h48.53.790,vbt_B2_day4,2022.2.4,MacIntel,66.66666667,,,,,,down,0,0.307,,0.39,0.123333333,1,0,0,0,194,194,0,1,slak,images/br_slak.png,images/cb_slak.png,0,,,,,,,,,,,,,,,,,,,,,,
,,,,,00106,2023-11-13_18h48.53.790,vbt_B2_day4,2022.2.4,MacIntel,66.66666667,,,,,,down,0,0.225,,0.39,0.123333333,1,0,0,0,195,195,11,1,mode,images/br_mode.png,images/cb_mode.png,0,,,,,,,,,,,,,,,,,,,,,,
,,,,,00106,2023-11-13_18h48.53.790,vbt_B2_day4,2022.2.4,MacIntel,66.66666667,,,,,,down,0,3.565,,0.39,0.123333333,1,0,0,0,196,196,138,1,akkoord,images/br_akkoord.png,images/cb_akkoord.png,0,,,,,,,,,,,,,,,,,,,,,,
,,,,,00106,2023-11-13_18h48.53.790,vbt_B2_day4,2022.2.4,MacIntel,66.66666667,,,,,,down,0,11.852,,0.39,0.123333333,1,0,0,0,197,197,80,1,kanjer,images/br_kanjer.png,images/cb_kanjer.png,0,,,,,,,,,,,,,,,,,,,,,,
,,,,,00106,2023-11-13_18h48.53.790,vbt_B2_day4,2022.2.4,MacIntel,66.66666667,,,,,,down,0,1.618,,0.39,0.123333333,1,0,0,0,198,198,12,1,kust,images/br_kust.png,images/cb_kust.png,0,,,,,,,,,,,,,,,,,,,,,,
,,,,,00106,2023-11-13_18h48.53.790,vbt_B2_day4,2022.2.4,MacIntel,66.66666667,,,,,,down,0,561.197,,0.39,0.123333333,1,0,0,0,199,199,122,1,waarvan,images/br_waarvan.png,images/cb_waarvan.png,0,,,,,,,,,,,,,,,,,,,,,,
,,,,,00106,2023-11-13_18h48.53.790,vbt_B2_day4,2022.2.4,MacIntel,66.66666667,,,,,,,,,,,,,,,,,,,,,,,,,0.292222222,0.075555556,1,0,0,,,,,,,,,,,,,,,,
,,,,,00106,2023-11-13_18h48.53.790,vbt_B2_day4,2022.2.4,MacIntel,66.66666667,,,,,,,,,,,,,,,,,,,,,,,,,,,,,,0.292222222,0.075555556,1,0,0,,,,,,,,,,,
,,,,,00106,2023-11-13_18h48.53.790,vbt_B2_day4,2022.2.4,MacIntel,66.66666667,,,,,,,,,,,,,,,,,,,,wozing,images/br_wozing.png,images/cb_wozing.png,,woning,,,,,,,,,,,0.392222222,-0.107777778,1,0,0,woning,0,0,0,28,1
,,,,,00106,2023-11-13_18h48.53.790,vbt_B2_day4,2022.2.4,MacIntel,66.66666667,,,,,,,,,,,,,,,,,,,,ezel,images/br_ezel.png,images/cb_ezel.png,,ezel,,,,,,,,,,,0.205555556,-0.087777778,1,0,0,ezel,0,1,1,42,1
,,,,,00106,2023-11-13_18h48.53.790,vbt_B2_day4,2022.2.4,MacIntel,66.66666667,,,,,,,,,,,,,,,,,,,,drooien,images/br_drooien.png,images/cb_drooien.png,,hroo....,,,,,,,,,,,0.254444444,0.233333333,1,0,0,hroo....,0,2,2,32,1
,,,,,00106,2023-11-13_18h48.53.790,vbt_B2_day4,2022.2.4,MacIntel,66.66666667,,,,,,,,,,,,,,,,,,,,opkicht,images/br_opkicht.png,images/cb_opkicht.png,,opkomst,,,,,,,,,,,0.327777778,0.008888889,1,0,0,opkomst,0,3,3,34,1
,,,,,00106,2023-11-13_18h48.53.790,vbt_B2_day4,2022.2.4,MacIntel,66.66666667,,,,,,,,,,,,,,,,,,,,soda,images/br_soda.png,images/cb_soda.png,,soda,,,,,,,,,,,0.182222222,0.084444444,1,0,0,soda,0,4,4,3,1
,,,,,00106,2023-11-13_18h48.53.790,vbt_B2_day4,2022.2.4,MacIntel,66.66666667,,,,,,,,,,,,,,,,,,,,warel,images/br_warel.png,images/cb_warel.png,,warel,,,,,,,,,,,0.228888889,-0.043333333,1,0,0,warel,0,5,5,26,1
,,,,,00106,2023-11-13_18h48.53.790,vbt_B2_day4,2022.2.4,MacIntel,66.66666667,,,,,,,,,,,,,,,,,,,,bisschap,images/br_bisschap.png,images/cb_bisschap.png,,bisschop,,,,,,,,,,,0.363333333,0.193333333,1,0,0,bisschop,0,6,6,36,1
,,,,,00106,2023-11-13_18h48.53.790,vbt_B2_day4,2022.2.4,MacIntel,66.66666667,,,,,,,,,,,,,,,,,,,,heengaan,images/br_heengaan.png,images/cb_heengaan.png,,.eez....,,,,,,,,,,,0.167777778,0.057777778,1,0,0,.eez....,0,7,7,19,1
,,,,,00106,2023-11-13_18h48.53.790,vbt_B2_day4,2022.2.4,MacIntel,66.66666667,,,,,,,,,,,,,,,,,,,,flippen,images/br_flippen.png,images/cb_flippen.png,,dlippen,,,,,,,,,,,0.312222222,0.02,1,0,0,dlippen,0,8,8,54,1
,,,,,00106,2023-11-13_18h48.53.790,vbt_B2_day4,2022.2.4,MacIntel,66.66666667,,,,,,,,,,,,,,,,,,,,kaal,images/br_kaal.png,images/cb_kaal.png,,kaal,,,,,,,,,,,0.106666667,0.06,1,0,0,kaal,0,9,9,1,1
,,,,,00106,2023-11-13_18h48.53.790,vbt_B2_day4,2022.2.4,MacIntel,66.66666667,,,,,,,,,,,,,,,,,,,,zaalrijk,images/br_zaalrijk.png,images/cb_zaalrijk.png,,zaalrijp,,,,,,,,,,,0.327777778,-0.002222222,1,0,0,zaalrijp,0,10,10,37,1
,,,,,00106,2023-11-13_18h48.53.790,vbt_B2_day4,2022.2.4,MacIntel,66.66666667,,,,,,,,,,,,,,,,,,,,fran,images/br_fran.png,images/cb_fran.png,,draz,,,,,,,,,,,0.434444444,0.088888889,1,0,0,draz,0,11,11,22,1
,,,,,00106,2023-11-13_18h48.53.790,vbt_B2_day4,2022.2.4,MacIntel,66.66666667,,,,,,,,,,,,,,,,,,,,baron,images/br_baron.png,images/cb_baron.png,,baron,,,,,,,,,,,0.253333333,0.248888889,1,0,0,baron,0,12,12,5,1
,,,,,00106,2023-11-13_18h48.53.790,vbt_B2_day4,2022.2.4,MacIntel,66.66666667,,,,,,,,,,,,,,,,,,,,lappen,images/br_lappen.png,images/cb_lappen.png,,lappen,,,,,,,,,,,0.171111111,0.072222222,1,0,0,lappen,0,13,13,49,1
,,,,,00106,2023-11-13_18h48.53.790,vbt_B2_day4,2022.2.4,MacIntel,66.66666667,,,,,,,,,,,,,,,,,,,,eerst,images/br_eerst.png,images/cb_eerst.png,,eerst,,,,,,,,,,,0.21,0.078888889,1,0,0,eerst,0,14,14,47,1
,,,,,00106,2023-11-13_18h48.53.790,vbt_B2_day4,2022.2.4,MacIntel,66.66666667,,,,,,,,,,,,,,,,,,,,gaan,images/br_gaan.png,images/cb_gaan.png,,gaan,,,,,,,,,,,0.195555556,0.176666667,1,0,0,gaan,0,15,15,41,1
,,,,,00106,2023-11-13_18h48.53.790,vbt_B2_day4,2022.2.4,MacIntel,66.66666667,,,,,,,,,,,,,,,,,,,,mekst,images/br_mekst.png,images/cb_mekst.png,,tekst,,,,,,,,,,,0.008888889,-0.201111111,1,0,0,tekst,0,16,16,27,1
,,,,,00106,2023-11-13_18h48.53.790,vbt_B2_day4,2022.2.4,MacIntel,66.66666667,,,,,,,,,,,,,,,,,,,,noodzaak,images/br_noodzaak.png,images/cb_noodzaak.png,,nood....,,,,,,,,,,,0.112222222,0.007777778,1,0,0,nood....,0,17,17,56,1
,,,,,00106,2023-11-13_18h48.53.790,vbt_B2_day4,2022.2.4,MacIntel,66.66666667,,,,,,,,,,,,,,,,,,,,geliefd,images/br_geliefd.png,images/cb_geliefd.png,,geliefd,,,,,,,,,,,0.318888889,0.161111111,1,0,0,geliefd,0,18,18,14,1
,,,,,00106,2023-11-13_18h48.53.790,vbt_B2_day4,2022.2.4,MacIntel,66.66666667,,,,,,,,,,,,,,,,,,,,gebog,images/br_gebog.png,images/cb_gebog.png,,gebog,,,,,,,,,,,0.108888889,-0.102222222,1,0,0,gebog,0,19,19,24,1
,,,,,00106,2023-11-13_18h48.53.790,vbt_B2_day4,2022.2.4,MacIntel,66.66666667,,,,,,,,,,,,,,,,,,,,grappen,images/br_grappen.png,images/cb_grappen.png,,grappen,,,,,,,,,,,0.218888889,0.022222222,1,0,0,grappen,0,20,20,12,1
,,,,,00106,2023-11-13_18h48.53.790,vbt_B2_day4,2022.2.4,MacIntel,66.66666667,,,,,,,,,,,,,,,,,,,,dozijn,images/br_dozijn.png,images/cb_dozijn.png,,,,,,,,,,,,,0.181111111,0.116666667,1,0,0,,0,21,21,48,1
,,,,,00106,2023-11-13_18h48.53.790,vbt_B2_day4,2022.2.4,MacIntel,66.66666667,,,,,,,,,,,,,,,,,,,,pijnlijk,images/br_pijnlijk.png,images/cb_pijnlijk.png,,,,,,,,,,,,,0.13,-0.01,1,0,0,,0,22,22,58,1
,,,,,00106,2023-11-13_18h48.53.790,vbt_B2_day4,2022.2.4,MacIntel,66.66666667,,,,,,,,,,,,,,,,,,,,gaaf,images/br_gaaf.png,images/cb_gaaf.png,,gaaf,,,,,,,,,,,0.163333333,0.141111111,1,0,0,gaaf,0,23,23,43,1
,,,,,00106,2023-11-13_18h48.53.790,vbt_B2_day4,2022.2.4,MacIntel,66.66666667,,,,,,,,,,,,,,,,,,,,sulbon,images/br_sulbon.png,images/cb_sulbon.png,,gulb...,,,,,,,,,,,0.16,0.004444444,1,0,0,gulb...,0,24,24,31,1
,,,,,00106,2023-11-13_18h48.53.790,vbt_B2_day4,2022.2.4,MacIntel,66.66666667,,,,,,,,,,,,,,,,,,,,schotel,images/br_schotel.png,images/cb_schotel.png,,scho...,,,,,,,,,,,0.133333333,0.025555556,1,0,0,scho...,0,25,25,52,1
,,,,,00106,2023-11-13_18h48.53.790,vbt_B2_day4,2022.2.4,MacIntel,66.66666667,,,,,,,,,,,,,,,,,,,,geheim,images/br_geheim.png,images/cb_geheim.png,,,,,,,,,,,,,0.06,-0.008888889,1,0,0,,0,26,26,8,1
,,,,,00106,2023-11-13_18h48.53.790,vbt_B2_day4,2022.2.4,MacIntel,66.66666667,,,,,,,,,,,,,,,,,,,,seizoen,images/br_seizoen.png,images/cb_seizoen.png,,seizoen,,,,,,,,,,,0.108888889,0.053333333,1,0,0,seizoen,0,27,27,13,1
,,,,,00106,2023-11-13_18h48.53.790,vbt_B2_day4,2022.2.4,MacIntel,66.66666667,,,,,,,,,,,,,,,,,,,,pittig,images/br_pittig.png,images/cb_pittig.png,,pittig,,,,,,,,,,,0.206666667,0.136666667,1,0,0,pittig,0,28,28,51,1
,,,,,00106,2023-11-13_18h48.53.790,vbt_B2_day4,2022.2.4,MacIntel,66.66666667,,,,,,,,,,,,,,,,,,,,gebit,images/br_gebit.png,images/cb_gebit.png,,gebit,,,,,,,,,,,0.111111111,-0.053333333,1,0,0,gebit,0,29,29,6,1
,,,,,00106,2023-11-13_18h48.53.790,vbt_B2_day4,2022.2.4,MacIntel,66.66666667,,,,,,,,,,,,,,,,,,,,snee,images/br_snee.png,images/cb_snee.png,,snee,,,,,,,,,,,0.147777778,0.184444444,1,0,0,snee,0,30,30,40,1
,,,,,00106,2023-11-13_18h48.53.790,vbt_B2_day4,2022.2.4,MacIntel,66.66666667,,,,,,,,,,,,,,,,,,,,zwek,images/br_zwek.png,images/cb_zwek.png,,zwik,,,,,,,,,,,0.092222222,-0.016666667,1,0,0,zwik,0,31,31,20,1
,,,,,00106,2023-11-13_18h48.53.790,vbt_B2_day4,2022.2.4,MacIntel,66.66666667,,,,,,,,,,,,,,,,,,,,strok,images/br_strok.png,images/cb_strok.png,,strok,,,,,,,,,,,0.222222222,0.07,1,0,0,strok,0,32,32,25,1
,,,,,00106,2023-11-13_18h48.53.790,vbt_B2_day4,2022.2.4,MacIntel,66.66666667,,,,,,,,,,,,,,,,,,,,broodje,images/br_broodje.png,images/cb_broodje.png,,,,,,,,,,,,,-0.031111111,-0.035555556,1,0,0,,0,33,33,55,1
,,,,,00106,2023-11-13_18h48.53.790,vbt_B2_day4,2022.2.4,MacIntel,66.66666667,,,,,,,,,,,,,,,,,,,,midden,images/br_midden.png,images/cb_midden.png,,,,,,,,,,,,,0.001111111,-0.008888889,1,0,0,,0,34,34,50,1
,,,,,00106,2023-11-13_18h48.53.790,vbt_B2_day4,2022.2.4,MacIntel,66.66666667,,,,,,,,,,,,,,,,,,,,drummer,images/br_drummer.png,images/cb_drummer.png,,drummen,,,,,,,,,,,0.101111111,-0.08,1,0,0,drummen,0,35,35,53,1
,,,,,00106,2023-11-13_18h48.53.790,vbt_B2_day4,2022.2.4,MacIntel,66.66666667,,,,,,,,,,,,,,,,,,,,apparaat,images/br_apparaat.png,images/cb_apparaat.png,,apparaat,,,,,,,,,,,0.13,0.023333333,1,0,0,apparaat,0,36,36,17,1
,,,,,00106,2023-11-13_18h48.53.790,vbt_B2_day4,2022.2.4,MacIntel,66.66666667,,,,,,,,,,,,,,,,,,,,vreten,images/br_vreten.png,images/cb_vreten.png,,vreten,,,,,,,,,,,0.113333333,0.135555556,1,0,0,vreten,0,37,37,11,1
,,,,,00106,2023-11-13_18h48.53.790,vbt_B2_day4,2022.2.4,MacIntel,66.66666667,,,,,,,,,,,,,,,,,,,,wagon,images/br_wagon.png,images/cb_wagon.png,,wagon,,,,,,,,,,,0.131111111,0.013333333,1,0,0,wagon,0,38,38,4,1
,,,,,00106,2023-11-13_18h48.53.790,vbt_B2_day4,2022.2.4,MacIntel,66.66666667,,,,,,,,,,,,,,,,,,,,toevol,images/br_toevol.png,images/cb_toevol.png,,toeval,,,,,,,,,,,0.133333333,-0.076666667,1,0,0,toeval,0,39,39,29,1
,,,,,00106,2023-11-13_18h48.53.790,vbt_B2_day4,2022.2.4,MacIntel,66.66666667,,,,,,,,,,,,,,,,,,,,waarop,images/br_waarop.png,images/cb_waarop.png,,waarop,,,,,,,,,,,0.21,0.006666667,1,0,0,waarop,0,40,40,9,1
,,,,,00106,2023-11-13_18h48.53.790,vbt_B2_day4,2022.2.4,MacIntel,66.66666667,,,,,,,,,,,,,,,,,,,,praat,images/br_praat.png,images/cb_praat.png,,praat,,,,,,,,,,,-0.103333333,-0.048888889,1,0,0,praat,0,41,41,7,1
,,,,,00106,2023-11-13_18h48.53.790,vbt_B2_day4,2022.2.4,MacIntel,66.66666667,,,,,,,,,,,,,,,,,,,,opruimen,images/br_opruimen.png,images/cb_opruimen.png,,opruimen,,,,,,,,,,,-0.033333333,0.102222222,1,0,0,opruimen,0,42,42,59,1
,,,,,00106,2023-11-13_18h48.53.790,vbt_B2_day4,2022.2.4,MacIntel,66.66666667,,,,,,,,,,,,,,,,,,,,seizoon,images/br_seizoon.png,images/cb_seizoon.png,,seizoen,,,,,,,,,,,-0.138888889,-0.023333333,1,0,0,seizoen,0,43,43,33,1
,,,,,00106,2023-11-13_18h48.53.790,vbt_B2_day4,2022.2.4,MacIntel,66.66666667,,,,,,,,,,,,,,,,,,,,gedicht,images/br_gedicht.png,images/cb_gedicht.png,,gedicht,,,,,,,,,,,0.072222222,0.107777778,1,0,0,gedicht,0,44,44,15,1
,,,,,00106,2023-11-13_18h48.53.790,vbt_B2_day4,2022.2.4,MacIntel,66.66666667,,,,,,,,,,,,,,,,,,,,getucht,images/br_getucht.png,images/cb_getucht.png,,getuigt ,,,,,,,,,,,0.043333333,-0.21,1,0,0,getuigt ,0,45,45,35,1
,,,,,00106,2023-11-13_18h48.53.790,vbt_B2_day4,2022.2.4,MacIntel,66.66666667,,,,,,,,,,,,,,,,,,,,dalen,images/br_dalen.png,images/cb_dalen.png,,dalen,,,,,,,,,,,-0.006666667,-0.098888889,1,0,0,dalen,0,46,46,46,1
,,,,,00106,2023-11-13_18h48.53.790,vbt_B2_day4,2022.2.4,MacIntel,66.66666667,,,,,,,,,,,,,,,,,,,,schenden,images/br_schenden.png,images/cb_schenden.png,,schen....,,,,,,,,,,,0.147777778,-0.071111111,1,0,0,schen....,0,47,47,57,1
,,,,,00106,2023-11-13_18h48.53.790,vbt_B2_day4,2022.2.4,MacIntel,66.66666667,,,,,,,,,,,,,,,,,,,,oceaan,images/br_oceaan.png,images/cb_oceaan.png,,oceaan,,,,,,,,,,,-0.108888889,0.062222222,1,0,0,oceaan,0,48,48,10,1
,,,,,00106,2023-11-13_18h48.53.790,vbt_B2_day4,2022.2.4,MacIntel,66.66666667,,,,,,,,,,,,,,,,,,,,haza,images/br_haza.png,images/cb_haza.png,,haza,,,,,,,,,,,0.027777778,0.142222222,1,0,0,haza,0,49,49,21,1
,,,,,00106,2023-11-13_18h48.53.790,vbt_B2_day4,2022.2.4,MacIntel,66.66666667,,,,,,,,,,,,,,,,,,,,kust,images/br_kust.png,images/cb_kust.png,,,,,,,,,,,,,0.344444444,0.112222222,1,0,0,,0,50,50,0,1
,,,,,00106,2023-11-13_18h48.53.790,vbt_B2_day4,2022.2.4,MacIntel,66.66666667,,,,,,,,,,,,,,,,,,,,bruin,images/br_bruin.png,images/cb_bruin.png,,bruin,,,,,,,,,,,0.241111111,0.256666667,1,0,0,bruin,0,51,51,45,1
,,,,,00106,2023-11-13_18h48.53.790,vbt_B2_day4,2022.2.4,MacIntel,66.66666667,,,,,,,,,,,,,,,,,,,,paalbaak,images/br_paalbaak.png,images/cb_paalbaak.png,,paal....,,,,,,,,,,,0.06,0.097777778,1,0,0,paal....,0,52,52,39,1
,,,,,00106,2023-11-13_18h48.53.790,vbt_B2_day4,2022.2.4,MacIntel,66.66666667,,,,,,,,,,,,,,,,,,,,weigeren,images/br_weigeren.png,images/cb_weigeren.png,,wei...,,,,,,,,,,,0.163333333,0.163333333,1,0,0,wei...,0,53,53,16,1
,,,,,00106,2023-11-13_18h48.53.790,vbt_B2_day4,2022.2.4,MacIntel,66.66666667,,,,,,,,,,,,,,,,,,,,rijp,images/br_rijp.png,images/cb_rijp.png,,rijp,,,,,,,,,,,-0.028888889,-0.011111111,1,0,0,rijp,0,54,54,2,1
,,,,,00106,2023-11-13_18h48.53.790,vbt_B2_day4,2022.2.4,MacIntel,66.66666667,,,,,,,,,,,,,,,,,,,,stemming,images/br_stemming.png,images/cb_stemming.png,,stemming,,,,,,,,,,,0.032222222,-0.055555556,1,0,0,stemming,0,55,55,18,1
,,,,,00106,2023-11-13_18h48.53.790,vbt_B2_day4,2022.2.4,MacIntel,66.66666667,,,,,,,,,,,,,,,,,,,,steen,images/br_steen.png,images/cb_steen.png,,steen,,,,,,,,,,,0.171111111,-0.068888889,1,0,0,steen,0,56,56,44,1
,,,,,00106,2023-11-13_18h48.53.790,vbt_B2_day4,2022.2.4,MacIntel,66.66666667,,,,,,,,,,,,,,,,,,,,gijf,images/br_gijf.png,images/cb_gijf.png,,gijf,,,,,,,,,,,0.088888889,-0.024444444,1,0,0,gijf,0,57,57,23,1
,,,,,00106,2023-11-13_18h48.53.790,vbt_B2_day4,2022.2.4,MacIntel,66.66666667,,,,,,,,,,,,,,,,,,,,aanzwaag,images/br_aanzwaag.png,images/cb_aanzwaag.png,,aanzw...,,,,,,,,,,,0.092222222,0.052222222,1,0,0,aanzw...,0,58,58,38,1
,,,,,00106,2023-11-13_18h48.53.790,vbt_B2_day4,2022.2.4,MacIntel,66.66666667,,,,,,,,,,,,,,,,,,,,tucket,images/br_tucket.png,images/cb_tucket.png,,tuck...,,,,,,,,,,,-0.026666667,-0.068888889,1,0,0,tuck...,0,59,59,30,1
,,,,,00106,2023-11-13_18h48.53.790,vbt_B2_day4,2022.2.4,MacIntel,66.66666667,,,,,,,,,,,,,,,,,,,,,,,,,,,,,,,,,,,,,,,,,,,,,
