welcome_mouse.x,welcome_mouse.y,welcome_mouse.leftButton,welcome_mouse.midButton,welcome_mouse.rightButton,"ID",date,expName,psychopyVersion,OS,frameRate,trainInstr_mouse.x,trainInstr_mouse.y,trainInstr_mouse.leftButton,trainInstr_mouse.midButton,trainInstr_mouse.rightButton,translation_key.keys,translation_key.corr,translation_key.rt,word_rsp.text,trWrd_mouse.x,trWrd_mouse.y,trWrd_mouse.leftButton,trWrd_mouse.midButton,trWrd_mouse.rightButton,train_loop.thisRepN,train_loop.thisTrialN,train_loop.thisN,train_loop.thisIndex,train_loop.ran,nlWrd,brWrd,cbWrd,test,testResp,mouse.x,mouse.y,mouse.leftButton,mouse.midButton,mouse.rightButton,testInstr_mouse.x,testInstr_mouse.y,testInstr_mouse.leftButton,testInstr_mouse.midButton,testInstr_mouse.rightButton,test_mouse.x,test_mouse.y,test_mouse.leftButton,test_mouse.midButton,test_mouse.rightButton,test_response.text,test_loop.thisRepN,test_loop.thisTrialN,test_loop.thisN,test_loop.thisIndex,test_loop.ran
-0.189814801,-0.283333333,1,0,0,00004,2023-08-03_14h09.33.104,vbt_B2_day4,2022.2.4,Win32,60.07449237,,,,,,,,,,,,,,,,,,,,,,,,,,,,,,,,,,,,,,,,,,,,,
,,,,,00004,2023-08-03_14h09.33.104,vbt_B2_day4,2022.2.4,Win32,60.07449237,-0.189814801,-0.283333333,1,0,0,,,,,,,,,,,,,,,,,,,,,,,,,,,,,,,,,,,,,,,,
,,,,,00004,2023-08-03_14h09.33.104,vbt_B2_day4,2022.2.4,Win32,60.07449237,,,,,,down,0,1.87,,-0.189814801,-0.283333333,1,0,0,0,0,0,22,1,stof,images/br_stof.png,images/cb_stof.png,0,,,,,,,,,,,,,,,,,,,,,,
,,,,,00004,2023-08-03_14h09.33.104,vbt_B2_day4,2022.2.4,Win32,60.07449237,,,,,,down,0,0.1308,,-0.189814801,-0.283333333,1,0,0,0,1,1,68,1,schat,images/br_schat.png,images/cb_schat.png,0,,,,,,,,,,,,,,,,,,,,,,
,,,,,00004,2023-08-03_14h09.33.104,vbt_B2_day4,2022.2.4,Win32,60.07449237,,,,,,down,0,0.0345,,-0.189814801,-0.283333333,1,0,0,0,2,2,190,1,goedkoop,images/br_goedkoop.png,images/cb_goedkoop.png,0,,,,,,,,,,,,,,,,,,,,,,
,,,,,00004,2023-08-03_14h09.33.104,vbt_B2_day4,2022.2.4,Win32,60.07449237,,,,,,down,0,1.1517,,-0.189814801,-0.283333333,0,0,1,0,3,3,171,1,aarzelen,images/br_aarzelen.png,images/cb_aarzelen.png,0,,,,,,,,,,,,,,,,,,,,,,
,,,,,00004,2023-08-03_14h09.33.104,vbt_B2_day4,2022.2.4,Win32,60.07449237,,,,,,down,0,2.2355,,0.324074131,0.00370369,1,0,0,0,4,4,60,1,jasje,images/br_jasje.png,images/cb_jasje.png,0,,,,,,,,,,,,,,,,,,,,,,
,,,,,00004,2023-08-03_14h09.33.104,vbt_B2_day4,2022.2.4,Win32,60.07449237,,,,,,down,0,2.1231,,0.324074131,0.00370369,1,0,0,0,5,5,69,1,waken,images/br_waken.png,images/cb_waken.png,0,,,,,,,,,,,,,,,,,,,,,,
,,,,,00004,2023-08-03_14h09.33.104,vbt_B2_day4,2022.2.4,Win32,60.07449237,,,,,,down,0,0.0183,,0.324074131,0.00370369,1,0,0,0,6,6,97,1,loyaal,images/br_loyaal.png,images/cb_loyaal.png,0,,,,,,,,,,,,,,,,,,,,,,
,,,,,00004,2023-08-03_14h09.33.104,vbt_B2_day4,2022.2.4,Win32,60.07449237,,,,,,down,0,0.4558,,0.324074131,0.00370369,0,0,1,0,7,7,55,1,praat,images/br_praat.png,images/cb_praat.png,0,,,,,,,,,,,,,,,,,,,,,,
,,,,,00004,2023-08-03_14h09.33.104,vbt_B2_day4,2022.2.4,Win32,60.07449237,,,,,,down,0,0.4181,,0.276851908,0.076851824,1,0,0,0,8,8,5,1,blad,images/br_blad.png,images/cb_blad.png,0,,,,,,,,,,,,,,,,,,,,,,
,,,,,00004,2023-08-03_14h09.33.104,vbt_B2_day4,2022.2.4,Win32,60.07449237,,,,,,down,0,0.6705,,0.276851908,0.076851824,1,0,0,0,9,9,10,1,leek,images/br_leek.png,images/cb_leek.png,0,,,,,,,,,,,,,,,,,,,,,,
,,,,,00004,2023-08-03_14h09.33.104,vbt_B2_day4,2022.2.4,Win32,60.07449237,,,,,,down,0,3.7187,,0.276851908,0.076851824,1,0,0,0,10,10,157,1,uitlaat,images/br_uitlaat.png,images/cb_uitlaat.png,0,,,,,,,,,,,,,,,,,,,,,,
,,,,,00004,2023-08-03_14h09.33.104,vbt_B2_day4,2022.2.4,Win32,60.07449237,,,,,,down,0,0.201,,0.276851908,0.076851824,1,0,0,0,11,11,40,1,schep,images/br_schep.png,images/cb_schep.png,0,,,,,,,,,,,,,,,,,,,,,,
,,,,,00004,2023-08-03_14h09.33.104,vbt_B2_day4,2022.2.4,Win32,60.07449237,,,,,,down,0,2.8176,,0.276851908,0.076851824,0,0,1,0,12,12,67,1,zwart,images/br_zwart.png,images/cb_zwart.png,1,zwart,,,,,,,,,,,,,,,,,,,,,
,,,,,00004,2023-08-03_14h09.33.104,vbt_B2_day4,2022.2.4,Win32,60.07449237,,,,,,down,0,1.0243,,0.159259288,0.14351849,1,0,0,0,13,13,170,1,schatten,images/br_schatten.png,images/cb_schatten.png,0,,,,,,,,,,,,,,,,,,,,,,
,,,,,00004,2023-08-03_14h09.33.104,vbt_B2_day4,2022.2.4,Win32,60.07449237,,,,,,down,0,4.1513,,0.512963019,0.088888889,1,0,0,0,14,14,24,1,jurk,images/br_jurk.png,images/cb_jurk.png,1,jurk,,,,,,,,,,,,,,,,,,,,,
,,,,,00004,2023-08-03_14h09.33.104,vbt_B2_day4,2022.2.4,Win32,60.07449237,,,,,,down,0,2.1204,,0.512963019,0.088888889,1,0,0,0,15,15,59,1,kring,images/br_kring.png,images/cb_kring.png,0,,,,,,,,,,,,,,,,,,,,,,
,,,,,00004,2023-08-03_14h09.33.104,vbt_B2_day4,2022.2.4,Win32,60.07449237,,,,,,down,0,2.7249,,0.512963019,0.088888889,1,0,0,0,16,16,100,1,geduld,images/br_geduld.png,images/cb_geduld.png,0,,,,,,,,,,,,,,,,,,,,,,
,,,,,00004,2023-08-03_14h09.33.104,vbt_B2_day4,2022.2.4,Win32,60.07449237,,,,,,down,0,7.0684,,0.512963019,0.088888889,1,0,0,0,17,17,142,1,snuiven,images/br_snuiven.png,images/cb_snuiven.png,0,,,,,,,,,,,,,,,,,,,,,,
,,,,,00004,2023-08-03_14h09.33.104,vbt_B2_day4,2022.2.4,Win32,60.07449237,,,,,,down,0,10.2444,,0.512963019,0.088888889,1,0,0,0,18,18,130,1,keihard,images/br_keihard.png,images/cb_keihard.png,0,,,,,,,,,,,,,,,,,,,,,,
,,,,,00004,2023-08-03_14h09.33.104,vbt_B2_day4,2022.2.4,Win32,60.07449237,,,,,,down,0,0.7524,,0.512963019,0.088888889,1,0,0,0,19,19,133,1,seizoen,images/br_seizoen.png,images/cb_seizoen.png,0,,,,,,,,,,,,,,,,,,,,,,
,,,,,00004,2023-08-03_14h09.33.104,vbt_B2_day4,2022.2.4,Win32,60.07449237,,,,,,down,0,0.9004,,0.512963019,0.088888889,0,0,1,0,20,20,65,1,parel,images/br_parel.png,images/cb_parel.png,1,parel,,,,,,,,,,,,,,,,,,,,,
,,,,,00004,2023-08-03_14h09.33.104,vbt_B2_day4,2022.2.4,Win32,60.07449237,,,,,,down,0,2.8499,,0.4,0.055555556,1,0,0,0,21,21,76,1,afval,images/br_afval.png,images/cb_afval.png,0,,,,,,,,,,,,,,,,,,,,,,
,,,,,00004,2023-08-03_14h09.33.104,vbt_B2_day4,2022.2.4,Win32,60.07449237,,,,,,down,0,0.4386,,0.4,0.055555556,1,0,0,0,22,22,138,1,akkoord,images/br_akkoord.png,images/cb_akkoord.png,0,,,,,,,,,,,,,,,,,,,,,,
,,,,,00004,2023-08-03_14h09.33.104,vbt_B2_day4,2022.2.4,Win32,60.07449237,,,,,,down,0,0.5183,,0.4,0.055555556,1,0,0,0,23,23,117,1,kennis,images/br_kennis.png,images/cb_kennis.png,0,,,,,,,,,,,,,,,,,,,,,,
,,,,,00004,2023-08-03_14h09.33.104,vbt_B2_day4,2022.2.4,Win32,60.07449237,,,,,,down,0,0.6309,,0.4,0.055555556,1,0,0,0,24,24,32,1,palm,images/br_palm.png,images/cb_palm.png,0,,,,,,,,,,,,,,,,,,,,,,
,,,,,00004,2023-08-03_14h09.33.104,vbt_B2_day4,2022.2.4,Win32,60.07449237,,,,,,down,0,4.9677,,0.4,0.055555556,1,0,0,0,25,25,116,1,besmet,images/br_besmet.png,images/cb_besmet.png,0,,,,,,,,,,,,,,,,,,,,,,
,,,,,00004,2023-08-03_14h09.33.104,vbt_B2_day4,2022.2.4,Win32,60.07449237,,,,,,down,0,3.335,,0.4,0.055555556,1,0,0,0,26,26,131,1,opzicht,images/br_opzicht.png,images/cb_opzicht.png,0,,,,,,,,,,,,,,,,,,,,,,
,,,,,00004,2023-08-03_14h09.33.104,vbt_B2_day4,2022.2.4,Win32,60.07449237,,,,,,down,0,1.9565,,0.4,0.055555556,0,0,1,0,27,27,197,1,spanning,images/br_spanning.png,images/cb_spanning.png,0,,,,,,,,,,,,,,,,,,,,,,
,,,,,00004,2023-08-03_14h09.33.104,vbt_B2_day4,2022.2.4,Win32,60.07449237,,,,,,down,0,0.0188,,0.301851908,0.107407379,1,0,0,0,28,28,39,1,laag,images/br_laag.png,images/cb_laag.png,0,,,,,,,,,,,,,,,,,,,,,,
,,,,,00004,2023-08-03_14h09.33.104,vbt_B2_day4,2022.2.4,Win32,60.07449237,,,,,,down,0,3.5675,,0.301851908,0.107407379,1,0,0,0,29,29,195,1,middelen,images/br_middelen.png,images/cb_middelen.png,0,,,,,,,,,,,,,,,,,,,,,,
,,,,,00004,2023-08-03_14h09.33.104,vbt_B2_day4,2022.2.4,Win32,60.07449237,,,,,,down,0,0.984,,0.301851908,0.107407379,1,0,0,0,30,30,115,1,kleren,images/br_kleren.png,images/cb_kleren.png,0,,,,,,,,,,,,,,,,,,,,,,
,,,,,00004,2023-08-03_14h09.33.104,vbt_B2_day4,2022.2.4,Win32,60.07449237,,,,,,down,0,0.5176,,0.300925954,0.107407379,1,0,0,0,31,31,96,1,slagen,images/br_slagen.png,images/cb_slagen.png,0,,,,,,,,,,,,,,,,,,,,,,
,,,,,00004,2023-08-03_14h09.33.104,vbt_B2_day4,2022.2.4,Win32,60.07449237,,,,,,down,0,2.4999,,0.300925954,0.107407379,1,0,0,0,32,32,77,1,woede,images/br_woede.png,images/cb_woede.png,0,,,,,,,,,,,,,,,,,,,,,,
,,,,,00004,2023-08-03_14h09.33.104,vbt_B2_day4,2022.2.4,Win32,60.07449237,,,,,,down,0,11.1297,,0.300925954,0.107407379,0,0,1,0,33,33,174,1,stemming,images/br_stemming.png,images/cb_stemming.png,0,,,,,,,,,,,,,,,,,,,,,,
,,,,,00004,2023-08-03_14h09.33.104,vbt_B2_day4,2022.2.4,Win32,60.07449237,,,,,,down,0,8.5666,,0.218518575,0.165740734,1,0,0,0,34,34,184,1,aandelen,images/br_aandelen.png,images/cb_aandelen.png,1,aandelen,,,,,,,,,,,,,,,,,,,,,
,,,,,00004,2023-08-03_14h09.33.104,vbt_B2_day4,2022.2.4,Win32,60.07449237,,,,,,down,0,0.1858,,0.218518575,0.165740734,1,0,0,0,35,35,54,1,gebit,images/br_gebit.png,images/cb_gebit.png,0,,,,,,,,,,,,,,,,,,,,,,
,,,,,00004,2023-08-03_14h09.33.104,vbt_B2_day4,2022.2.4,Win32,60.07449237,,,,,,down,0,0.0854,,0.218518575,0.165740734,1,0,0,0,36,36,31,1,poes,images/br_poes.png,images/cb_poes.png,0,,,,,,,,,,,,,,,,,,,,,,
,,,,,00004,2023-08-03_14h09.33.104,vbt_B2_day4,2022.2.4,Win32,60.07449237,,,,,,down,0,2.035,,0.218518575,0.165740734,0,0,1,0,37,37,179,1,woestijn,images/br_woestijn.png,images/cb_woestijn.png,0,,,,,,,,,,,,,,,,,,,,,,
,,,,,00004,2023-08-03_14h09.33.104,vbt_B2_day4,2022.2.4,Win32,60.07449237,,,,,,down,0,4.407,,0.410185242,0.273148134,1,0,0,0,38,38,199,1,beseffen,images/br_beseffen.png,images/cb_beseffen.png,0,,,,,,,,,,,,,,,,,,,,,,
,,,,,00004,2023-08-03_14h09.33.104,vbt_B2_day4,2022.2.4,Win32,60.07449237,,,,,,down,0,0.7021,,0.410185242,0.273148134,1,0,0,0,39,39,49,1,laken,images/br_laken.png,images/cb_laken.png,0,,,,,,,,,,,,,,,,,,,,,,
,,,,,00004,2023-08-03_14h09.33.104,vbt_B2_day4,2022.2.4,Win32,60.07449237,,,,,,down,0,0.2413,,0.410185242,0.273148134,1,0,0,0,40,40,177,1,maaltijd,images/br_maaltijd.png,images/cb_maaltijd.png,0,,,,,,,,,,,,,,,,,,,,,,
,,,,,00004,2023-08-03_14h09.33.104,vbt_B2_day4,2022.2.4,Win32,60.07449237,,,,,,down,0,6.0535,,0.410185242,0.273148134,1,0,0,0,41,41,185,1,mijnheer,images/br_mijnheer.png,images/cb_mijnheer.png,1,mijnheer,,,,,,,,,,,,,,,,,,,,,
,,,,,00004,2023-08-03_14h09.33.104,vbt_B2_day4,2022.2.4,Win32,60.07449237,,,,,,down,0,3.118,,0.405555556,0.273148134,0,0,1,0,42,42,95,1,vreten,images/br_vreten.png,images/cb_vreten.png,0,,,,,,,,,,,,,,,,,,,,,,
,,,,,00004,2023-08-03_14h09.33.104,vbt_B2_day4,2022.2.4,Win32,60.07449237,,,,,,down,0,3.4217,,0.582407464,0.299074067,1,0,0,0,43,43,47,1,kabel,images/br_kabel.png,images/cb_kabel.png,0,,,,,,,,,,,,,,,,,,,,,,
,,,,,00004,2023-08-03_14h09.33.104,vbt_B2_day4,2022.2.4,Win32,60.07449237,,,,,,down,0,2.0355,,0.582407464,0.299074067,1,0,0,0,44,44,188,1,strekken,images/br_strekken.png,images/cb_strekken.png,0,,,,,,,,,,,,,,,,,,,,,,
,,,,,00004,2023-08-03_14h09.33.104,vbt_B2_day4,2022.2.4,Win32,60.07449237,,,,,,down,0,3.1013,,0.582407464,0.299074067,1,0,0,0,45,45,3,1,mand,images/br_mand.png,images/cb_mand.png,0,,,,,,,,,,,,,,,,,,,,,,
,,,,,00004,2023-08-03_14h09.33.104,vbt_B2_day4,2022.2.4,Win32,60.07449237,,,,,,down,0,3.0046,,0.582407464,0.299074067,1,0,0,0,46,46,38,1,baai,images/br_baai.png,images/cb_baai.png,0,,,,,,,,,,,,,,,,,,,,,,
,,,,,00004,2023-08-03_14h09.33.104,vbt_B2_day4,2022.2.4,Win32,60.07449237,,,,,,down,0,1.334,,0.582407464,0.299074067,1,0,0,0,47,47,74,1,graaf,images/br_graaf.png,images/cb_graaf.png,0,,,,,,,,,,,,,,,,,,,,,,
,,,,,00004,2023-08-03_14h09.33.104,vbt_B2_day4,2022.2.4,Win32,60.07449237,,,,,,down,0,4.7833,,0.582407464,0.299074067,1,0,0,0,48,48,46,1,jagen,images/br_jagen.png,images/cb_jagen.png,0,,,,,,,,,,,,,,,,,,,,,,
,,,,,00004,2023-08-03_14h09.33.104,vbt_B2_day4,2022.2.4,Win32,60.07449237,,,,,,down,0,1.4363,,0.582407464,0.299074067,0,0,1,0,49,49,21,1,mist,images/br_mist.png,images/cb_mist.png,0,,,,,,,,,,,,,,,,,,,,,,
,,,,,00004,2023-08-03_14h09.33.104,vbt_B2_day4,2022.2.4,Win32,60.07449237,,,,,,down,0,3.3392,,0.596296353,0.110185157,1,0,0,0,50,50,191,1,opheffen,images/br_opheffen.png,images/cb_opheffen.png,0,,,,,,,,,,,,,,,,,,,,,,
,,,,,00004,2023-08-03_14h09.33.104,vbt_B2_day4,2022.2.4,Win32,60.07449237,,,,,,down,0,0.6891,,0.595370483,0.110185157,1,0,0,0,51,51,119,1,liefje,images/br_liefje.png,images/cb_liefje.png,0,,,,,,,,,,,,,,,,,,,,,,
,,,,,00004,2023-08-03_14h09.33.104,vbt_B2_day4,2022.2.4,Win32,60.07449237,,,,,,down,0,1.2347,,0.453703732,0.097222222,1,0,0,0,52,52,11,1,mode,images/br_mode.png,images/cb_mode.png,0,,,,,,,,,,,,,,,,,,,,,,
,,,,,00004,2023-08-03_14h09.33.104,vbt_B2_day4,2022.2.4,Win32,60.07449237,,,,,,down,0,3.2324,,0.453703732,0.097222222,1,0,0,0,53,53,64,1,wegen,images/br_wegen.png,images/cb_wegen.png,1,wegen,,,,,,,,,,,,,,,,,,,,,
,,,,,00004,2023-08-03_14h09.33.104,vbt_B2_day4,2022.2.4,Win32,60.07449237,,,,,,down,0,0.6375,,0.389814843,0.121296268,1,0,0,0,54,54,124,1,bloeien,images/br_bloeien.png,images/cb_bloeien.png,0,,,,,,,,,,,,,,,,,,,,,,
,,,,,00004,2023-08-03_14h09.33.104,vbt_B2_day4,2022.2.4,Win32,60.07449237,,,,,,down,0,1.3837,,0.389814843,0.121296268,1,0,0,0,55,55,84,1,lokken,images/br_lokken.png,images/cb_lokken.png,0,,,,,,,,,,,,,,,,,,,,,,
,,,,,00004,2023-08-03_14h09.33.104,vbt_B2_day4,2022.2.4,Win32,60.07449237,,,,,,down,0,1.1236,,0.389814843,0.121296268,1,0,0,0,56,56,41,1,maken,images/br_maken.png,images/cb_maken.png,0,,,,,,,,,,,,,,,,,,,,,,
,,,,,00004,2023-08-03_14h09.33.104,vbt_B2_day4,2022.2.4,Win32,60.07449237,,,,,,down,0,1.5013,,0.387963019,0.121296268,1,0,0,0,57,57,80,1,kanjer,images/br_kanjer.png,images/cb_kanjer.png,0,,,,,,,,,,,,,,,,,,,,,,
,,,,,00004,2023-08-03_14h09.33.104,vbt_B2_day4,2022.2.4,Win32,60.07449237,,,,,,down,0,0.5232,,0.387963019,0.121296268,1,0,0,0,58,58,0,1,slak,images/br_slak.png,images/cb_slak.png,0,,,,,,,,,,,,,,,,,,,,,,
,,,,,00004,2023-08-03_14h09.33.104,vbt_B2_day4,2022.2.4,Win32,60.07449237,,,,,,down,0,1.2074,,0.387963019,0.121296268,1,0,0,0,59,59,27,1,dans,images/br_dans.png,images/cb_dans.png,1,dans,,,,,,,,,,,,,,,,,,,,,
,,,,,00004,2023-08-03_14h09.33.104,vbt_B2_day4,2022.2.4,Win32,60.07449237,,,,,,down,0,0.4191,,0.387963019,0.121296268,1,0,0,0,60,60,150,1,gegeven,images/br_gegeven.png,images/cb_gegeven.png,0,,,,,,,,,,,,,,,,,,,,,,
,,,,,00004,2023-08-03_14h09.33.104,vbt_B2_day4,2022.2.4,Win32,60.07449237,,,,,,down,0,1.5007,,0.385185242,0.121296268,1,0,0,0,61,61,175,1,heengaan,images/br_heengaan.png,images/cb_heengaan.png,0,,,,,,,,,,,,,,,,,,,,,,
,,,,,00004,2023-08-03_14h09.33.104,vbt_B2_day4,2022.2.4,Win32,60.07449237,,,,,,down,0,1.671,,0.385185242,0.121296268,1,0,0,0,62,62,58,1,tekst,images/br_tekst.png,images/cb_tekst.png,0,,,,,,,,,,,,,,,,,,,,,,
,,,,,00004,2023-08-03_14h09.33.104,vbt_B2_day4,2022.2.4,Win32,60.07449237,,,,,,down,0,7.7801,,0.385185242,0.121296268,1,0,0,0,63,63,147,1,komisch,images/br_komisch.png,images/cb_komisch.png,1,komisch,,,,,,,,,,,,,,,,,,,,,
,,,,,00004,2023-08-03_14h09.33.104,vbt_B2_day4,2022.2.4,Win32,60.07449237,,,,,,down,0,0.5845,,0.384259288,0.121296268,1,0,0,0,64,64,163,1,schuilen,images/br_schuilen.png,images/cb_schuilen.png,0,,,,,,,,,,,,,,,,,,,,,,
,,,,,00004,2023-08-03_14h09.33.104,vbt_B2_day4,2022.2.4,Win32,60.07449237,,,,,,down,0,5.0398,,0.384259288,0.121296268,1,0,0,0,65,65,26,1,leuk,images/br_leuk.png,images/cb_leuk.png,1,leuk,,,,,,,,,,,,,,,,,,,,,
,,,,,00004,2023-08-03_14h09.33.104,vbt_B2_day4,2022.2.4,Win32,60.07449237,,,,,,down,0,7.4781,,0.384259288,0.121296268,1,0,0,0,66,66,144,1,eetlust,images/br_eetlust.png,images/cb_eetlust.png,1,eetlust,,,,,,,,,,,,,,,,,,,,,
,,,,,00004,2023-08-03_14h09.33.104,vbt_B2_day4,2022.2.4,Win32,60.07449237,,,,,,down,0,0.7851,,0.384259288,0.121296268,1,0,0,0,67,67,127,1,doodmoe,images/br_doodmoe.png,images/cb_doodmoe.png,0,,,,,,,,,,,,,,,,,,,,,,
,,,,,00004,2023-08-03_14h09.33.104,vbt_B2_day4,2022.2.4,Win32,60.07449237,,,,,,down,0,4.1512,,0.384259288,0.121296268,1,0,0,0,68,68,79,1,nodig,images/br_nodig.png,images/cb_nodig.png,0,,,,,,,,,,,,,,,,,,,,,,
,,,,,00004,2023-08-03_14h09.33.104,vbt_B2_day4,2022.2.4,Win32,60.07449237,,,,,,down,0,2.4038,,0.071296353,-0.019444444,1,0,0,0,69,69,83,1,mening,images/br_mening.png,images/cb_mening.png,0,,,,,,,,,,,,,,,,,,,,,,
,,,,,00004,2023-08-03_14h09.33.104,vbt_B2_day4,2022.2.4,Win32,60.07449237,,,,,,down,0,1.272,,0.059259288,-0.017592621,1,0,0,0,70,70,110,1,zuster,images/br_zuster.png,images/cb_zuster.png,0,,,,,,,,,,,,,,,,,,,,,,
,,,,,00004,2023-08-03_14h09.33.104,vbt_B2_day4,2022.2.4,Win32,60.07449237,,,,,,down,0,1.1018,,0.195370399,-0.03148151,1,0,0,0,71,71,93,1,waarop,images/br_waarop.png,images/cb_waarop.png,0,,,,,,,,,,,,,,,,,,,,,,
,,,,,00004,2023-08-03_14h09.33.104,vbt_B2_day4,2022.2.4,Win32,60.07449237,,,,,,down,0,0.1681,,0.532407464,-0.027777778,1,0,0,0,72,72,48,1,steel,images/br_steel.png,images/cb_steel.png,0,,,,,,,,,,,,,,,,,,,,,,
,,,,,00004,2023-08-03_14h09.33.104,vbt_B2_day4,2022.2.4,Win32,60.07449237,,,,,,down,0,0.1015,,0.249074131,-0.117592621,1,0,0,0,73,73,50,1,stoom,images/br_stoom.png,images/cb_stoom.png,0,,,,,,,,,,,,,,,,,,,,,,
,,,,,00004,2023-08-03_14h09.33.104,vbt_B2_day4,2022.2.4,Win32,60.07449237,,,,,,down,0,10.165,,0.249074131,-0.117592621,1,0,0,0,74,74,145,1,invloed,images/br_invloed.png,images/cb_invloed.png,1,invloed,,,,,,,,,,,,,,,,,,,,,
,,,,,00004,2023-08-03_14h09.33.104,vbt_B2_day4,2022.2.4,Win32,60.07449237,,,,,,down,0,11.6228,,0.249074131,-0.117592621,1,0,0,0,75,75,128,1,prikken,images/br_prikken.png,images/cb_prikken.png,0,,,,,,,,,,,,,,,,,,,,,,
,,,,,00004,2023-08-03_14h09.33.104,vbt_B2_day4,2022.2.4,Win32,60.07449237,,,,,,down,0,2.1671,,0.249074131,-0.117592621,1,0,0,0,76,76,106,1,zingen,images/br_zingen.png,images/cb_zingen.png,1,zingen,,,,,,,,,,,,,,,,,,,,,
,,,,,00004,2023-08-03_14h09.33.104,vbt_B2_day4,2022.2.4,Win32,60.07449237,,,,,,down,0,3.9738,,0.249074131,-0.118518533,1,0,0,0,77,77,183,1,getuigen,images/br_getuigen.png,images/cb_getuigen.png,0,,,,,,,,,,,,,,,,,,,,,,
,,,,,00004,2023-08-03_14h09.33.104,vbt_B2_day4,2022.2.4,Win32,60.07449237,,,,,,down,0,2.0178,,0.249074131,-0.118518533,1,0,0,0,78,78,4,1,moes,images/br_moes.png,images/cb_moes.png,0,,,,,,,,,,,,,,,,,,,,,,
,,,,,00004,2023-08-03_14h09.33.104,vbt_B2_day4,2022.2.4,Win32,60.07449237,,,,,,down,0,1.6347,,0.249074131,-0.118518533,1,0,0,0,79,79,168,1,bisschop,images/br_bisschop.png,images/cb_bisschop.png,0,,,,,,,,,,,,,,,,,,,,,,
,,,,,00004,2023-08-03_14h09.33.104,vbt_B2_day4,2022.2.4,Win32,60.07449237,,,,,,down,0,2.0344,,0.249074131,-0.118518533,1,0,0,0,80,80,139,1,stiekem,images/br_stiekem.png,images/cb_stiekem.png,0,,,,,,,,,,,,,,,,,,,,,,
,,,,,00004,2023-08-03_14h09.33.104,vbt_B2_day4,2022.2.4,Win32,60.07449237,,,,,,down,0,1.0429,,0.249074131,-0.118518533,1,0,0,0,81,81,159,1,sufferd,images/br_sufferd.png,images/cb_sufferd.png,0,,,,,,,,,,,,,,,,,,,,,,
,,,,,00004,2023-08-03_14h09.33.104,vbt_B2_day4,2022.2.4,Win32,60.07449237,,,,,,down,0,0.5539,,0.249074131,-0.118518533,1,0,0,0,82,82,151,1,aanzoek,images/br_aanzoek.png,images/cb_aanzoek.png,0,,,,,,,,,,,,,,,,,,,,,,
,,,,,00004,2023-08-03_14h09.33.104,vbt_B2_day4,2022.2.4,Win32,60.07449237,,,,,,down,0,0.201,,0.249074131,-0.118518533,1,0,0,0,83,83,57,1,steek,images/br_steek.png,images/cb_steek.png,0,,,,,,,,,,,,,,,,,,,,,,
,,,,,00004,2023-08-03_14h09.33.104,vbt_B2_day4,2022.2.4,Win32,60.07449237,,,,,,down,0,0.6345,,0.249074131,-0.118518533,1,0,0,0,84,84,36,1,vuur,images/br_vuur.png,images/cb_vuur.png,0,,,,,,,,,,,,,,,,,,,,,,
,,,,,00004,2023-08-03_14h09.33.104,vbt_B2_day4,2022.2.4,Win32,60.07449237,,,,,,down,0,10.7692,,0.192592621,-0.019444444,1,0,0,0,85,85,158,1,innemen,images/br_innemen.png,images/cb_innemen.png,0,,,,,,,,,,,,,,,,,,,,,,
,,,,,00004,2023-08-03_14h09.33.104,vbt_B2_day4,2022.2.4,Win32,60.07449237,,,,,,down,0,1.0983,,0.228703732,-0.008333333,1,0,0,0,86,86,155,1,gerucht,images/br_gerucht.png,images/cb_gerucht.png,0,,,,,,,,,,,,,,,,,,,,,,
,,,,,00004,2023-08-03_14h09.33.104,vbt_B2_day4,2022.2.4,Win32,60.07449237,,,,,,down,0,2.6448,,0.461111111,0.127777778,1,0,0,0,87,87,86,1,woning,images/br_woning.png,images/cb_woning.png,0,,,,,,,,,,,,,,,,,,,,,,
,,,,,00004,2023-08-03_14h09.33.104,vbt_B2_day4,2022.2.4,Win32,60.07449237,,,,,,down,0,0.4374,,0.218518575,0.009259245,1,0,0,0,88,88,23,1,zout,images/br_zout.png,images/cb_zout.png,0,,,,,,,,,,,,,,,,,,,,,,
,,,,,00004,2023-08-03_14h09.33.104,vbt_B2_day4,2022.2.4,Win32,60.07449237,,,,,,down,0,1.4192,,0.13148151,-0.024074088,1,0,0,0,89,89,141,1,knielen,images/br_knielen.png,images/cb_knielen.png,0,,,,,,,,,,,,,,,,,,,,,,
,,,,,00004,2023-08-03_14h09.33.104,vbt_B2_day4,2022.2.4,Win32,60.07449237,,,,,,down,0,1.0143,,0.167592621,-0.017592621,1,0,0,0,90,90,34,1,vorm,images/br_vorm.png,images/cb_vorm.png,0,,,,,,,,,,,,,,,,,,,,,,
,,,,,00004,2023-08-03_14h09.33.104,vbt_B2_day4,2022.2.4,Win32,60.07449237,,,,,,down,0,5.2012,,0.309259288,0.027777778,1,0,0,0,91,91,198,1,bedoelen,images/br_bedoelen.png,images/cb_bedoelen.png,0,,,,,,,,,,,,,,,,,,,,,,
,,,,,00004,2023-08-03_14h09.33.104,vbt_B2_day4,2022.2.4,Win32,60.07449237,,,,,,down,0,0.4693,,0.103703732,-0.008333333,1,0,0,0,92,92,108,1,excuus,images/br_excuus.png,images/cb_excuus.png,0,,,,,,,,,,,,,,,,,,,,,,
,,,,,00004,2023-08-03_14h09.33.104,vbt_B2_day4,2022.2.4,Win32,60.07449237,,,,,,down,0,5.811,,0.046296353,-0.011111111,1,0,0,0,93,93,164,1,anarchie,images/br_anarchie.png,images/cb_anarchie.png,0,,,,,,,,,,,,,,,,,,,,,,
,,,,,00004,2023-08-03_14h09.33.104,vbt_B2_day4,2022.2.4,Win32,60.07449237,,,,,,down,0,0.8708,,0.038888889,-0.045370399,1,0,0,0,94,94,161,1,attentie,images/br_attentie.png,images/cb_attentie.png,0,,,,,,,,,,,,,,,,,,,,,,
,,,,,00004,2023-08-03_14h09.33.104,vbt_B2_day4,2022.2.4,Win32,60.07449237,,,,,,down,0,0.4229,,0.038888889,-0.045370399,1,0,0,0,95,95,25,1,plek,images/br_plek.png,images/cb_plek.png,1,plek,,,,,,,,,,,,,,,,,,,,,
,,,,,00004,2023-08-03_14h09.33.104,vbt_B2_day4,2022.2.4,Win32,60.07449237,,,,,,down,0,5.9901,,0.195370399,0.079629601,1,0,0,0,96,96,156,1,rechten,images/br_rechten.png,images/cb_rechten.png,0,,,,,,,,,,,,,,,,,,,,,,
,,,,,00004,2023-08-03_14h09.33.104,vbt_B2_day4,2022.2.4,Win32,60.07449237,,,,,,down,0,1.5678,,0.283333333,0.050925912,1,0,0,0,97,97,103,1,joggen,images/br_joggen.png,images/cb_joggen.png,0,,,,,,,,,,,,,,,,,,,,,,
,,,,,00004,2023-08-03_14h09.33.104,vbt_B2_day4,2022.2.4,Win32,60.07449237,,,,,,down,0,3.1342,,0.265740797,-0.017592621,1,0,0,0,98,98,72,1,strak,images/br_strak.png,images/cb_strak.png,0,,,,,,,,,,,,,,,,,,,,,,
,,,,,00004,2023-08-03_14h09.33.104,vbt_B2_day4,2022.2.4,Win32,60.07449237,,,,,,down,0,3.0084,,0.265740797,-0.017592621,1,0,0,0,99,99,126,1,kasteel,images/br_kasteel.png,images/cb_kasteel.png,0,,,,,,,,,,,,,,,,,,,,,,
,,,,,00004,2023-08-03_14h09.33.104,vbt_B2_day4,2022.2.4,Win32,60.07449237,,,,,,down,0,3.0707,,0.265740797,-0.017592621,1,0,0,0,100,100,6,1,diep,images/br_diep.png,images/cb_diep.png,0,,,,,,,,,,,,,,,,,,,,,,
,,,,,00004,2023-08-03_14h09.33.104,vbt_B2_day4,2022.2.4,Win32,60.07449237,,,,,,down,0,0.9404,,0.265740797,-0.017592621,1,0,0,0,101,101,99,1,koffie,images/br_koffie.png,images/cb_koffie.png,0,,,,,,,,,,,,,,,,,,,,,,
,,,,,00004,2023-08-03_14h09.33.104,vbt_B2_day4,2022.2.4,Win32,60.07449237,,,,,,down,0,1.5179,,0.265740797,-0.017592621,1,0,0,0,102,102,140,1,blijven,images/br_blijven.png,images/cb_blijven.png,0,,,,,,,,,,,,,,,,,,,,,,
,,,,,00004,2023-08-03_14h09.33.104,vbt_B2_day4,2022.2.4,Win32,60.07449237,,,,,,down,0,3.7674,,0.265740797,-0.017592621,1,0,0,0,103,103,180,1,openbaar,images/br_openbaar.png,images/cb_openbaar.png,0,,,,,,,,,,,,,,,,,,,,,,
,,,,,00004,2023-08-03_14h09.33.104,vbt_B2_day4,2022.2.4,Win32,60.07449237,,,,,,down,0,9.0718,,0.265740797,-0.017592621,1,0,0,0,104,104,165,1,feestdag,images/br_feestdag.png,images/cb_feestdag.png,0,,,,,,,,,,,,,,,,,,,,,,
,,,,,00004,2023-08-03_14h09.33.104,vbt_B2_day4,2022.2.4,Win32,60.07449237,,,,,,down,0,1.2344,,0.089814843,-0.019444444,1,0,0,0,105,105,118,1,vinger,images/br_vinger.png,images/cb_vinger.png,0,,,,,,,,,,,,,,,,,,,,,,
,,,,,00004,2023-08-03_14h09.33.104,vbt_B2_day4,2022.2.4,Win32,60.07449237,,,,,,down,0,0.3243,,0.257407464,-0.008333333,1,0,0,0,106,106,42,1,bleek,images/br_bleek.png,images/cb_bleek.png,0,,,,,,,,,,,,,,,,,,,,,,
,,,,,00004,2023-08-03_14h09.33.104,vbt_B2_day4,2022.2.4,Win32,60.07449237,,,,,,down,0,0.9707,,0.251851908,0.025925912,1,0,0,0,107,107,35,1,lust,images/br_lust.png,images/cb_lust.png,0,,,,,,,,,,,,,,,,,,,,,,
,,,,,00004,2023-08-03_14h09.33.104,vbt_B2_day4,2022.2.4,Win32,60.07449237,,,,,,down,0,3.091,,0.125925954,-0.029629644,1,0,0,0,108,108,136,1,waarbij,images/br_waarbij.png,images/cb_waarbij.png,0,,,,,,,,,,,,,,,,,,,,,,
,,,,,00004,2023-08-03_14h09.33.104,vbt_B2_day4,2022.2.4,Win32,60.07449237,,,,,,down,0,3.1366,,0.172222222,-0.038888889,1,0,0,0,109,109,121,1,twijfel,images/br_twijfel.png,images/cb_twijfel.png,0,,,,,,,,,,,,,,,,,,,,,,
,,,,,00004,2023-08-03_14h09.33.104,vbt_B2_day4,2022.2.4,Win32,60.07449237,,,,,,down,0,2.6185,,0.085185242,-0.05,1,0,0,0,110,110,66,1,lever,images/br_lever.png,images/cb_lever.png,1,lever,,,,,,,,,,,,,,,,,,,,,
,,,,,00004,2023-08-03_14h09.33.104,vbt_B2_day4,2022.2.4,Win32,60.07449237,,,,,,down,0,0.324,,0.061111111,-0.069444444,1,0,0,0,111,111,114,1,vullen,images/br_vullen.png,images/cb_vullen.png,0,,,,,,,,,,,,,,,,,,,,,,
,,,,,00004,2023-08-03_14h09.33.104,vbt_B2_day4,2022.2.4,Win32,60.07449237,,,,,,down,0,0.9904,,0.322222222,0.007407379,1,0,0,0,112,112,169,1,oprotten,images/br_oprotten.png,images/cb_oprotten.png,0,,,,,,,,,,,,,,,,,,,,,,
,,,,,00004,2023-08-03_14h09.33.104,vbt_B2_day4,2022.2.4,Win32,60.07449237,,,,,,down,0,1.253,,0.322222222,0.007407379,1,0,0,0,113,113,173,1,apparaat,images/br_apparaat.png,images/cb_apparaat.png,0,,,,,,,,,,,,,,,,,,,,,,
,,,,,00004,2023-08-03_14h09.33.104,vbt_B2_day4,2022.2.4,Win32,60.07449237,,,,,,down,0,2.6589,,0.322222222,0.007407379,1,0,0,0,114,114,14,1,rijp,images/br_rijp.png,images/cb_rijp.png,0,,,,,,,,,,,,,,,,,,,,,,
,,,,,00004,2023-08-03_14h09.33.104,vbt_B2_day4,2022.2.4,Win32,60.07449237,,,,,,down,0,1.7699,,0.322222222,0.007407379,1,0,0,0,115,115,125,1,aanzien,images/br_aanzien.png,images/cb_aanzien.png,0,,,,,,,,,,,,,,,,,,,,,,
,,,,,00004,2023-08-03_14h09.33.104,vbt_B2_day4,2022.2.4,Win32,60.07449237,,,,,,down,0,0.385,,0.322222222,0.007407379,1,0,0,0,116,116,2,1,jaar,images/br_jaar.png,images/cb_jaar.png,0,,,,,,,,,,,,,,,,,,,,,,
,,,,,00004,2023-08-03_14h09.33.104,vbt_B2_day4,2022.2.4,Win32,60.07449237,,,,,,down,0,0.4841,,0.322222222,0.007407379,1,0,0,0,117,117,19,1,geit,images/br_geit.png,images/cb_geit.png,0,,,,,,,,,,,,,,,,,,,,,,
,,,,,00004,2023-08-03_14h09.33.104,vbt_B2_day4,2022.2.4,Win32,60.07449237,,,,,,down,0,1.8094,,0.322222222,0.007407379,1,0,0,0,118,118,187,1,opkijken,images/br_opkijken.png,images/cb_opkijken.png,1,opkijken,,,,,,,,,,,,,,,,,,,,,
,,,,,00004,2023-08-03_14h09.33.104,vbt_B2_day4,2022.2.4,Win32,60.07449237,,,,,,down,0,2.8192,,0.322222222,0.007407379,1,0,0,0,119,119,112,1,lukken,images/br_lukken.png,images/cb_lukken.png,0,,,,,,,,,,,,,,,,,,,,,,
,,,,,00004,2023-08-03_14h09.33.104,vbt_B2_day4,2022.2.4,Win32,60.07449237,,,,,,down,0,11.352,,0.322222222,0.008333333,1,0,0,0,120,120,94,1,oceaan,images/br_oceaan.png,images/cb_oceaan.png,0,,,,,,,,,,,,,,,,,,,,,,
,,,,,00004,2023-08-03_14h09.33.104,vbt_B2_day4,2022.2.4,Win32,60.07449237,,,,,,down,0,6.6561,,0.322222222,0.008333333,1,0,0,0,121,121,53,1,baron,images/br_baron.png,images/cb_baron.png,0,,,,,,,,,,,,,,,,,,,,,,
,,,,,00004,2023-08-03_14h09.33.104,vbt_B2_day4,2022.2.4,Win32,60.07449237,,,,,,down,0,4.89,,0.322222222,0.008333333,1,0,0,0,122,122,20,1,site,images/br_site.png,images/cb_site.png,0,,,,,,,,,,,,,,,,,,,,,,
,,,,,00004,2023-08-03_14h09.33.104,vbt_B2_day4,2022.2.4,Win32,60.07449237,,,,,,down,0,3.9344,,0.322222222,0.008333333,1,0,0,0,123,123,123,1,hiervan,images/br_hiervan.png,images/cb_hiervan.png,0,,,,,,,,,,,,,,,,,,,,,,
,,,,,00004,2023-08-03_14h09.33.104,vbt_B2_day4,2022.2.4,Win32,60.07449237,,,,,,down,0,0.1377,,0.322222222,0.008333333,1,0,0,0,124,124,16,1,ziek,images/br_ziek.png,images/cb_ziek.png,0,,,,,,,,,,,,,,,,,,,,,,
,,,,,00004,2023-08-03_14h09.33.104,vbt_B2_day4,2022.2.4,Win32,60.07449237,,,,,,down,0,0.7671,,0.322222222,0.008333333,1,0,0,0,125,125,82,1,muziek,images/br_muziek.png,images/cb_muziek.png,0,,,,,,,,,,,,,,,,,,,,,,
,,,,,00004,2023-08-03_14h09.33.104,vbt_B2_day4,2022.2.4,Win32,60.07449237,,,,,,down,0,2.8366,,0.322222222,0.008333333,1,0,0,0,126,126,176,1,techniek,images/br_techniek.png,images/cb_techniek.png,0,,,,,,,,,,,,,,,,,,,,,,
,,,,,00004,2023-08-03_14h09.33.104,vbt_B2_day4,2022.2.4,Win32,60.07449237,,,,,,down,0,0.9567,,0.322222222,0.008333333,1,0,0,0,127,127,102,1,legaal,images/br_legaal.png,images/cb_legaal.png,0,,,,,,,,,,,,,,,,,,,,,,
,,,,,00004,2023-08-03_14h09.33.104,vbt_B2_day4,2022.2.4,Win32,60.07449237,,,,,,down,0,2.5497,,0.322222222,0.008333333,1,0,0,0,128,128,107,1,maling,images/br_maling.png,images/cb_maling.png,1,maling,,,,,,,,,,,,,,,,,,,,,
,,,,,00004,2023-08-03_14h09.33.104,vbt_B2_day4,2022.2.4,Win32,60.07449237,,,,,,down,0,0.0012,,0.168518575,0.193518511,1,0,0,0,129,129,28,1,stal,images/br_stal.png,images/cb_stal.png,0,,,,,,,,,,,,,,,,,,,,,,
,,,,,00004,2023-08-03_14h09.33.104,vbt_B2_day4,2022.2.4,Win32,60.07449237,,,,,,down,0,0.1752,,0.355555556,0.175,1,0,0,0,130,130,9,1,hier,images/br_hier.png,images/cb_hier.png,0,,,,,,,,,,,,,,,,,,,,,,
,,,,,00004,2023-08-03_14h09.33.104,vbt_B2_day4,2022.2.4,Win32,60.07449237,,,,,,down,0,0.2848,,0.293518575,0.265740734,1,0,0,0,131,131,8,1,knie,images/br_knie.png,images/cb_knie.png,0,,,,,,,,,,,,,,,,,,,,,,
,,,,,00004,2023-08-03_14h09.33.104,vbt_B2_day4,2022.2.4,Win32,60.07449237,,,,,,down,0,0.1018,,0.293518575,0.265740734,1,0,0,0,132,132,52,1,wagon,images/br_wagon.png,images/cb_wagon.png,0,,,,,,,,,,,,,,,,,,,,,,
,,,,,00004,2023-08-03_14h09.33.104,vbt_B2_day4,2022.2.4,Win32,60.07449237,,,,,,down,0,0.5891,,0.218518575,0.337037034,1,0,0,0,133,133,75,1,snoep,images/br_snoep.png,images/cb_snoep.png,0,,,,,,,,,,,,,,,,,,,,,,
,,,,,00004,2023-08-03_14h09.33.104,vbt_B2_day4,2022.2.4,Win32,60.07449237,,,,,,down,0,0.2841,,0.218518575,0.337037034,1,0,0,0,134,134,13,1,kaal,images/br_kaal.png,images/cb_kaal.png,0,,,,,,,,,,,,,,,,,,,,,,
,,,,,00004,2023-08-03_14h09.33.104,vbt_B2_day4,2022.2.4,Win32,60.07449237,,,,,,down,0,6.8505,,0.218518575,0.337037034,1,0,0,0,135,135,146,1,opkomen,images/br_opkomen.png,images/cb_opkomen.png,1,opkomen,,,,,,,,,,,,,,,,,,,,,
,,,,,00004,2023-08-03_14h09.33.104,vbt_B2_day4,2022.2.4,Win32,60.07449237,,,,,,down,0,2.6905,,0.218518575,0.337037034,1,0,0,0,136,136,29,1,baas,images/br_baas.png,images/cb_baas.png,0,,,,,,,,,,,,,,,,,,,,,,
,,,,,00004,2023-08-03_14h09.33.104,vbt_B2_day4,2022.2.4,Win32,60.07449237,,,,,,down,0,3.0745,,0.214814843,0.337037034,1,0,0,0,137,137,105,1,wijlen,images/br_wijlen.png,images/cb_wijlen.png,1,wijlen,,,,,,,,,,,,,,,,,,,,,
,,,,,00004,2023-08-03_14h09.33.104,vbt_B2_day4,2022.2.4,Win32,60.07449237,,,,,,down,0,2.9523,,0.212963019,0.337037034,1,0,0,0,138,138,196,1,nakijken,images/br_nakijken.png,images/cb_nakijken.png,0,,,,,,,,,,,,,,,,,,,,,,
,,,,,00004,2023-08-03_14h09.33.104,vbt_B2_day4,2022.2.4,Win32,60.07449237,,,,,,down,0,0.0173,,0.212963019,0.337037034,1,0,0,0,139,139,37,1,mijn,images/br_mijn.png,images/cb_mijn.png,0,,,,,,,,,,,,,,,,,,,,,,
,,,,,00004,2023-08-03_14h09.33.104,vbt_B2_day4,2022.2.4,Win32,60.07449237,,,,,,down,0,0.1006,,0.212963019,0.337037034,1,0,0,0,140,140,192,1,schaamte,images/br_schaamte.png,images/cb_schaamte.png,0,,,,,,,,,,,,,,,,,,,,,,
,,,,,00004,2023-08-03_14h09.33.104,vbt_B2_day4,2022.2.4,Win32,60.07449237,,,,,,down,0,0.4704,,0.212963019,0.337037034,1,0,0,0,141,141,15,1,soda,images/br_soda.png,images/cb_soda.png,0,,,,,,,,,,,,,,,,,,,,,,
,,,,,00004,2023-08-03_14h09.33.104,vbt_B2_day4,2022.2.4,Win32,60.07449237,,,,,,down,0,1.6863,,0.212037065,0.338888889,1,0,0,0,142,142,132,1,grappen,images/br_grappen.png,images/cb_grappen.png,0,,,,,,,,,,,,,,,,,,,,,,
,,,,,00004,2023-08-03_14h09.33.104,vbt_B2_day4,2022.2.4,Win32,60.07449237,,,,,,down,0,1.0745,,0.212037065,0.338888889,1,0,0,0,143,143,154,1,aflopen,images/br_aflopen.png,images/cb_aflopen.png,0,,,,,,,,,,,,,,,,,,,,,,
,,,,,00004,2023-08-03_14h09.33.104,vbt_B2_day4,2022.2.4,Win32,60.07449237,,,,,,down,0,1.3743,,0.20648151,0.335185178,1,0,0,0,144,144,122,1,waarvan,images/br_waarvan.png,images/cb_waarvan.png,0,,,,,,,,,,,,,,,,,,,,,,
,,,,,00004,2023-08-03_14h09.33.104,vbt_B2_day4,2022.2.4,Win32,60.07449237,,,,,,down,0,1.5754,,0.20648151,0.330555556,1,0,0,0,145,145,87,1,toeval,images/br_toeval.png,images/cb_toeval.png,0,,,,,,,,,,,,,,,,,,,,,,
,,,,,00004,2023-08-03_14h09.33.104,vbt_B2_day4,2022.2.4,Win32,60.07449237,,,,,,down,0,3.3385,,0.20648151,0.330555556,1,0,0,0,146,146,193,1,weeshuis,images/br_weeshuis.png,images/cb_weeshuis.png,0,,,,,,,,,,,,,,,,,,,,,,
,,,,,00004,2023-08-03_14h09.33.104,vbt_B2_day4,2022.2.4,Win32,60.07449237,,,,,,down,0,1.92,,0.20648151,0.330555556,1,0,0,0,147,147,78,1,leren,images/br_leren.png,images/cb_leren.png,0,,,,,,,,,,,,,,,,,,,,,,
,,,,,00004,2023-08-03_14h09.33.104,vbt_B2_day4,2022.2.4,Win32,60.07449237,,,,,,down,0,1.241,,0.205555556,0.330555556,1,0,0,0,148,148,90,1,geluid,images/br_geluid.png,images/cb_geluid.png,0,,,,,,,,,,,,,,,,,,,,,,
,,,,,00004,2023-08-03_14h09.33.104,vbt_B2_day4,2022.2.4,Win32,60.07449237,,,,,,down,0,0.0351,,0.205555556,0.330555556,1,0,0,0,149,149,30,1,uien,images/br_uien.png,images/cb_uien.png,0,,,,,,,,,,,,,,,,,,,,,,
,,,,,00004,2023-08-03_14h09.33.104,vbt_B2_day4,2022.2.4,Win32,60.07449237,,,,,,down,0,6.5081,,0.183333333,0.315740734,1,0,0,0,150,150,194,1,driemaal,images/br_driemaal.png,images/cb_driemaal.png,0,,,,,,,,,,,,,,,,,,,,,,
,,,,,00004,2023-08-03_14h09.33.104,vbt_B2_day4,2022.2.4,Win32,60.07449237,,,,,,down,0,6.3356,,0.184259288,0.312037023,1,0,0,0,151,151,149,1,redding,images/br_redding.png,images/cb_redding.png,0,,,,,,,,,,,,,,,,,,,,,,
,,,,,00004,2023-08-03_14h09.33.104,vbt_B2_day4,2022.2.4,Win32,60.07449237,,,,,,down,0,0.751,,0.05,0.2324074,1,0,0,0,152,152,62,1,knaap,images/br_knaap.png,images/cb_knaap.png,0,,,,,,,,,,,,,,,,,,,,,,
,,,,,00004,2023-08-03_14h09.33.104,vbt_B2_day4,2022.2.4,Win32,60.07449237,,,,,,down,0,0.7129,,0.048148176,0.227777778,1,0,0,0,153,153,134,1,geliefd,images/br_geliefd.png,images/cb_geliefd.png,0,,,,,,,,,,,,,,,,,,,,,,
,,,,,00004,2023-08-03_14h09.33.104,vbt_B2_day4,2022.2.4,Win32,60.07449237,,,,,,down,0,6.6742,,0.048148176,0.227777778,1,0,0,0,154,154,167,1,eenhoorn,images/br_eenhoorn.png,images/cb_eenhoorn.png,0,,,,,,,,,,,,,,,,,,,,,,
,,,,,00004,2023-08-03_14h09.33.104,vbt_B2_day4,2022.2.4,Win32,60.07449237,,,,,,down,0,0.5058,,0.048148176,0.227777778,0,0,1,0,155,155,109,1,totaal,images/br_totaal.png,images/cb_totaal.png,0,,,,,,,,,,,,,,,,,,,,,,
,,,,,00004,2023-08-03_14h09.33.104,vbt_B2_day4,2022.2.4,Win32,60.07449237,,,,,,down,0,1.0167,,0.705555556,0.227777778,1,0,0,0,156,156,89,1,slapen,images/br_slapen.png,images/cb_slapen.png,0,,,,,,,,,,,,,,,,,,,,,,
,,,,,00004,2023-08-03_14h09.33.104,vbt_B2_day4,2022.2.4,Win32,60.07449237,,,,,,down,0,0.6698,,0.705555556,0.227777778,1,0,0,0,157,157,81,1,dubbel,images/br_dubbel.png,images/cb_dubbel.png,0,,,,,,,,,,,,,,,,,,,,,,
,,,,,00004,2023-08-03_14h09.33.104,vbt_B2_day4,2022.2.4,Win32,60.07449237,,,,,,down,0,1.8328,,0.705555556,0.227777778,1,0,0,0,158,158,129,1,verhaal,images/br_verhaal.png,images/cb_verhaal.png,0,,,,,,,,,,,,,,,,,,,,,,
,,,,,00004,2023-08-03_14h09.33.104,vbt_B2_day4,2022.2.4,Win32,60.07449237,,,,,,down,0,23.3816,,0.705555556,0.227777778,1,0,0,0,159,159,111,1,ticket,images/br_ticket.png,images/cb_ticket.png,0,,,,,,,,,,,,,,,,,,,,,,
,,,,,00004,2023-08-03_14h09.33.104,vbt_B2_day4,2022.2.4,Win32,60.07449237,,,,,,down,0,0.1648,,0.705555556,0.227777778,1,0,0,0,160,160,17,1,taal,images/br_taal.png,images/cb_taal.png,0,,,,,,,,,,,,,,,,,,,,,,
,,,,,00004,2023-08-03_14h09.33.104,vbt_B2_day4,2022.2.4,Win32,60.07449237,,,,,,down,0,2.8712,,0.702777778,0.227777778,1,0,0,0,161,161,162,1,uitdelen,images/br_uitdelen.png,images/cb_uitdelen.png,0,,,,,,,,,,,,,,,,,,,,,,
,,,,,00004,2023-08-03_14h09.33.104,vbt_B2_day4,2022.2.4,Win32,60.07449237,,,,,,down,0,1.4514,,0.702777778,0.227777778,1,0,0,0,162,162,12,1,kust,images/br_kust.png,images/cb_kust.png,0,,,,,,,,,,,,,,,,,,,,,,
,,,,,00004,2023-08-03_14h09.33.104,vbt_B2_day4,2022.2.4,Win32,60.07449237,,,,,,down,0,2.1732,,0.702777778,0.227777778,1,0,0,0,163,163,178,1,huisdier,images/br_huisdier.png,images/cb_huisdier.png,0,,,,,,,,,,,,,,,,,,,,,,
,,,,,00004,2023-08-03_14h09.33.104,vbt_B2_day4,2022.2.4,Win32,60.07449237,,,,,,down,0,4.7588,,0.702777778,0.227777778,1,0,0,0,164,164,85,1,heilig,images/br_heilig.png,images/cb_heilig.png,0,,,,,,,,,,,,,,,,,,,,,,
,,,,,00004,2023-08-03_14h09.33.104,vbt_B2_day4,2022.2.4,Win32,60.07449237,,,,,,down,0,2.5261,,0.702777778,0.225925912,1,0,0,0,165,165,88,1,boeien,images/br_boeien.png,images/cb_boeien.png,0,,,,,,,,,,,,,,,,,,,,,,
,,,,,00004,2023-08-03_14h09.33.104,vbt_B2_day4,2022.2.4,Win32,60.07449237,,,,,,down,0,1.5571,,0.702777778,0.225925912,1,0,0,0,166,166,71,1,bever,images/br_bever.png,images/cb_bever.png,0,,,,,,,,,,,,,,,,,,,,,,
,,,,,00004,2023-08-03_14h09.33.104,vbt_B2_day4,2022.2.4,Win32,60.07449237,,,,,,down,0,0.1228,,0.702777778,0.225925912,1,0,0,0,167,167,189,1,aanraden,images/br_aanraden.png,images/cb_aanraden.png,0,,,,,,,,,,,,,,,,,,,,,,
,,,,,00004,2023-08-03_14h09.33.104,vbt_B2_day4,2022.2.4,Win32,60.07449237,,,,,,down,0,1.5564,,0.701851908,0.218518511,1,0,0,0,168,168,51,1,samen,images/br_samen.png,images/cb_samen.png,0,,,,,,,,,,,,,,,,,,,,,,
,,,,,00004,2023-08-03_14h09.33.104,vbt_B2_day4,2022.2.4,Win32,60.07449237,,,,,,down,0,1.3853,,0.701851908,0.215740734,1,0,0,0,169,169,166,1,strikken,images/br_strikken.png,images/cb_strikken.png,0,,,,,,,,,,,,,,,,,,,,,,
,,,,,00004,2023-08-03_14h09.33.104,vbt_B2_day4,2022.2.4,Win32,60.07449237,,,,,,down,0,2.1519,,0.701851908,0.214814801,1,0,0,0,170,170,135,1,gedicht,images/br_gedicht.png,images/cb_gedicht.png,0,,,,,,,,,,,,,,,,,,,,,,
,,,,,00004,2023-08-03_14h09.33.104,vbt_B2_day4,2022.2.4,Win32,60.07449237,,,,,,down,0,0.4665,,0.701851908,0.214814801,1,0,0,0,171,171,56,1,traag,images/br_traag.png,images/cb_traag.png,0,,,,,,,,,,,,,,,,,,,,,,
,,,,,00004,2023-08-03_14h09.33.104,vbt_B2_day4,2022.2.4,Win32,60.07449237,,,,,,down,0,1.5188,,0.701851908,0.214814801,1,0,0,0,172,172,63,1,flirt,images/br_flirt.png,images/cb_flirt.png,0,,,,,,,,,,,,,,,,,,,,,,
,,,,,00004,2023-08-03_14h09.33.104,vbt_B2_day4,2022.2.4,Win32,60.07449237,,,,,,down,0,3.2901,,0.701851908,0.214814801,1,0,0,0,173,173,101,1,staren,images/br_staren.png,images/cb_staren.png,0,,,,,,,,,,,,,,,,,,,,,,
,,,,,00004,2023-08-03_14h09.33.104,vbt_B2_day4,2022.2.4,Win32,60.07449237,,,,,,down,0,17.7485,,0.701851908,0.214814801,1,0,0,0,174,174,92,1,geheim,images/br_geheim.png,images/cb_geheim.png,0,,,,,,,,,,,,,,,,,,,,,,
,,,,,00004,2023-08-03_14h09.33.104,vbt_B2_day4,2022.2.4,Win32,60.07449237,,,,,,down,0,1.5526,,0.699074131,0.208333333,1,0,0,0,175,175,137,1,trekker,images/br_trekker.png,images/cb_trekker.png,0,,,,,,,,,,,,,,,,,,,,,,
,,,,,00004,2023-08-03_14h09.33.104,vbt_B2_day4,2022.2.4,Win32,60.07449237,,,,,,down,0,0.8668,,0.699074131,0.208333333,1,0,0,0,176,176,45,1,piste,images/br_piste.png,images/cb_piste.png,0,,,,,,,,,,,,,,,,,,,,,,
,,,,,00004,2023-08-03_14h09.33.104,vbt_B2_day4,2022.2.4,Win32,60.07449237,,,,,,down,0,3.9411,,0.699074131,0.208333333,1,0,0,0,177,177,160,1,daarheen,images/br_daarheen.png,images/cb_daarheen.png,0,,,,,,,,,,,,,,,,,,,,,,
,,,,,00004,2023-08-03_14h09.33.104,vbt_B2_day4,2022.2.4,Win32,60.07449237,,,,,,down,0,0.0846,,0.702777778,0.2074074,1,0,0,0,178,178,1,1,zaal,images/br_zaal.png,images/cb_zaal.png,0,,,,,,,,,,,,,,,,,,,,,,
,,,,,00004,2023-08-03_14h09.33.104,vbt_B2_day4,2022.2.4,Win32,60.07449237,,,,,,down,0,1.6353,,0.702777778,0.206481467,1,0,0,0,179,179,98,1,kreeft,images/br_kreeft.png,images/cb_kreeft.png,0,,,,,,,,,,,,,,,,,,,,,,
,,,,,00004,2023-08-03_14h09.33.104,vbt_B2_day4,2022.2.4,Win32,60.07449237,,,,,,down,0,1.7002,,0.695370483,0.204629623,1,0,0,0,180,180,152,1,afnemen,images/br_afnemen.png,images/cb_afnemen.png,0,,,,,,,,,,,,,,,,,,,,,,
,,,,,00004,2023-08-03_14h09.33.104,vbt_B2_day4,2022.2.4,Win32,60.07449237,,,,,,down,0,1.9977,,0.694444444,0.201851845,1,0,0,0,181,181,43,1,klauw,images/br_klauw.png,images/cb_klauw.png,0,,,,,,,,,,,,,,,,,,,,,,
,,,,,00004,2023-08-03_14h09.33.104,vbt_B2_day4,2022.2.4,Win32,60.07449237,,,,,,down,0,2.4215,,0.630555556,-0.305555556,1,0,0,0,182,182,104,1,zweven,images/br_zweven.png,images/cb_zweven.png,1,zweven,,,,,,,,,,,,,,,,,,,,,
,,,,,00004,2023-08-03_14h09.33.104,vbt_B2_day4,2022.2.4,Win32,60.07449237,,,,,,down,0,0.8922,,0.630555556,-0.308333333,1,0,0,0,183,183,148,1,smullen,images/br_smullen.png,images/cb_smullen.png,0,,,,,,,,,,,,,,,,,,,,,,
,,,,,00004,2023-08-03_14h09.33.104,vbt_B2_day4,2022.2.4,Win32,60.07449237,,,,,,down,0,7.9754,,0.631481595,-0.309259288,1,0,0,0,184,184,182,1,bijkomen,images/br_bijkomen.png,images/cb_bijkomen.png,0,,,,,,,,,,,,,,,,,,,,,,
,,,,,00004,2023-08-03_14h09.33.104,vbt_B2_day4,2022.2.4,Win32,60.07449237,,,,,,down,0,4.7998,,0.631481595,-0.309259288,1,0,0,0,185,185,113,1,koppen,images/br_koppen.png,images/cb_koppen.png,0,,,,,,,,,,,,,,,,,,,,,,
,,,,,00004,2023-08-03_14h09.33.104,vbt_B2_day4,2022.2.4,Win32,60.07449237,,,,,,down,0,0.2906,,0.631481595,-0.309259288,1,0,0,0,186,186,18,1,blik,images/br_blik.png,images/cb_blik.png,0,,,,,,,,,,,,,,,,,,,,,,
,,,,,00004,2023-08-03_14h09.33.104,vbt_B2_day4,2022.2.4,Win32,60.07449237,,,,,,down,0,0.9516,,0.631481595,-0.309259288,1,0,0,0,187,187,91,1,gezond,images/br_gezond.png,images/cb_gezond.png,0,,,,,,,,,,,,,,,,,,,,,,
,,,,,00004,2023-08-03_14h09.33.104,vbt_B2_day4,2022.2.4,Win32,60.07449237,,,,,,down,0,0.1044,,0.631481595,-0.309259288,1,0,0,0,188,188,33,1,vlek,images/br_vlek.png,images/cb_vlek.png,0,,,,,,,,,,,,,,,,,,,,,,
,,,,,00004,2023-08-03_14h09.33.104,vbt_B2_day4,2022.2.4,Win32,60.07449237,,,,,,down,0,3.2422,,0.631481595,-0.309259288,1,0,0,0,189,189,70,1,ijdel,images/br_ijdel.png,images/cb_ijdel.png,0,,,,,,,,,,,,,,,,,,,,,,
,,,,,00004,2023-08-03_14h09.33.104,vbt_B2_day4,2022.2.4,Win32,60.07449237,,,,,,down,0,0.3243,,0.631481595,-0.309259288,1,0,0,0,190,190,172,1,weigeren,images/br_weigeren.png,images/cb_weigeren.png,0,,,,,,,,,,,,,,,,,,,,,,
,,,,,00004,2023-08-03_14h09.33.104,vbt_B2_day4,2022.2.4,Win32,60.07449237,,,,,,down,0,1.1727,,0.631481595,-0.309259288,1,0,0,0,191,191,61,1,groen,images/br_groen.png,images/cb_groen.png,0,,,,,,,,,,,,,,,,,,,,,,
,,,,,00004,2023-08-03_14h09.33.104,vbt_B2_day4,2022.2.4,Win32,60.07449237,,,,,,down,0,2.1344,,0.631481595,-0.309259288,1,0,0,0,192,192,186,1,voorraad,images/br_voorraad.png,images/cb_voorraad.png,1,voorraad,,,,,,,,,,,,,,,,,,,,,
,,,,,00004,2023-08-03_14h09.33.104,vbt_B2_day4,2022.2.4,Win32,60.07449237,,,,,,down,0,7.7833,,0.631481595,-0.309259288,1,0,0,0,193,193,143,1,hechten,images/br_hechten.png,images/cb_hechten.png,0,,,,,,,,,,,,,,,,,,,,,,
,,,,,00004,2023-08-03_14h09.33.104,vbt_B2_day4,2022.2.4,Win32,60.07449237,,,,,,down,0,1.888,,0.631481595,-0.309259288,1,0,0,0,194,194,181,1,toegeven,images/br_toegeven.png,images/cb_toegeven.png,0,,,,,,,,,,,,,,,,,,,,,,
,,,,,00004,2023-08-03_14h09.33.104,vbt_B2_day4,2022.2.4,Win32,60.07449237,,,,,,down,0,0.1094,,0.631481595,-0.310185242,1,0,0,0,195,195,120,1,klimmen,images/br_klimmen.png,images/cb_klimmen.png,0,,,,,,,,,,,,,,,,,,,,,,
,,,,,00004,2023-08-03_14h09.33.104,vbt_B2_day4,2022.2.4,Win32,60.07449237,,,,,,down,0,2.0378,,0.635185242,-0.315740797,1,0,0,0,196,196,153,1,vervoer,images/br_vervoer.png,images/cb_vervoer.png,0,,,,,,,,,,,,,,,,,,,,,,
,,,,,00004,2023-08-03_14h09.33.104,vbt_B2_day4,2022.2.4,Win32,60.07449237,,,,,,down,0,4.117,,0.635185242,-0.315740797,1,0,0,0,197,197,44,1,flits,images/br_flits.png,images/cb_flits.png,0,,,,,,,,,,,,,,,,,,,,,,
,,,,,00004,2023-08-03_14h09.33.104,vbt_B2_day4,2022.2.4,Win32,60.07449237,,,,,,down,0,0.0315,,0.635185242,-0.315740797,1,0,0,0,198,198,73,1,volop,images/br_volop.png,images/cb_volop.png,0,,,,,,,,,,,,,,,,,,,,,,
,,,,,00004,2023-08-03_14h09.33.104,vbt_B2_day4,2022.2.4,Win32,60.07449237,,,,,,down,0,0.6423,,0.637963019,-0.319444444,1,0,0,0,199,199,7,1,geld,images/br_geld.png,images/cb_geld.png,0,,,,,,,,,,,,,,,,,,,,,,
,,,,,00004,2023-08-03_14h09.33.104,vbt_B2_day4,2022.2.4,Win32,60.07449237,,,,,,,,,,,,,,,,,,,,,,,,,0.28148151,-0.274074131,1,0,0,,,,,,,,,,,,,,,,
,,,,,00004,2023-08-03_14h09.33.104,vbt_B2_day4,2022.2.4,Win32,60.07449237,,,,,,,,,,,,,,,,,,,,,,,,,,,,,,0.28148151,-0.274074131,1,0,0,,,,,,,,,,,
,,,,,00004,2023-08-03_14h09.33.104,vbt_B2_day4,2022.2.4,Win32,60.07449237,,,,,,,,,,,,,,,,,,,,kust,images/br_kust.png,images/cb_kust.png,,kust,,,,,,,,,,,0.28148151,-0.283333333,1,0,0,kust,0,0,0,0,1
,,,,,00004,2023-08-03_14h09.33.104,vbt_B2_day4,2022.2.4,Win32,60.07449237,,,,,,,,,,,,,,,,,,,,noodzaak,images/br_noodzaak.png,images/cb_noodzaak.png,,noodza,,,,,,,,,,,0.035185242,-0.025,1,0,0,noodza,0,1,1,56,1
,,,,,00004,2023-08-03_14h09.33.104,vbt_B2_day4,2022.2.4,Win32,60.07449237,,,,,,,,,,,,,,,,,,,,weigeren,images/br_weigeren.png,images/cb_weigeren.png,,weigeren,,,,,,,,,,,0.236111111,-0.035185199,1,0,0,weigeren,0,2,2,16,1
,,,,,00004,2023-08-03_14h09.33.104,vbt_B2_day4,2022.2.4,Win32,60.07449237,,,,,,,,,,,,,,,,,,,,bruin,images/br_bruin.png,images/cb_bruin.png,,bruin,,,,,,,,,,,0.138888889,-0.016666667,1,0,0,bruin,0,3,3,45,1
,,,,,00004,2023-08-03_14h09.33.104,vbt_B2_day4,2022.2.4,Win32,60.07449237,,,,,,,,,,,,,,,,,,,,steen,images/br_steen.png,images/cb_steen.png,,steen,,,,,,,,,,,0.195370399,-0.037962977,1,0,0,steen,0,4,4,44,1
,,,,,00004,2023-08-03_14h09.33.104,vbt_B2_day4,2022.2.4,Win32,60.07449237,,,,,,,,,,,,,,,,,,,,mekst,images/br_mekst.png,images/cb_mekst.png,,uek,,,,,,,,,,,0.012037065,-0.027777778,1,0,0,uek,0,5,5,27,1
,,,,,00004,2023-08-03_14h09.33.104,vbt_B2_day4,2022.2.4,Win32,60.07449237,,,,,,,,,,,,,,,,,,,,rijp,images/br_rijp.png,images/cb_rijp.png,,rijp,,,,,,,,,,,0.159259288,-0.02129631,1,0,0,rijp,0,6,6,2,1
,,,,,00004,2023-08-03_14h09.33.104,vbt_B2_day4,2022.2.4,Win32,60.07449237,,,,,,,,,,,,,,,,,,,,aanzwaag,images/br_aanzwaag.png,images/cb_aanzwaag.png,,aanzwaag,,,,,,,,,,,-0.035185157,-0.017592621,1,0,0,aanzwaag,0,7,7,38,1
,,,,,00004,2023-08-03_14h09.33.104,vbt_B2_day4,2022.2.4,Win32,60.07449237,,,,,,,,,,,,,,,,,,,,tucket,images/br_tucket.png,images/cb_tucket.png,,tuck,,,,,,,,,,,0.041666667,-0.010185199,1,0,0,tuck,0,8,8,30,1
,,,,,00004,2023-08-03_14h09.33.104,vbt_B2_day4,2022.2.4,Win32,60.07449237,,,,,,,,,,,,,,,,,,,,opkicht,images/br_opkicht.png,images/cb_opkicht.png,,opkicht,,,,,,,,,,,-0.147222222,-0.017592621,1,0,0,opkicht,0,9,9,34,1
,,,,,00004,2023-08-03_14h09.33.104,vbt_B2_day4,2022.2.4,Win32,60.07449237,,,,,,,,,,,,,,,,,,,,drooien,images/br_drooien.png,images/cb_drooien.png,,drooei,,,,,,,,,,,0.050925954,-0.013888889,1,0,0,drooei,0,10,10,32,1
,,,,,00004,2023-08-03_14h09.33.104,vbt_B2_day4,2022.2.4,Win32,60.07449237,,,,,,,,,,,,,,,,,,,,geheim,images/br_geheim.png,images/cb_geheim.png,,geheim,,,,,,,,,,,0.096296353,-0.041666667,1,0,0,geheim,0,11,11,8,1
,,,,,00004,2023-08-03_14h09.33.104,vbt_B2_day4,2022.2.4,Win32,60.07449237,,,,,,,,,,,,,,,,,,,,toevol,images/br_toevol.png,images/cb_toevol.png,,toeval,,,,,,,,,,,0.196296353,-0.033333333,1,0,0,toeval,0,12,12,29,1
,,,,,00004,2023-08-03_14h09.33.104,vbt_B2_day4,2022.2.4,Win32,60.07449237,,,,,,,,,,,,,,,,,,,,apparaat,images/br_apparaat.png,images/cb_apparaat.png,,apparaat,,,,,,,,,,,0.371296353,-0.015740755,1,0,0,apparaat,0,13,13,17,1
,,,,,00004,2023-08-03_14h09.33.104,vbt_B2_day4,2022.2.4,Win32,60.07449237,,,,,,,,,,,,,,,,,,,,haza,images/br_haza.png,images/cb_haza.png,,hana,,,,,,,,,,,0.040740797,-0.051851866,1,0,0,hana,0,14,14,21,1
,,,,,00004,2023-08-03_14h09.33.104,vbt_B2_day4,2022.2.4,Win32,60.07449237,,,,,,,,,,,,,,,,,,,,ezel,images/br_ezel.png,images/cb_ezel.png,,ezel,,,,,,,,,,,0.127777778,-0.028703732,1,0,0,ezel,0,15,15,42,1
,,,,,00004,2023-08-03_14h09.33.104,vbt_B2_day4,2022.2.4,Win32,60.07449237,,,,,,,,,,,,,,,,,,,,flippen,images/br_flippen.png,images/cb_flippen.png,,flippen,,,,,,,,,,,0.172222222,-0.022222222,1,0,0,flippen,0,16,16,54,1
,,,,,00004,2023-08-03_14h09.33.104,vbt_B2_day4,2022.2.4,Win32,60.07449237,,,,,,,,,,,,,,,,,,,,pijnlijk,images/br_pijnlijk.png,images/cb_pijnlijk.png,,pijnlijk,,,,,,,,,,,0.263888889,-0.019444444,1,0,0,pijnlijk,0,17,17,58,1
,,,,,00004,2023-08-03_14h09.33.104,vbt_B2_day4,2022.2.4,Win32,60.07449237,,,,,,,,,,,,,,,,,,,,heengaan,images/br_heengaan.png,images/cb_heengaan.png,,heengaan,,,,,,,,,,,0.378703732,-0.024074088,1,0,0,heengaan,0,18,18,19,1
,,,,,00004,2023-08-03_14h09.33.104,vbt_B2_day4,2022.2.4,Win32,60.07449237,,,,,,,,,,,,,,,,,,,,gebit,images/br_gebit.png,images/cb_gebit.png,,gebit,,,,,,,,,,,0.032407464,-0.029629644,1,0,0,gebit,0,19,19,6,1
,,,,,00004,2023-08-03_14h09.33.104,vbt_B2_day4,2022.2.4,Win32,60.07449237,,,,,,,,,,,,,,,,,,,,paalbaak,images/br_paalbaak.png,images/cb_paalbaak.png,,paalbaak,,,,,,,,,,,0.216666667,-0.014814843,1,0,0,paalbaak,0,20,20,39,1
,,,,,00004,2023-08-03_14h09.33.104,vbt_B2_day4,2022.2.4,Win32,60.07449237,,,,,,,,,,,,,,,,,,,,waarop,images/br_waarop.png,images/cb_waarop.png,,waarop,,,,,,,,,,,0.267592621,-0.029629644,1,0,0,waarop,0,21,21,9,1
,,,,,00004,2023-08-03_14h09.33.104,vbt_B2_day4,2022.2.4,Win32,60.07449237,,,,,,,,,,,,,,,,,,,,gebog,images/br_gebog.png,images/cb_gebog.png,,gebog,,,,,,,,,,,0.171296353,-0.078703732,1,0,0,gebog,0,22,22,24,1
,,,,,00004,2023-08-03_14h09.33.104,vbt_B2_day4,2022.2.4,Win32,60.07449237,,,,,,,,,,,,,,,,,,,,warel,images/br_warel.png,images/cb_warel.png,,warel,,,,,,,,,,,0.041666667,-0.015740755,1,0,0,warel,0,23,23,26,1
,,,,,00004,2023-08-03_14h09.33.104,vbt_B2_day4,2022.2.4,Win32,60.07449237,,,,,,,,,,,,,,,,,,,,snee,images/br_snee.png,images/cb_snee.png,,snee,,,,,,,,,,,0.25648151,0.00370369,1,0,0,snee,0,24,24,40,1
,,,,,00004,2023-08-03_14h09.33.104,vbt_B2_day4,2022.2.4,Win32,60.07449237,,,,,,,,,,,,,,,,,,,,fran,images/br_fran.png,images/cb_fran.png,,fran,,,,,,,,,,,0.023148176,-0.030555556,1,0,0,fran,0,25,25,22,1
,,,,,00004,2023-08-03_14h09.33.104,vbt_B2_day4,2022.2.4,Win32,60.07449237,,,,,,,,,,,,,,,,,,,,dalen,images/br_dalen.png,images/cb_dalen.png,,dalen,,,,,,,,,,,0.10648151,-0.029629644,1,0,0,dalen,0,26,26,46,1
,,,,,00004,2023-08-03_14h09.33.104,vbt_B2_day4,2022.2.4,Win32,60.07449237,,,,,,,,,,,,,,,,,,,,dozijn,images/br_dozijn.png,images/cb_dozijn.png,,dozijn,,,,,,,,,,,0.162037065,-0.042592621,1,0,0,dozijn,0,27,27,48,1
,,,,,00004,2023-08-03_14h09.33.104,vbt_B2_day4,2022.2.4,Win32,60.07449237,,,,,,,,,,,,,,,,,,,,gaaf,images/br_gaaf.png,images/cb_gaaf.png,,gaaf,,,,,,,,,,,0.117592621,0.019444444,1,0,0,gaaf,0,28,28,43,1
,,,,,00004,2023-08-03_14h09.33.104,vbt_B2_day4,2022.2.4,Win32,60.07449237,,,,,,,,,,,,,,,,,,,,broodje,images/br_broodje.png,images/cb_broodje.png,,broodje,,,,,,,,,,,0.082407464,0.012962935,1,0,0,broodje,0,29,29,55,1
,,,,,00004,2023-08-03_14h09.33.104,vbt_B2_day4,2022.2.4,Win32,60.07449237,,,,,,,,,,,,,,,,,,,,gijf,images/br_gijf.png,images/cb_gijf.png,,gijf,,,,,,,,,,,0.069444444,-0.016666667,1,0,0,gijf,0,30,30,23,1
,,,,,00004,2023-08-03_14h09.33.104,vbt_B2_day4,2022.2.4,Win32,60.07449237,,,,,,,,,,,,,,,,,,,,stemming,images/br_stemming.png,images/cb_stemming.png,,stekking,,,,,,,,,,,0.053703732,-0.012037065,1,0,0,stekking,0,31,31,18,1
,,,,,00004,2023-08-03_14h09.33.104,vbt_B2_day4,2022.2.4,Win32,60.07449237,,,,,,,,,,,,,,,,,,,,midden,images/br_midden.png,images/cb_midden.png,,midden,,,,,,,,,,,0.090740797,-0.012962977,1,0,0,midden,0,32,32,50,1
,,,,,00004,2023-08-03_14h09.33.104,vbt_B2_day4,2022.2.4,Win32,60.07449237,,,,,,,,,,,,,,,,,,,,zwek,images/br_zwek.png,images/cb_zwek.png,,zwek,,,,,,,,,,,0.072222222,-0.024074088,1,0,0,zwek,0,33,33,20,1
,,,,,00004,2023-08-03_14h09.33.104,vbt_B2_day4,2022.2.4,Win32,60.07449237,,,,,,,,,,,,,,,,,,,,getucht,images/br_getucht.png,images/cb_getucht.png,,geducht,,,,,,,,,,,0.007407464,-0.030555556,1,0,0,geducht,0,34,34,35,1
,,,,,00004,2023-08-03_14h09.33.104,vbt_B2_day4,2022.2.4,Win32,60.07449237,,,,,,,,,,,,,,,,,,,,lappen,images/br_lappen.png,images/cb_lappen.png,,lapp..,,,,,,,,,,,0.012963019,-0.015740755,1,0,0,lapp..,0,35,35,49,1
,,,,,00004,2023-08-03_14h09.33.104,vbt_B2_day4,2022.2.4,Win32,60.07449237,,,,,,,,,,,,,,,,,,,,kaal,images/br_kaal.png,images/cb_kaal.png,,kaal,,,,,,,,,,,0.161111111,0.020370356,1,0,0,kaal,0,36,36,1,1
,,,,,00004,2023-08-03_14h09.33.104,vbt_B2_day4,2022.2.4,Win32,60.07449237,,,,,,,,,,,,,,,,,,,,opruimen,images/br_opruimen.png,images/cb_opruimen.png,,opruimen,,,,,,,,,,,0.427777778,-0.05648151,1,0,0,opruimen,0,37,37,59,1
,,,,,00004,2023-08-03_14h09.33.104,vbt_B2_day4,2022.2.4,Win32,60.07449237,,,,,,,,,,,,,,,,,,,,schenden,images/br_schenden.png,images/cb_schenden.png,,schenden,,,,,,,,,,,0.169444444,-0.039814843,1,0,0,schenden,0,38,38,57,1
,,,,,00004,2023-08-03_14h09.33.104,vbt_B2_day4,2022.2.4,Win32,60.07449237,,,,,,,,,,,,,,,,,,,,eerst,images/br_eerst.png,images/cb_eerst.png,,eerst,,,,,,,,,,,0.172222222,-0.030555556,1,0,0,eerst,0,39,39,47,1
,,,,,00004,2023-08-03_14h09.33.104,vbt_B2_day4,2022.2.4,Win32,60.07449237,,,,,,,,,,,,,,,,,,,,drummer,images/br_drummer.png,images/cb_drummer.png,,doummer,,,,,,,,,,,0.179629686,-0.029629644,1,0,0,doummer,0,40,40,53,1
,,,,,00004,2023-08-03_14h09.33.104,vbt_B2_day4,2022.2.4,Win32,60.07449237,,,,,,,,,,,,,,,,,,,,vreten,images/br_vreten.png,images/cb_vreten.png,,vaeten,,,,,,,,,,,0.022222222,-0.047222222,1,0,0,vaeten,0,41,41,11,1
,,,,,00004,2023-08-03_14h09.33.104,vbt_B2_day4,2022.2.4,Win32,60.07449237,,,,,,,,,,,,,,,,,,,,soda,images/br_soda.png,images/cb_soda.png,,soda,,,,,,,,,,,0.157407464,-0.050925954,1,0,0,soda,0,42,42,3,1
,,,,,00004,2023-08-03_14h09.33.104,vbt_B2_day4,2022.2.4,Win32,60.07449237,,,,,,,,,,,,,,,,,,,,bisschap,images/br_bisschap.png,images/cb_bisschap.png,,bisschop,,,,,,,,,,,0.024074131,-0.034259288,1,0,0,bisschop,0,43,43,36,1
,,,,,00004,2023-08-03_14h09.33.104,vbt_B2_day4,2022.2.4,Win32,60.07449237,,,,,,,,,,,,,,,,,,,,seizoon,images/br_seizoon.png,images/cb_seizoon.png,,seizoon,,,,,,,,,,,0.108333333,-0.05648151,1,0,0,seizoon,0,44,44,33,1
,,,,,00004,2023-08-03_14h09.33.104,vbt_B2_day4,2022.2.4,Win32,60.07449237,,,,,,,,,,,,,,,,,,,,zaalrijk,images/br_zaalrijk.png,images/cb_zaalrijk.png,,zaalrijk,,,,,,,,,,,0.233333333,-0.023148176,1,0,0,zaalrijk,0,45,45,37,1
,,,,,00004,2023-08-03_14h09.33.104,vbt_B2_day4,2022.2.4,Win32,60.07449237,,,,,,,,,,,,,,,,,,,,geliefd,images/br_geliefd.png,images/cb_geliefd.png,,geliefd,,,,,,,,,,,0.159259288,-0.043518533,1,0,0,geliefd,0,46,46,14,1
,,,,,00004,2023-08-03_14h09.33.104,vbt_B2_day4,2022.2.4,Win32,60.07449237,,,,,,,,,,,,,,,,,,,,grappen,images/br_grappen.png,images/cb_grappen.png,,grappen,,,,,,,,,,,0.180555556,-0.054629644,1,0,0,grappen,0,47,47,12,1
,,,,,00004,2023-08-03_14h09.33.104,vbt_B2_day4,2022.2.4,Win32,60.07449237,,,,,,,,,,,,,,,,,,,,oceaan,images/br_oceaan.png,images/cb_oceaan.png,,oceaan,,,,,,,,,,,-0.012962935,-0.029629644,1,0,0,oceaan,0,48,48,10,1
,,,,,00004,2023-08-03_14h09.33.104,vbt_B2_day4,2022.2.4,Win32,60.07449237,,,,,,,,,,,,,,,,,,,,strok,images/br_strok.png,images/cb_strok.png,,strok,,,,,,,,,,,0.186111111,-0.015740755,1,0,0,strok,0,49,49,25,1
,,,,,00004,2023-08-03_14h09.33.104,vbt_B2_day4,2022.2.4,Win32,60.07449237,,,,,,,,,,,,,,,,,,,,schotel,images/br_schotel.png,images/cb_schotel.png,,schotel,,,,,,,,,,,0.058333333,-0.024074088,1,0,0,schotel,0,50,50,52,1
,,,,,00004,2023-08-03_14h09.33.104,vbt_B2_day4,2022.2.4,Win32,60.07449237,,,,,,,,,,,,,,,,,,,,gedicht,images/br_gedicht.png,images/cb_gedicht.png,,gedicht,,,,,,,,,,,0.424074131,-0.078703732,1,0,0,gedicht,0,51,51,15,1
,,,,,00004,2023-08-03_14h09.33.104,vbt_B2_day4,2022.2.4,Win32,60.07449237,,,,,,,,,,,,,,,,,,,,wozing,images/br_wozing.png,images/cb_wozing.png,,wozing,,,,,,,,,,,0.024074131,-0.016666667,1,0,0,wozing,0,52,52,28,1
,,,,,00004,2023-08-03_14h09.33.104,vbt_B2_day4,2022.2.4,Win32,60.07449237,,,,,,,,,,,,,,,,,,,,baron,images/br_baron.png,images/cb_baron.png,,baron,,,,,,,,,,,0.072222222,-0.023148176,1,0,0,baron,0,53,53,5,1
,,,,,00004,2023-08-03_14h09.33.104,vbt_B2_day4,2022.2.4,Win32,60.07449237,,,,,,,,,,,,,,,,,,,,gaan,images/br_gaan.png,images/cb_gaan.png,,gaan,,,,,,,,,,,0.174074131,-0.000925954,1,0,0,gaan,0,54,54,41,1
,,,,,00004,2023-08-03_14h09.33.104,vbt_B2_day4,2022.2.4,Win32,60.07449237,,,,,,,,,,,,,,,,,,,,seizoen,images/br_seizoen.png,images/cb_seizoen.png,,seizoen,,,,,,,,,,,0.226851908,-0.023148176,1,0,0,seizoen,0,55,55,13,1
,,,,,00004,2023-08-03_14h09.33.104,vbt_B2_day4,2022.2.4,Win32,60.07449237,,,,,,,,,,,,,,,,,,,,pittig,images/br_pittig.png,images/cb_pittig.png,,pittig,,,,,,,,,,,0.080555556,-0.012037065,1,0,0,pittig,0,56,56,51,1
,,,,,00004,2023-08-03_14h09.33.104,vbt_B2_day4,2022.2.4,Win32,60.07449237,,,,,,,,,,,,,,,,,,,,sulbon,images/br_sulbon.png,images/cb_sulbon.png,,sulbon,,,,,,,,,,,0.207407464,-0.00648151,1,0,0,sulbon,0,57,57,31,1
,,,,,00004,2023-08-03_14h09.33.104,vbt_B2_day4,2022.2.4,Win32,60.07449237,,,,,,,,,,,,,,,,,,,,praat,images/br_praat.png,images/cb_praat.png,,praat,,,,,,,,,,,0.169444444,-0.023148176,1,0,0,praat,0,58,58,7,1
,,,,,00004,2023-08-03_14h09.33.104,vbt_B2_day4,2022.2.4,Win32,60.07449237,,,,,,,,,,,,,,,,,,,,wagon,images/br_wagon.png,images/cb_wagon.png,,wagon,,,,,,,,,,,0.229629686,-0.035185199,1,0,0,wagon,0,59,59,4,1
,,,,,00004,2023-08-03_14h09.33.104,vbt_B2_day4,2022.2.4,Win32,60.07449237,,,,,,,,,,,,,,,,,,,,,,,,,,,,,,,,,,,,,,,,,,,,,
