welcome_mouse.x,welcome_mouse.y,welcome_mouse.leftButton,welcome_mouse.midButton,welcome_mouse.rightButton,"ID",date,expName,psychopyVersion,OS,frameRate,trainInstr_mouse.x,trainInstr_mouse.y,trainInstr_mouse.leftButton,trainInstr_mouse.midButton,trainInstr_mouse.rightButton,translation_key.keys,translation_key.corr,translation_key.rt,word_rsp.text,trWrd_mouse.x,trWrd_mouse.y,trWrd_mouse.leftButton,trWrd_mouse.midButton,trWrd_mouse.rightButton,train_loop.thisRepN,train_loop.thisTrialN,train_loop.thisN,train_loop.thisIndex,train_loop.ran,nlWrd,brWrd,cbWrd,test,testResp,mouse.x,mouse.y,mouse.leftButton,mouse.midButton,mouse.rightButton,testInstr_mouse.x,testInstr_mouse.y,testInstr_mouse.leftButton,testInstr_mouse.midButton,testInstr_mouse.rightButton,test_mouse.x,test_mouse.y,test_mouse.leftButton,test_mouse.midButton,test_mouse.rightButton,test_response.text,test_loop.thisRepN,test_loop.thisTrialN,test_loop.thisN,test_loop.thisIndex,test_loop.ran
-0.193518533,-0.224074116,1,0,0,00107,2023-11-20_12h46.13.677,vbt_B2_day4,2022.2.4,Win32,144.0507058,,,,,,,,,,,,,,,,,,,,,,,,,,,,,,,,,,,,,,,,,,,,,
,,,,,00107,2023-11-20_12h46.13.677,vbt_B2_day4,2022.2.4,Win32,144.0507058,-0.193518533,-0.224074116,1,0,0,,,,,,,,,,,,,,,,,,,,,,,,,,,,,,,,,,,,,,,,
,,,,,00107,2023-11-20_12h46.13.677,vbt_B2_day4,2022.2.4,Win32,144.0507058,,,,,,down,0,0.2673,,-0.193518533,-0.224074116,1,0,0,0,0,0,53,1,baron,images/br_baron.png,images/cb_baron.png,0,,,,,,,,,,,,,,,,,,,,,,
,,,,,00107,2023-11-20_12h46.13.677,vbt_B2_day4,2022.2.4,Win32,144.0507058,,,,,,down,0,0.1936,,-0.193518533,-0.224074116,1,0,0,0,1,1,150,1,gegeven,images/br_gegeven.png,images/cb_gegeven.png,0,,,,,,,,,,,,,,,,,,,,,,
,,,,,00107,2023-11-20_12h46.13.677,vbt_B2_day4,2022.2.4,Win32,144.0507058,,,,,,down,0,0.39,,-0.193518533,-0.224074116,1,0,0,0,2,2,188,1,strekken,images/br_strekken.png,images/cb_strekken.png,0,,,,,,,,,,,,,,,,,,,,,,
,,,,,00107,2023-11-20_12h46.13.677,vbt_B2_day4,2022.2.4,Win32,144.0507058,,,,,,down,0,0.1866,,-0.193518533,-0.224074116,1,0,0,0,3,3,20,1,site,images/br_site.png,images/cb_site.png,0,,,,,,,,,,,,,,,,,,,,,,
,,,,,00107,2023-11-20_12h46.13.677,vbt_B2_day4,2022.2.4,Win32,144.0507058,,,,,,down,0,0.2578,,-0.193518533,-0.224074116,1,0,0,0,4,4,128,1,prikken,images/br_prikken.png,images/cb_prikken.png,0,,,,,,,,,,,,,,,,,,,,,,
,,,,,00107,2023-11-20_12h46.13.677,vbt_B2_day4,2022.2.4,Win32,144.0507058,,,,,,down,0,0.0514,,-0.193518533,-0.224074116,1,0,0,0,5,5,194,1,driemaal,images/br_driemaal.png,images/cb_driemaal.png,0,,,,,,,,,,,,,,,,,,,,,,
,,,,,00107,2023-11-20_12h46.13.677,vbt_B2_day4,2022.2.4,Win32,144.0507058,,,,,,down,0,0.2035,,-0.193518533,-0.224074116,1,0,0,0,6,6,126,1,kasteel,images/br_kasteel.png,images/cb_kasteel.png,0,,,,,,,,,,,,,,,,,,,,,,
,,,,,00107,2023-11-20_12h46.13.677,vbt_B2_day4,2022.2.4,Win32,144.0507058,,,,,,down,0,0.1601,,-0.193518533,-0.224074116,1,0,0,0,7,7,183,1,getuigen,images/br_getuigen.png,images/cb_getuigen.png,0,,,,,,,,,,,,,,,,,,,,,,
,,,,,00107,2023-11-20_12h46.13.677,vbt_B2_day4,2022.2.4,Win32,144.0507058,,,,,,down,0,0.1898,,-0.193518533,-0.224074116,1,0,0,0,8,8,141,1,knielen,images/br_knielen.png,images/cb_knielen.png,0,,,,,,,,,,,,,,,,,,,,,,
,,,,,00107,2023-11-20_12h46.13.677,vbt_B2_day4,2022.2.4,Win32,144.0507058,,,,,,down,0,0.0353,,-0.193518533,-0.224074116,1,0,0,0,9,9,32,1,palm,images/br_palm.png,images/cb_palm.png,0,,,,,,,,,,,,,,,,,,,,,,
,,,,,00107,2023-11-20_12h46.13.677,vbt_B2_day4,2022.2.4,Win32,144.0507058,,,,,,down,0,0.2967,,-0.193518533,-0.224074116,1,0,0,0,10,10,81,1,dubbel,images/br_dubbel.png,images/cb_dubbel.png,0,,,,,,,,,,,,,,,,,,,,,,
,,,,,00107,2023-11-20_12h46.13.677,vbt_B2_day4,2022.2.4,Win32,144.0507058,,,,,,down,0,0.4387,,-0.193518533,-0.224074116,1,0,0,0,11,11,144,1,eetlust,images/br_eetlust.png,images/cb_eetlust.png,1,eetlust,,,,,,,,,,,,,,,,,,,,,
,,,,,00107,2023-11-20_12h46.13.677,vbt_B2_day4,2022.2.4,Win32,144.0507058,,,,,,down,0,0.1697,,-0.193518533,-0.224074116,1,0,0,0,12,12,57,1,steek,images/br_steek.png,images/cb_steek.png,0,,,,,,,,,,,,,,,,,,,,,,
,,,,,00107,2023-11-20_12h46.13.677,vbt_B2_day4,2022.2.4,Win32,144.0507058,,,,,,down,0,2.221,,-0.193518533,-0.224074116,1,0,0,0,13,13,184,1,aandelen,images/br_aandelen.png,images/cb_aandelen.png,1,aandelen,,,,,,,,,,,,,,,,,,,,,
,,,,,00107,2023-11-20_12h46.13.677,vbt_B2_day4,2022.2.4,Win32,144.0507058,,,,,,down,0,0.0634,,-0.193518533,-0.224074116,1,0,0,0,14,14,28,1,stal,images/br_stal.png,images/cb_stal.png,0,,,,,,,,,,,,,,,,,,,,,,
,,,,,00107,2023-11-20_12h46.13.677,vbt_B2_day4,2022.2.4,Win32,144.0507058,,,,,,down,0,0.2248,,-0.193518533,-0.224074116,1,0,0,0,15,15,90,1,geluid,images/br_geluid.png,images/cb_geluid.png,0,,,,,,,,,,,,,,,,,,,,,,
,,,,,00107,2023-11-20_12h46.13.677,vbt_B2_day4,2022.2.4,Win32,144.0507058,,,,,,down,0,0.0933,,-0.193518533,-0.224074116,1,0,0,0,16,16,120,1,klimmen,images/br_klimmen.png,images/cb_klimmen.png,0,,,,,,,,,,,,,,,,,,,,,,
,,,,,00107,2023-11-20_12h46.13.677,vbt_B2_day4,2022.2.4,Win32,144.0507058,,,,,,down,0,0.3984,,-0.193518533,-0.224074116,1,0,0,0,17,17,113,1,koppen,images/br_koppen.png,images/cb_koppen.png,0,,,,,,,,,,,,,,,,,,,,,,
,,,,,00107,2023-11-20_12h46.13.677,vbt_B2_day4,2022.2.4,Win32,144.0507058,,,,,,down,0,0.3059,,-0.193518533,-0.224074116,1,0,0,0,18,18,47,1,kabel,images/br_kabel.png,images/cb_kabel.png,0,,,,,,,,,,,,,,,,,,,,,,
,,,,,00107,2023-11-20_12h46.13.677,vbt_B2_day4,2022.2.4,Win32,144.0507058,,,,,,down,0,0.1703,,-0.193518533,-0.224074116,1,0,0,0,19,19,133,1,seizoen,images/br_seizoen.png,images/cb_seizoen.png,0,,,,,,,,,,,,,,,,,,,,,,
,,,,,00107,2023-11-20_12h46.13.677,vbt_B2_day4,2022.2.4,Win32,144.0507058,,,,,,down,0,0.3968,,-0.193518533,-0.224074116,1,0,0,0,20,20,103,1,joggen,images/br_joggen.png,images/cb_joggen.png,0,,,,,,,,,,,,,,,,,,,,,,
,,,,,00107,2023-11-20_12h46.13.677,vbt_B2_day4,2022.2.4,Win32,144.0507058,,,,,,down,0,2.0094,,-0.193518533,-0.224074116,1,0,0,0,21,21,186,1,voorraad,images/br_voorraad.png,images/cb_voorraad.png,1,voorraad,,,,,,,,,,,,,,,,,,,,,
,,,,,00107,2023-11-20_12h46.13.677,vbt_B2_day4,2022.2.4,Win32,144.0507058,,,,,,down,0,0.403,,-0.193518533,-0.224074116,1,0,0,0,22,22,142,1,snuiven,images/br_snuiven.png,images/cb_snuiven.png,0,,,,,,,,,,,,,,,,,,,,,,
,,,,,00107,2023-11-20_12h46.13.677,vbt_B2_day4,2022.2.4,Win32,144.0507058,,,,,,down,0,0.3964,,-0.193518533,-0.224074116,1,0,0,0,23,23,21,1,mist,images/br_mist.png,images/cb_mist.png,0,,,,,,,,,,,,,,,,,,,,,,
,,,,,00107,2023-11-20_12h46.13.677,vbt_B2_day4,2022.2.4,Win32,144.0507058,,,,,,down,0,0.3692,,-0.193518533,-0.224074116,1,0,0,0,24,24,132,1,grappen,images/br_grappen.png,images/cb_grappen.png,0,,,,,,,,,,,,,,,,,,,,,,
,,,,,00107,2023-11-20_12h46.13.677,vbt_B2_day4,2022.2.4,Win32,144.0507058,,,,,,down,0,0.2713,,-0.193518533,-0.224074116,1,0,0,0,25,25,75,1,snoep,images/br_snoep.png,images/cb_snoep.png,0,,,,,,,,,,,,,,,,,,,,,,
,,,,,00107,2023-11-20_12h46.13.677,vbt_B2_day4,2022.2.4,Win32,144.0507058,,,,,,down,0,0.2977,,-0.193518533,-0.224074116,1,0,0,0,26,26,122,1,waarvan,images/br_waarvan.png,images/cb_waarvan.png,0,,,,,,,,,,,,,,,,,,,,,,
,,,,,00107,2023-11-20_12h46.13.677,vbt_B2_day4,2022.2.4,Win32,144.0507058,,,,,,down,0,0.6865,,-0.193518533,-0.224074116,1,0,0,0,27,27,97,1,loyaal,images/br_loyaal.png,images/cb_loyaal.png,0,,,,,,,,,,,,,,,,,,,,,,
,,,,,00107,2023-11-20_12h46.13.677,vbt_B2_day4,2022.2.4,Win32,144.0507058,,,,,,down,0,0.6069,,-0.193518533,-0.224074116,1,0,0,0,28,28,55,1,praat,images/br_praat.png,images/cb_praat.png,0,,,,,,,,,,,,,,,,,,,,,,
,,,,,00107,2023-11-20_12h46.13.677,vbt_B2_day4,2022.2.4,Win32,144.0507058,,,,,,down,0,6.1597,,-0.193518533,-0.224074116,1,0,0,0,29,29,65,1,parel,images/br_parel.png,images/cb_parel.png,1,parel,,,,,,,,,,,,,,,,,,,,,
,,,,,00107,2023-11-20_12h46.13.677,vbt_B2_day4,2022.2.4,Win32,144.0507058,,,,,,down,0,0.1842,,-0.193518533,-0.224074116,1,0,0,0,30,30,14,1,rijp,images/br_rijp.png,images/cb_rijp.png,0,,,,,,,,,,,,,,,,,,,,,,
,,,,,00107,2023-11-20_12h46.13.677,vbt_B2_day4,2022.2.4,Win32,144.0507058,,,,,,down,0,0.2159,,-0.193518533,-0.224074116,1,0,0,0,31,31,118,1,vinger,images/br_vinger.png,images/cb_vinger.png,0,,,,,,,,,,,,,,,,,,,,,,
,,,,,00107,2023-11-20_12h46.13.677,vbt_B2_day4,2022.2.4,Win32,144.0507058,,,,,,down,0,0.2321,,-0.193518533,-0.224074116,1,0,0,0,32,32,199,1,beseffen,images/br_beseffen.png,images/cb_beseffen.png,0,,,,,,,,,,,,,,,,,,,,,,
,,,,,00107,2023-11-20_12h46.13.677,vbt_B2_day4,2022.2.4,Win32,144.0507058,,,,,,down,0,0.4457,,-0.193518533,-0.224074116,1,0,0,0,33,33,119,1,liefje,images/br_liefje.png,images/cb_liefje.png,0,,,,,,,,,,,,,,,,,,,,,,
,,,,,00107,2023-11-20_12h46.13.677,vbt_B2_day4,2022.2.4,Win32,144.0507058,,,,,,down,0,0.3952,,-0.193518533,-0.224074116,1,0,0,0,34,34,195,1,middelen,images/br_middelen.png,images/cb_middelen.png,0,,,,,,,,,,,,,,,,,,,,,,
,,,,,00107,2023-11-20_12h46.13.677,vbt_B2_day4,2022.2.4,Win32,144.0507058,,,,,,down,0,0.3283,,-0.193518533,-0.224074116,1,0,0,0,35,35,33,1,vlek,images/br_vlek.png,images/cb_vlek.png,0,,,,,,,,,,,,,,,,,,,,,,
,,,,,00107,2023-11-20_12h46.13.677,vbt_B2_day4,2022.2.4,Win32,144.0507058,,,,,,down,0,2.6742,,-0.193518533,-0.224074116,1,0,0,0,36,36,146,1,opkomen,images/br_opkomen.png,images/cb_opkomen.png,1,opkomen,,,,,,,,,,,,,,,,,,,,,
,,,,,00107,2023-11-20_12h46.13.677,vbt_B2_day4,2022.2.4,Win32,144.0507058,,,,,,down,0,0.1549,,-0.193518533,-0.224074116,1,0,0,0,37,37,13,1,kaal,images/br_kaal.png,images/cb_kaal.png,0,,,,,,,,,,,,,,,,,,,,,,
,,,,,00107,2023-11-20_12h46.13.677,vbt_B2_day4,2022.2.4,Win32,144.0507058,,,,,,down,0,0.2739,,-0.193518533,-0.224074116,1,0,0,0,38,38,101,1,staren,images/br_staren.png,images/cb_staren.png,0,,,,,,,,,,,,,,,,,,,,,,
,,,,,00107,2023-11-20_12h46.13.677,vbt_B2_day4,2022.2.4,Win32,144.0507058,,,,,,down,0,0.3839,,-0.193518533,-0.224074116,1,0,0,0,39,39,190,1,goedkoop,images/br_goedkoop.png,images/cb_goedkoop.png,0,,,,,,,,,,,,,,,,,,,,,,
,,,,,00107,2023-11-20_12h46.13.677,vbt_B2_day4,2022.2.4,Win32,144.0507058,,,,,,down,0,2.9199,,-0.193518533,-0.224074116,1,0,0,0,40,40,147,1,komisch,images/br_komisch.png,images/cb_komisch.png,1,komisch,,,,,,,,,,,,,,,,,,,,,
,,,,,00107,2023-11-20_12h46.13.677,vbt_B2_day4,2022.2.4,Win32,144.0507058,,,,,,down,0,0.2589,,-0.193518533,-0.224074116,1,0,0,0,41,41,52,1,wagon,images/br_wagon.png,images/cb_wagon.png,0,,,,,,,,,,,,,,,,,,,,,,
,,,,,00107,2023-11-20_12h46.13.677,vbt_B2_day4,2022.2.4,Win32,144.0507058,,,,,,down,0,0.3202,,-0.193518533,-0.224074116,1,0,0,0,42,42,189,1,aanraden,images/br_aanraden.png,images/cb_aanraden.png,0,,,,,,,,,,,,,,,,,,,,,,
,,,,,00107,2023-11-20_12h46.13.677,vbt_B2_day4,2022.2.4,Win32,144.0507058,,,,,,down,0,0.3116,,-0.193518533,-0.224074116,1,0,0,0,43,43,182,1,bijkomen,images/br_bijkomen.png,images/cb_bijkomen.png,0,,,,,,,,,,,,,,,,,,,,,,
,,,,,00107,2023-11-20_12h46.13.677,vbt_B2_day4,2022.2.4,Win32,144.0507058,,,,,,down,0,0.4193,,-0.193518533,-0.224074116,1,0,0,0,44,44,94,1,oceaan,images/br_oceaan.png,images/cb_oceaan.png,0,,,,,,,,,,,,,,,,,,,,,,
,,,,,00107,2023-11-20_12h46.13.677,vbt_B2_day4,2022.2.4,Win32,144.0507058,,,,,,down,0,0.4191,,-0.193518533,-0.224074116,1,0,0,0,45,45,164,1,anarchie,images/br_anarchie.png,images/cb_anarchie.png,0,,,,,,,,,,,,,,,,,,,,,,
,,,,,00107,2023-11-20_12h46.13.677,vbt_B2_day4,2022.2.4,Win32,144.0507058,,,,,,down,0,0.4468,,-0.193518533,-0.224074116,1,0,0,0,46,46,174,1,stemming,images/br_stemming.png,images/cb_stemming.png,0,,,,,,,,,,,,,,,,,,,,,,
,,,,,00107,2023-11-20_12h46.13.677,vbt_B2_day4,2022.2.4,Win32,144.0507058,,,,,,down,0,0.1899,,-0.193518533,-0.224074116,1,0,0,0,47,47,19,1,geit,images/br_geit.png,images/cb_geit.png,0,,,,,,,,,,,,,,,,,,,,,,
,,,,,00107,2023-11-20_12h46.13.677,vbt_B2_day4,2022.2.4,Win32,144.0507058,,,,,,down,0,0.2651,,-0.193518533,-0.224074116,1,0,0,0,48,48,54,1,gebit,images/br_gebit.png,images/cb_gebit.png,0,,,,,,,,,,,,,,,,,,,,,,
,,,,,00107,2023-11-20_12h46.13.677,vbt_B2_day4,2022.2.4,Win32,144.0507058,,,,,,down,0,0.1941,,-0.193518533,-0.224074116,1,0,0,0,49,49,167,1,eenhoorn,images/br_eenhoorn.png,images/cb_eenhoorn.png,0,,,,,,,,,,,,,,,,,,,,,,
,,,,,00107,2023-11-20_12h46.13.677,vbt_B2_day4,2022.2.4,Win32,144.0507058,,,,,,down,0,0.2849,,-0.193518533,-0.224074116,1,0,0,0,50,50,163,1,schuilen,images/br_schuilen.png,images/cb_schuilen.png,0,,,,,,,,,,,,,,,,,,,,,,
,,,,,00107,2023-11-20_12h46.13.677,vbt_B2_day4,2022.2.4,Win32,144.0507058,,,,,,down,0,0.3116,,-0.193518533,-0.224074116,1,0,0,0,51,51,124,1,bloeien,images/br_bloeien.png,images/cb_bloeien.png,0,,,,,,,,,,,,,,,,,,,,,,
,,,,,00107,2023-11-20_12h46.13.677,vbt_B2_day4,2022.2.4,Win32,144.0507058,,,,,,down,0,0.1835,,-0.193518533,-0.224074116,1,0,0,0,52,52,169,1,oprotten,images/br_oprotten.png,images/cb_oprotten.png,0,,,,,,,,,,,,,,,,,,,,,,
,,,,,00107,2023-11-20_12h46.13.677,vbt_B2_day4,2022.2.4,Win32,144.0507058,,,,,,down,0,0.257,,-0.193518533,-0.224074116,1,0,0,0,53,53,116,1,besmet,images/br_besmet.png,images/cb_besmet.png,0,,,,,,,,,,,,,,,,,,,,,,
,,,,,00107,2023-11-20_12h46.13.677,vbt_B2_day4,2022.2.4,Win32,144.0507058,,,,,,down,0,0.2669,,-0.193518533,-0.224074116,1,0,0,0,54,54,152,1,afnemen,images/br_afnemen.png,images/cb_afnemen.png,0,,,,,,,,,,,,,,,,,,,,,,
,,,,,00107,2023-11-20_12h46.13.677,vbt_B2_day4,2022.2.4,Win32,144.0507058,,,,,,down,0,0.1613,,-0.193518533,-0.224074116,1,0,0,0,55,55,95,1,vreten,images/br_vreten.png,images/cb_vreten.png,0,,,,,,,,,,,,,,,,,,,,,,
,,,,,00107,2023-11-20_12h46.13.677,vbt_B2_day4,2022.2.4,Win32,144.0507058,,,,,,down,0,0.1814,,-0.193518533,-0.224074116,1,0,0,0,56,56,31,1,poes,images/br_poes.png,images/cb_poes.png,0,,,,,,,,,,,,,,,,,,,,,,
,,,,,00107,2023-11-20_12h46.13.677,vbt_B2_day4,2022.2.4,Win32,144.0507058,,,,,,down,0,0.1636,,-0.193518533,-0.224074116,1,0,0,0,57,57,22,1,stof,images/br_stof.png,images/cb_stof.png,0,,,,,,,,,,,,,,,,,,,,,,
,,,,,00107,2023-11-20_12h46.13.677,vbt_B2_day4,2022.2.4,Win32,144.0507058,,,,,,down,0,0.1079,,-0.193518533,-0.224074116,1,0,0,0,58,58,23,1,zout,images/br_zout.png,images/cb_zout.png,0,,,,,,,,,,,,,,,,,,,,,,
,,,,,00107,2023-11-20_12h46.13.677,vbt_B2_day4,2022.2.4,Win32,144.0507058,,,,,,down,0,0.2496,,-0.193518533,-0.224074116,1,0,0,0,59,59,71,1,bever,images/br_bever.png,images/cb_bever.png,0,,,,,,,,,,,,,,,,,,,,,,
,,,,,00107,2023-11-20_12h46.13.677,vbt_B2_day4,2022.2.4,Win32,144.0507058,,,,,,down,0,0.1325,,-0.193518533,-0.224074116,1,0,0,0,60,60,143,1,hechten,images/br_hechten.png,images/cb_hechten.png,0,,,,,,,,,,,,,,,,,,,,,,
,,,,,00107,2023-11-20_12h46.13.677,vbt_B2_day4,2022.2.4,Win32,144.0507058,,,,,,down,0,0.2369,,-0.193518533,-0.224074116,1,0,0,0,61,61,17,1,taal,images/br_taal.png,images/cb_taal.png,0,,,,,,,,,,,,,,,,,,,,,,
,,,,,00107,2023-11-20_12h46.13.677,vbt_B2_day4,2022.2.4,Win32,144.0507058,,,,,,down,0,0.0222,,-0.193518533,-0.224074116,1,0,0,0,62,62,80,1,kanjer,images/br_kanjer.png,images/cb_kanjer.png,0,,,,,,,,,,,,,,,,,,,,,,
,,,,,00107,2023-11-20_12h46.13.677,vbt_B2_day4,2022.2.4,Win32,144.0507058,,,,,,down,0,0.2729,,-0.193518533,-0.224074116,1,0,0,0,63,63,171,1,aarzelen,images/br_aarzelen.png,images/cb_aarzelen.png,0,,,,,,,,,,,,,,,,,,,,,,
,,,,,00107,2023-11-20_12h46.13.677,vbt_B2_day4,2022.2.4,Win32,144.0507058,,,,,,down,0,0.3023,,-0.193518533,-0.224074116,1,0,0,0,64,64,79,1,nodig,images/br_nodig.png,images/cb_nodig.png,0,,,,,,,,,,,,,,,,,,,,,,
,,,,,00107,2023-11-20_12h46.13.677,vbt_B2_day4,2022.2.4,Win32,144.0507058,,,,,,down,0,0.1205,,-0.193518533,-0.224074116,1,0,0,0,65,65,180,1,openbaar,images/br_openbaar.png,images/cb_openbaar.png,0,,,,,,,,,,,,,,,,,,,,,,
,,,,,00107,2023-11-20_12h46.13.677,vbt_B2_day4,2022.2.4,Win32,144.0507058,,,,,,down,0,0.2258,,-0.193518533,-0.224074116,1,0,0,0,66,66,110,1,zuster,images/br_zuster.png,images/cb_zuster.png,0,,,,,,,,,,,,,,,,,,,,,,
,,,,,00107,2023-11-20_12h46.13.677,vbt_B2_day4,2022.2.4,Win32,144.0507058,,,,,,down,0,0.3344,,-0.193518533,-0.224074116,1,0,0,0,67,67,191,1,opheffen,images/br_opheffen.png,images/cb_opheffen.png,0,,,,,,,,,,,,,,,,,,,,,,
,,,,,00107,2023-11-20_12h46.13.677,vbt_B2_day4,2022.2.4,Win32,144.0507058,,,,,,down,0,0.1657,,-0.193518533,-0.224074116,1,0,0,0,68,68,114,1,vullen,images/br_vullen.png,images/cb_vullen.png,0,,,,,,,,,,,,,,,,,,,,,,
,,,,,00107,2023-11-20_12h46.13.677,vbt_B2_day4,2022.2.4,Win32,144.0507058,,,,,,down,0,0.2296,,-0.193518533,-0.224074116,1,0,0,0,69,69,18,1,blik,images/br_blik.png,images/cb_blik.png,0,,,,,,,,,,,,,,,,,,,,,,
,,,,,00107,2023-11-20_12h46.13.677,vbt_B2_day4,2022.2.4,Win32,144.0507058,,,,,,down,0,0.314,,-0.193518533,-0.224074116,1,0,0,0,70,70,135,1,gedicht,images/br_gedicht.png,images/cb_gedicht.png,0,,,,,,,,,,,,,,,,,,,,,,
,,,,,00107,2023-11-20_12h46.13.677,vbt_B2_day4,2022.2.4,Win32,144.0507058,,,,,,down,0,0.1464,,-0.193518533,-0.224074116,1,0,0,0,71,71,64,1,wegen,images/br_wegen.png,images/cb_wegen.png,1,wegen,,,,,,,,,,,,,,,,,,,,,
,,,,,00107,2023-11-20_12h46.13.677,vbt_B2_day4,2022.2.4,Win32,144.0507058,,,,,,down,0,0.2318,,-0.193518533,-0.224074116,1,0,0,0,72,72,154,1,aflopen,images/br_aflopen.png,images/cb_aflopen.png,0,,,,,,,,,,,,,,,,,,,,,,
,,,,,00107,2023-11-20_12h46.13.677,vbt_B2_day4,2022.2.4,Win32,144.0507058,,,,,,down,0,0.2438,,-0.193518533,-0.224074116,1,0,0,0,73,73,38,1,baai,images/br_baai.png,images/cb_baai.png,0,,,,,,,,,,,,,,,,,,,,,,
,,,,,00107,2023-11-20_12h46.13.677,vbt_B2_day4,2022.2.4,Win32,144.0507058,,,,,,down,0,0.2458,,-0.164814772,-0.215740769,1,0,0,0,74,74,99,1,koffie,images/br_koffie.png,images/cb_koffie.png,0,,,,,,,,,,,,,,,,,,,,,,
,,,,,00107,2023-11-20_12h46.13.677,vbt_B2_day4,2022.2.4,Win32,144.0507058,,,,,,down,0,0.5238,,-0.164814772,-0.215740769,1,0,0,0,75,75,138,1,akkoord,images/br_akkoord.png,images/cb_akkoord.png,0,,,,,,,,,,,,,,,,,,,,,,
,,,,,00107,2023-11-20_12h46.13.677,vbt_B2_day4,2022.2.4,Win32,144.0507058,,,,,,down,0,0.4112,,-0.164814772,-0.215740769,1,0,0,0,76,76,16,1,ziek,images/br_ziek.png,images/cb_ziek.png,0,,,,,,,,,,,,,,,,,,,,,,
,,,,,00107,2023-11-20_12h46.13.677,vbt_B2_day4,2022.2.4,Win32,144.0507058,,,,,,down,0,0.0442,,-0.164814772,-0.215740769,1,0,0,0,77,77,149,1,redding,images/br_redding.png,images/cb_redding.png,0,,,,,,,,,,,,,,,,,,,,,,
,,,,,00107,2023-11-20_12h46.13.677,vbt_B2_day4,2022.2.4,Win32,144.0507058,,,,,,down,0,0.1873,,-0.164814772,-0.215740769,1,0,0,0,78,78,2,1,jaar,images/br_jaar.png,images/cb_jaar.png,0,,,,,,,,,,,,,,,,,,,,,,
,,,,,00107,2023-11-20_12h46.13.677,vbt_B2_day4,2022.2.4,Win32,144.0507058,,,,,,down,0,0.036,,-0.164814772,-0.215740769,1,0,0,0,79,79,62,1,knaap,images/br_knaap.png,images/cb_knaap.png,0,,,,,,,,,,,,,,,,,,,,,,
,,,,,00107,2023-11-20_12h46.13.677,vbt_B2_day4,2022.2.4,Win32,144.0507058,,,,,,down,0,0.1755,,-0.164814772,-0.215740769,1,0,0,0,80,80,108,1,excuus,images/br_excuus.png,images/cb_excuus.png,0,,,,,,,,,,,,,,,,,,,,,,
,,,,,00107,2023-11-20_12h46.13.677,vbt_B2_day4,2022.2.4,Win32,144.0507058,,,,,,down,0,0.3263,,-0.164814772,-0.215740769,1,0,0,0,81,81,166,1,strikken,images/br_strikken.png,images/cb_strikken.png,0,,,,,,,,,,,,,,,,,,,,,,
,,,,,00107,2023-11-20_12h46.13.677,vbt_B2_day4,2022.2.4,Win32,144.0507058,,,,,,down,0,0.7588,,-0.164814772,-0.205555598,1,0,0,0,82,82,27,1,dans,images/br_dans.png,images/cb_dans.png,1,dans,,,,,,,,,,,,,,,,,,,,,
,,,,,00107,2023-11-20_12h46.13.677,vbt_B2_day4,2022.2.4,Win32,144.0507058,,,,,,down,0,0.2561,,-0.031481496,-0.272222236,1,0,0,0,83,83,82,1,muziek,images/br_muziek.png,images/cb_muziek.png,0,,,,,,,,,,,,,,,,,,,,,,
,,,,,00107,2023-11-20_12h46.13.677,vbt_B2_day4,2022.2.4,Win32,144.0507058,,,,,,down,0,0.2242,,-0.031481496,-0.272222236,1,0,0,0,84,84,49,1,laken,images/br_laken.png,images/cb_laken.png,0,,,,,,,,,,,,,,,,,,,,,,
,,,,,00107,2023-11-20_12h46.13.677,vbt_B2_day4,2022.2.4,Win32,144.0507058,,,,,,down,0,0.0968,,-0.031481496,-0.272222236,1,0,0,0,85,85,43,1,klauw,images/br_klauw.png,images/cb_klauw.png,0,,,,,,,,,,,,,,,,,,,,,,
,,,,,00107,2023-11-20_12h46.13.677,vbt_B2_day4,2022.2.4,Win32,144.0507058,,,,,,down,0,3.2173,,-0.031481496,-0.272222236,1,0,0,0,86,86,185,1,mijnheer,images/br_mijnheer.png,images/cb_mijnheer.png,1,mijnheer,,,,,,,,,,,,,,,,,,,,,
,,,,,00107,2023-11-20_12h46.13.677,vbt_B2_day4,2022.2.4,Win32,144.0507058,,,,,,down,0,0.4447,,-0.031481496,-0.272222236,1,0,0,0,87,87,161,1,attentie,images/br_attentie.png,images/cb_attentie.png,0,,,,,,,,,,,,,,,,,,,,,,
,,,,,00107,2023-11-20_12h46.13.677,vbt_B2_day4,2022.2.4,Win32,144.0507058,,,,,,down,0,0.2539,,-0.031481496,-0.272222236,1,0,0,0,88,88,66,1,lever,images/br_lever.png,images/cb_lever.png,1,lever,,,,,,,,,,,,,,,,,,,,,
,,,,,00107,2023-11-20_12h46.13.677,vbt_B2_day4,2022.2.4,Win32,144.0507058,,,,,,down,0,0.3012,,-0.031481496,-0.272222236,1,0,0,0,89,89,86,1,woning,images/br_woning.png,images/cb_woning.png,0,,,,,,,,,,,,,,,,,,,,,,
,,,,,00107,2023-11-20_12h46.13.677,vbt_B2_day4,2022.2.4,Win32,144.0507058,,,,,,down,0,0.1889,,-0.031481496,-0.272222236,1,0,0,0,90,90,165,1,feestdag,images/br_feestdag.png,images/cb_feestdag.png,0,,,,,,,,,,,,,,,,,,,,,,
,,,,,00107,2023-11-20_12h46.13.677,vbt_B2_day4,2022.2.4,Win32,144.0507058,,,,,,down,0,0.3704,,-0.031481496,-0.272222236,1,0,0,0,91,91,39,1,laag,images/br_laag.png,images/cb_laag.png,0,,,,,,,,,,,,,,,,,,,,,,
,,,,,00107,2023-11-20_12h46.13.677,vbt_B2_day4,2022.2.4,Win32,144.0507058,,,,,,down,0,0.4883,,-0.031481496,-0.272222236,1,0,0,0,92,92,72,1,strak,images/br_strak.png,images/cb_strak.png,0,,,,,,,,,,,,,,,,,,,,,,
,,,,,00107,2023-11-20_12h46.13.677,vbt_B2_day4,2022.2.4,Win32,144.0507058,,,,,,down,0,0.1967,,-0.031481496,-0.272222236,1,0,0,0,93,93,12,1,kust,images/br_kust.png,images/cb_kust.png,0,,,,,,,,,,,,,,,,,,,,,,
,,,,,00107,2023-11-20_12h46.13.677,vbt_B2_day4,2022.2.4,Win32,144.0507058,,,,,,down,0,0.1343,,-0.031481496,-0.272222236,1,0,0,0,94,94,102,1,legaal,images/br_legaal.png,images/cb_legaal.png,0,,,,,,,,,,,,,,,,,,,,,,
,,,,,00107,2023-11-20_12h46.13.677,vbt_B2_day4,2022.2.4,Win32,144.0507058,,,,,,down,0,0.3123,,-0.031481496,-0.272222236,1,0,0,0,95,95,69,1,waken,images/br_waken.png,images/cb_waken.png,0,,,,,,,,,,,,,,,,,,,,,,
,,,,,00107,2023-11-20_12h46.13.677,vbt_B2_day4,2022.2.4,Win32,144.0507058,,,,,,down,0,0.0829,,-0.031481496,-0.272222236,1,0,0,0,96,96,117,1,kennis,images/br_kennis.png,images/cb_kennis.png,0,,,,,,,,,,,,,,,,,,,,,,
,,,,,00107,2023-11-20_12h46.13.677,vbt_B2_day4,2022.2.4,Win32,144.0507058,,,,,,down,0,0.2795,,-0.031481496,-0.272222236,1,0,0,0,97,97,131,1,opzicht,images/br_opzicht.png,images/cb_opzicht.png,0,,,,,,,,,,,,,,,,,,,,,,
,,,,,00107,2023-11-20_12h46.13.677,vbt_B2_day4,2022.2.4,Win32,144.0507058,,,,,,down,0,0.1189,,-0.031481496,-0.272222236,1,0,0,0,98,98,1,1,zaal,images/br_zaal.png,images/cb_zaal.png,0,,,,,,,,,,,,,,,,,,,,,,
,,,,,00107,2023-11-20_12h46.13.677,vbt_B2_day4,2022.2.4,Win32,144.0507058,,,,,,down,0,0.2804,,-0.031481496,-0.272222236,1,0,0,0,99,99,129,1,verhaal,images/br_verhaal.png,images/cb_verhaal.png,0,,,,,,,,,,,,,,,,,,,,,,
,,,,,00107,2023-11-20_12h46.13.677,vbt_B2_day4,2022.2.4,Win32,144.0507058,,,,,,down,0,0.1882,,-0.031481496,-0.272222236,1,0,0,0,100,100,121,1,twijfel,images/br_twijfel.png,images/cb_twijfel.png,0,,,,,,,,,,,,,,,,,,,,,,
,,,,,00107,2023-11-20_12h46.13.677,vbt_B2_day4,2022.2.4,Win32,144.0507058,,,,,,down,0,0.1979,,-0.031481496,-0.272222236,1,0,0,0,101,101,157,1,uitlaat,images/br_uitlaat.png,images/cb_uitlaat.png,0,,,,,,,,,,,,,,,,,,,,,,
,,,,,00107,2023-11-20_12h46.13.677,vbt_B2_day4,2022.2.4,Win32,144.0507058,,,,,,down,0,0.2921,,-0.031481496,-0.272222236,1,0,0,0,102,102,7,1,geld,images/br_geld.png,images/cb_geld.png,0,,,,,,,,,,,,,,,,,,,,,,
,,,,,00107,2023-11-20_12h46.13.677,vbt_B2_day4,2022.2.4,Win32,144.0507058,,,,,,down,0,0.1622,,-0.031481496,-0.272222236,1,0,0,0,103,103,151,1,aanzoek,images/br_aanzoek.png,images/cb_aanzoek.png,0,,,,,,,,,,,,,,,,,,,,,,
,,,,,00107,2023-11-20_12h46.13.677,vbt_B2_day4,2022.2.4,Win32,144.0507058,,,,,,down,0,0.336,,-0.031481496,-0.272222236,1,0,0,0,104,104,48,1,steel,images/br_steel.png,images/cb_steel.png,0,,,,,,,,,,,,,,,,,,,,,,
,,,,,00107,2023-11-20_12h46.13.677,vbt_B2_day4,2022.2.4,Win32,144.0507058,,,,,,down,0,6.1251,,-0.031481496,-0.272222236,1,0,0,0,105,105,67,1,zwart,images/br_zwart.png,images/cb_zwart.png,1,zwart,,,,,,,,,,,,,,,,,,,,,
,,,,,00107,2023-11-20_12h46.13.677,vbt_B2_day4,2022.2.4,Win32,144.0507058,,,,,,down,0,0.16,,-0.031481496,-0.272222236,1,0,0,0,106,106,148,1,smullen,images/br_smullen.png,images/cb_smullen.png,0,,,,,,,,,,,,,,,,,,,,,,
,,,,,00107,2023-11-20_12h46.13.677,vbt_B2_day4,2022.2.4,Win32,144.0507058,,,,,,down,0,0.2639,,-0.031481496,-0.228703746,1,0,0,0,107,107,45,1,piste,images/br_piste.png,images/cb_piste.png,0,,,,,,,,,,,,,,,,,,,,,,
,,,,,00107,2023-11-20_12h46.13.677,vbt_B2_day4,2022.2.4,Win32,144.0507058,,,,,,down,0,0.2042,,-0.031481496,-0.228703746,1,0,0,0,108,108,96,1,slagen,images/br_slagen.png,images/cb_slagen.png,0,,,,,,,,,,,,,,,,,,,,,,
,,,,,00107,2023-11-20_12h46.13.677,vbt_B2_day4,2022.2.4,Win32,144.0507058,,,,,,down,0,0.2038,,-0.031481496,-0.228703746,1,0,0,0,109,109,111,1,ticket,images/br_ticket.png,images/cb_ticket.png,0,,,,,,,,,,,,,,,,,,,,,,
,,,,,00107,2023-11-20_12h46.13.677,vbt_B2_day4,2022.2.4,Win32,144.0507058,,,,,,down,0,0.2027,,-0.031481496,-0.228703746,1,0,0,0,110,110,83,1,mening,images/br_mening.png,images/cb_mening.png,0,,,,,,,,,,,,,,,,,,,,,,
,,,,,00107,2023-11-20_12h46.13.677,vbt_B2_day4,2022.2.4,Win32,144.0507058,,,,,,down,0,0.1829,,-0.031481496,-0.228703746,1,0,0,0,111,111,160,1,daarheen,images/br_daarheen.png,images/cb_daarheen.png,0,,,,,,,,,,,,,,,,,,,,,,
,,,,,00107,2023-11-20_12h46.13.677,vbt_B2_day4,2022.2.4,Win32,144.0507058,,,,,,down,0,0.8775,,-0.031481496,-0.228703746,1,0,0,0,112,112,26,1,leuk,images/br_leuk.png,images/cb_leuk.png,1,leuk,,,,,,,,,,,,,,,,,,,,,
,,,,,00107,2023-11-20_12h46.13.677,vbt_B2_day4,2022.2.4,Win32,144.0507058,,,,,,down,0,0.1768,,-0.031481496,-0.228703746,1,0,0,0,113,113,4,1,moes,images/br_moes.png,images/cb_moes.png,0,,,,,,,,,,,,,,,,,,,,,,
,,,,,00107,2023-11-20_12h46.13.677,vbt_B2_day4,2022.2.4,Win32,144.0507058,,,,,,down,0,0.2734,,-0.031481496,-0.228703746,1,0,0,0,114,114,5,1,blad,images/br_blad.png,images/cb_blad.png,0,,,,,,,,,,,,,,,,,,,,,,
,,,,,00107,2023-11-20_12h46.13.677,vbt_B2_day4,2022.2.4,Win32,144.0507058,,,,,,down,0,0.2576,,-0.031481496,-0.228703746,1,0,0,0,115,115,76,1,afval,images/br_afval.png,images/cb_afval.png,0,,,,,,,,,,,,,,,,,,,,,,
,,,,,00107,2023-11-20_12h46.13.677,vbt_B2_day4,2022.2.4,Win32,144.0507058,,,,,,down,0,4.5816,,-0.031481496,-0.228703746,1,0,0,0,116,116,145,1,invloed,images/br_invloed.png,images/cb_invloed.png,1,invloed,,,,,,,,,,,,,,,,,,,,,
,,,,,00107,2023-11-20_12h46.13.677,vbt_B2_day4,2022.2.4,Win32,144.0507058,,,,,,down,0,0.9151,,-0.031481496,-0.228703746,1,0,0,0,117,117,25,1,plek,images/br_plek.png,images/cb_plek.png,1,plek,,,,,,,,,,,,,,,,,,,,,
,,,,,00107,2023-11-20_12h46.13.677,vbt_B2_day4,2022.2.4,Win32,144.0507058,,,,,,down,0,1.854,,-0.031481496,-0.228703746,1,0,0,0,118,118,107,1,maling,images/br_maling.png,images/cb_maling.png,1,maling,,,,,,,,,,,,,,,,,,,,,
,,,,,00107,2023-11-20_12h46.13.677,vbt_B2_day4,2022.2.4,Win32,144.0507058,,,,,,down,0,0.0078,,-0.024999972,-0.229629658,1,0,0,0,119,119,87,1,toeval,images/br_toeval.png,images/cb_toeval.png,0,,,,,,,,,,,,,,,,,,,,,,
,,,,,00107,2023-11-20_12h46.13.677,vbt_B2_day4,2022.2.4,Win32,144.0507058,,,,,,down,0,0.261,,-0.024999972,-0.229629658,1,0,0,0,120,120,137,1,trekker,images/br_trekker.png,images/cb_trekker.png,0,,,,,,,,,,,,,,,,,,,,,,
,,,,,00107,2023-11-20_12h46.13.677,vbt_B2_day4,2022.2.4,Win32,144.0507058,,,,,,down,0,0.2328,,-0.026851866,-0.227777764,1,0,0,0,121,121,36,1,vuur,images/br_vuur.png,images/cb_vuur.png,0,,,,,,,,,,,,,,,,,,,,,,
,,,,,00107,2023-11-20_12h46.13.677,vbt_B2_day4,2022.2.4,Win32,144.0507058,,,,,,down,0,0.2161,,-0.026851866,-0.227777764,1,0,0,0,122,122,173,1,apparaat,images/br_apparaat.png,images/cb_apparaat.png,0,,,,,,,,,,,,,,,,,,,,,,
,,,,,00107,2023-11-20_12h46.13.677,vbt_B2_day4,2022.2.4,Win32,144.0507058,,,,,,down,0,0.3965,,-0.026851866,-0.227777764,1,0,0,0,123,123,9,1,hier,images/br_hier.png,images/cb_hier.png,0,,,,,,,,,,,,,,,,,,,,,,
,,,,,00107,2023-11-20_12h46.13.677,vbt_B2_day4,2022.2.4,Win32,144.0507058,,,,,,down,0,0.2788,,-0.026851866,-0.227777764,1,0,0,0,124,124,51,1,samen,images/br_samen.png,images/cb_samen.png,0,,,,,,,,,,,,,,,,,,,,,,
,,,,,00107,2023-11-20_12h46.13.677,vbt_B2_day4,2022.2.4,Win32,144.0507058,,,,,,down,0,0.2636,,-0.026851866,-0.227777764,1,0,0,0,125,125,70,1,ijdel,images/br_ijdel.png,images/cb_ijdel.png,0,,,,,,,,,,,,,,,,,,,,,,
,,,,,00107,2023-11-20_12h46.13.677,vbt_B2_day4,2022.2.4,Win32,144.0507058,,,,,,down,0,0.2581,,-0.026851866,-0.227777764,1,0,0,0,126,126,77,1,woede,images/br_woede.png,images/cb_woede.png,0,,,,,,,,,,,,,,,,,,,,,,
,,,,,00107,2023-11-20_12h46.13.677,vbt_B2_day4,2022.2.4,Win32,144.0507058,,,,,,down,0,0.0562,,-0.026851866,-0.227777764,1,0,0,0,127,127,172,1,weigeren,images/br_weigeren.png,images/cb_weigeren.png,0,,,,,,,,,,,,,,,,,,,,,,
,,,,,00107,2023-11-20_12h46.13.677,vbt_B2_day4,2022.2.4,Win32,144.0507058,,,,,,down,0,0.1939,,-0.026851866,-0.227777764,1,0,0,0,128,128,130,1,keihard,images/br_keihard.png,images/cb_keihard.png,0,,,,,,,,,,,,,,,,,,,,,,
,,,,,00107,2023-11-20_12h46.13.677,vbt_B2_day4,2022.2.4,Win32,144.0507058,,,,,,down,0,0.123,,-0.026851866,-0.227777764,1,0,0,0,129,129,178,1,huisdier,images/br_huisdier.png,images/cb_huisdier.png,0,,,,,,,,,,,,,,,,,,,,,,
,,,,,00107,2023-11-20_12h46.13.677,vbt_B2_day4,2022.2.4,Win32,144.0507058,,,,,,down,0,0.1601,,-0.026851866,-0.227777764,1,0,0,0,130,130,59,1,kring,images/br_kring.png,images/cb_kring.png,0,,,,,,,,,,,,,,,,,,,,,,
,,,,,00107,2023-11-20_12h46.13.677,vbt_B2_day4,2022.2.4,Win32,144.0507058,,,,,,down,0,0.1608,,-0.026851866,-0.227777764,1,0,0,0,131,131,68,1,schat,images/br_schat.png,images/cb_schat.png,0,,,,,,,,,,,,,,,,,,,,,,
,,,,,00107,2023-11-20_12h46.13.677,vbt_B2_day4,2022.2.4,Win32,144.0507058,,,,,,down,0,0.1459,,-0.026851866,-0.227777764,1,0,0,0,132,132,3,1,mand,images/br_mand.png,images/cb_mand.png,0,,,,,,,,,,,,,,,,,,,,,,
,,,,,00107,2023-11-20_12h46.13.677,vbt_B2_day4,2022.2.4,Win32,144.0507058,,,,,,down,0,0.3761,,-0.026851866,-0.227777764,1,0,0,0,133,133,156,1,rechten,images/br_rechten.png,images/cb_rechten.png,0,,,,,,,,,,,,,,,,,,,,,,
,,,,,00107,2023-11-20_12h46.13.677,vbt_B2_day4,2022.2.4,Win32,144.0507058,,,,,,down,0,0.2203,,-0.026851866,-0.227777764,1,0,0,0,134,134,134,1,geliefd,images/br_geliefd.png,images/cb_geliefd.png,0,,,,,,,,,,,,,,,,,,,,,,
,,,,,00107,2023-11-20_12h46.13.677,vbt_B2_day4,2022.2.4,Win32,144.0507058,,,,,,down,0,0.1771,,-0.026851866,-0.227777764,1,0,0,0,135,135,41,1,maken,images/br_maken.png,images/cb_maken.png,0,,,,,,,,,,,,,,,,,,,,,,
,,,,,00107,2023-11-20_12h46.13.677,vbt_B2_day4,2022.2.4,Win32,144.0507058,,,,,,down,0,0.2316,,-0.026851866,-0.227777764,1,0,0,0,136,136,140,1,blijven,images/br_blijven.png,images/cb_blijven.png,0,,,,,,,,,,,,,,,,,,,,,,
,,,,,00107,2023-11-20_12h46.13.677,vbt_B2_day4,2022.2.4,Win32,144.0507058,,,,,,down,0,0.3658,,-0.026851866,-0.227777764,1,0,0,0,137,137,170,1,schatten,images/br_schatten.png,images/cb_schatten.png,0,,,,,,,,,,,,,,,,,,,,,,
,,,,,00107,2023-11-20_12h46.13.677,vbt_B2_day4,2022.2.4,Win32,144.0507058,,,,,,down,0,0.1832,,-0.026851866,-0.227777764,1,0,0,0,138,138,46,1,jagen,images/br_jagen.png,images/cb_jagen.png,0,,,,,,,,,,,,,,,,,,,,,,
,,,,,00107,2023-11-20_12h46.13.677,vbt_B2_day4,2022.2.4,Win32,144.0507058,,,,,,down,0,0.2816,,-0.026851866,-0.227777764,1,0,0,0,139,139,74,1,graaf,images/br_graaf.png,images/cb_graaf.png,0,,,,,,,,,,,,,,,,,,,,,,
,,,,,00107,2023-11-20_12h46.13.677,vbt_B2_day4,2022.2.4,Win32,144.0507058,,,,,,down,0,0.2806,,-0.026851866,-0.227777764,1,0,0,0,140,140,44,1,flits,images/br_flits.png,images/cb_flits.png,0,,,,,,,,,,,,,,,,,,,,,,
,,,,,00107,2023-11-20_12h46.13.677,vbt_B2_day4,2022.2.4,Win32,144.0507058,,,,,,down,0,0.1372,,-0.026851866,-0.227777764,1,0,0,0,141,141,127,1,doodmoe,images/br_doodmoe.png,images/cb_doodmoe.png,0,,,,,,,,,,,,,,,,,,,,,,
,,,,,00107,2023-11-20_12h46.13.677,vbt_B2_day4,2022.2.4,Win32,144.0507058,,,,,,down,0,1.902,,-0.026851866,-0.227777764,1,0,0,0,142,142,187,1,opkijken,images/br_opkijken.png,images/cb_opkijken.png,1,opkijken,,,,,,,,,,,,,,,,,,,,,
,,,,,00107,2023-11-20_12h46.13.677,vbt_B2_day4,2022.2.4,Win32,144.0507058,,,,,,down,0,0.1757,,-0.026851866,-0.227777764,1,0,0,0,143,143,168,1,bisschop,images/br_bisschop.png,images/cb_bisschop.png,0,,,,,,,,,,,,,,,,,,,,,,
,,,,,00107,2023-11-20_12h46.13.677,vbt_B2_day4,2022.2.4,Win32,144.0507058,,,,,,down,0,0.9049,,-0.026851866,-0.227777764,1,0,0,0,144,144,88,1,boeien,images/br_boeien.png,images/cb_boeien.png,0,,,,,,,,,,,,,,,,,,,,,,
,,,,,00107,2023-11-20_12h46.13.677,vbt_B2_day4,2022.2.4,Win32,144.0507058,,,,,,down,0,1.5238,,-0.026851866,-0.227777764,1,0,0,0,145,145,42,1,bleek,images/br_bleek.png,images/cb_bleek.png,0,,,,,,,,,,,,,,,,,,,,,,
,,,,,00107,2023-11-20_12h46.13.677,vbt_B2_day4,2022.2.4,Win32,144.0507058,,,,,,down,0,1.0509,,-0.026851866,-0.227777764,1,0,0,0,146,146,197,1,spanning,images/br_spanning.png,images/cb_spanning.png,0,,,,,,,,,,,,,,,,,,,,,,
,,,,,00107,2023-11-20_12h46.13.677,vbt_B2_day4,2022.2.4,Win32,144.0507058,,,,,,down,0,0.3068,,-0.026851866,-0.227777764,1,0,0,0,147,147,35,1,lust,images/br_lust.png,images/cb_lust.png,0,,,,,,,,,,,,,,,,,,,,,,
,,,,,00107,2023-11-20_12h46.13.677,vbt_B2_day4,2022.2.4,Win32,144.0507058,,,,,,down,0,0.3425,,-0.026851866,-0.227777764,1,0,0,0,148,148,196,1,nakijken,images/br_nakijken.png,images/cb_nakijken.png,0,,,,,,,,,,,,,,,,,,,,,,
,,,,,00107,2023-11-20_12h46.13.677,vbt_B2_day4,2022.2.4,Win32,144.0507058,,,,,,down,0,0.2578,,-0.026851866,-0.227777764,1,0,0,0,149,149,153,1,vervoer,images/br_vervoer.png,images/cb_vervoer.png,0,,,,,,,,,,,,,,,,,,,,,,
,,,,,00107,2023-11-20_12h46.13.677,vbt_B2_day4,2022.2.4,Win32,144.0507058,,,,,,down,0,0.4232,,-0.026851866,-0.227777764,1,0,0,0,150,150,30,1,uien,images/br_uien.png,images/cb_uien.png,0,,,,,,,,,,,,,,,,,,,,,,
,,,,,00107,2023-11-20_12h46.13.677,vbt_B2_day4,2022.2.4,Win32,144.0507058,,,,,,down,0,0.1398,,-0.026851866,-0.227777764,1,0,0,0,151,151,193,1,weeshuis,images/br_weeshuis.png,images/cb_weeshuis.png,0,,,,,,,,,,,,,,,,,,,,,,
,,,,,00107,2023-11-20_12h46.13.677,vbt_B2_day4,2022.2.4,Win32,144.0507058,,,,,,down,0,0.364,,-0.026851866,-0.227777764,1,0,0,0,152,152,56,1,traag,images/br_traag.png,images/cb_traag.png,0,,,,,,,,,,,,,,,,,,,,,,
,,,,,00107,2023-11-20_12h46.13.677,vbt_B2_day4,2022.2.4,Win32,144.0507058,,,,,,down,0,0.4969,,-0.026851866,-0.227777764,1,0,0,0,153,153,93,1,waarop,images/br_waarop.png,images/cb_waarop.png,0,,,,,,,,,,,,,,,,,,,,,,
,,,,,00107,2023-11-20_12h46.13.677,vbt_B2_day4,2022.2.4,Win32,144.0507058,,,,,,down,0,0.2721,,-0.026851866,-0.227777764,1,0,0,0,154,154,6,1,diep,images/br_diep.png,images/cb_diep.png,0,,,,,,,,,,,,,,,,,,,,,,
,,,,,00107,2023-11-20_12h46.13.677,vbt_B2_day4,2022.2.4,Win32,144.0507058,,,,,,down,0,0.4938,,-0.026851866,-0.227777764,1,0,0,0,155,155,158,1,innemen,images/br_innemen.png,images/cb_innemen.png,0,,,,,,,,,,,,,,,,,,,,,,
,,,,,00107,2023-11-20_12h46.13.677,vbt_B2_day4,2022.2.4,Win32,144.0507058,,,,,,down,0,0.2521,,-0.026851866,-0.227777764,1,0,0,0,156,156,125,1,aanzien,images/br_aanzien.png,images/cb_aanzien.png,0,,,,,,,,,,,,,,,,,,,,,,
,,,,,00107,2023-11-20_12h46.13.677,vbt_B2_day4,2022.2.4,Win32,144.0507058,,,,,,down,0,0.098,,-0.026851866,-0.227777764,1,0,0,0,157,157,115,1,kleren,images/br_kleren.png,images/cb_kleren.png,0,,,,,,,,,,,,,,,,,,,,,,
,,,,,00107,2023-11-20_12h46.13.677,vbt_B2_day4,2022.2.4,Win32,144.0507058,,,,,,down,0,0.2732,,-0.026851866,-0.227777764,1,0,0,0,158,158,34,1,vorm,images/br_vorm.png,images/cb_vorm.png,0,,,,,,,,,,,,,,,,,,,,,,
,,,,,00107,2023-11-20_12h46.13.677,vbt_B2_day4,2022.2.4,Win32,144.0507058,,,,,,down,0,0.2034,,-0.026851866,-0.227777764,1,0,0,0,159,159,73,1,volop,images/br_volop.png,images/cb_volop.png,0,,,,,,,,,,,,,,,,,,,,,,
,,,,,00107,2023-11-20_12h46.13.677,vbt_B2_day4,2022.2.4,Win32,144.0507058,,,,,,down,0,0.0471,,-0.026851866,-0.227777764,1,0,0,0,160,160,162,1,uitdelen,images/br_uitdelen.png,images/cb_uitdelen.png,0,,,,,,,,,,,,,,,,,,,,,,
,,,,,00107,2023-11-20_12h46.13.677,vbt_B2_day4,2022.2.4,Win32,144.0507058,,,,,,down,0,0.287,,-0.026851866,-0.227777764,1,0,0,0,161,161,60,1,jasje,images/br_jasje.png,images/cb_jasje.png,0,,,,,,,,,,,,,,,,,,,,,,
,,,,,00107,2023-11-20_12h46.13.677,vbt_B2_day4,2022.2.4,Win32,144.0507058,,,,,,down,0,0.2197,,-0.026851866,-0.227777764,1,0,0,0,162,162,40,1,schep,images/br_schep.png,images/cb_schep.png,0,,,,,,,,,,,,,,,,,,,,,,
,,,,,00107,2023-11-20_12h46.13.677,vbt_B2_day4,2022.2.4,Win32,144.0507058,,,,,,down,0,0.1956,,-0.026851866,-0.227777764,1,0,0,0,163,163,11,1,mode,images/br_mode.png,images/cb_mode.png,0,,,,,,,,,,,,,,,,,,,,,,
,,,,,00107,2023-11-20_12h46.13.677,vbt_B2_day4,2022.2.4,Win32,144.0507058,,,,,,down,0,0.0482,,-0.026851866,-0.227777764,1,0,0,0,164,164,176,1,techniek,images/br_techniek.png,images/cb_techniek.png,0,,,,,,,,,,,,,,,,,,,,,,
,,,,,00107,2023-11-20_12h46.13.677,vbt_B2_day4,2022.2.4,Win32,144.0507058,,,,,,down,0,0.2486,,-0.026851866,-0.227777764,1,0,0,0,165,165,92,1,geheim,images/br_geheim.png,images/cb_geheim.png,0,,,,,,,,,,,,,,,,,,,,,,
,,,,,00107,2023-11-20_12h46.13.677,vbt_B2_day4,2022.2.4,Win32,144.0507058,,,,,,down,0,0.2142,,-0.026851866,-0.227777764,1,0,0,0,166,166,136,1,waarbij,images/br_waarbij.png,images/cb_waarbij.png,0,,,,,,,,,,,,,,,,,,,,,,
,,,,,00107,2023-11-20_12h46.13.677,vbt_B2_day4,2022.2.4,Win32,144.0507058,,,,,,down,0,0.3132,,-0.026851866,-0.227777764,1,0,0,0,167,167,29,1,baas,images/br_baas.png,images/cb_baas.png,0,,,,,,,,,,,,,,,,,,,,,,
,,,,,00107,2023-11-20_12h46.13.677,vbt_B2_day4,2022.2.4,Win32,144.0507058,,,,,,down,0,1.6315,,-0.026851866,-0.227777764,1,0,0,0,168,168,24,1,jurk,images/br_jurk.png,images/cb_jurk.png,1,jurk,,,,,,,,,,,,,,,,,,,,,
,,,,,00107,2023-11-20_12h46.13.677,vbt_B2_day4,2022.2.4,Win32,144.0507058,,,,,,down,0,0.4119,,-0.026851866,-0.227777764,1,0,0,0,169,169,63,1,flirt,images/br_flirt.png,images/cb_flirt.png,0,,,,,,,,,,,,,,,,,,,,,,
,,,,,00107,2023-11-20_12h46.13.677,vbt_B2_day4,2022.2.4,Win32,144.0507058,,,,,,down,0,0.3394,,-0.026851866,-0.227777764,1,0,0,0,170,170,0,1,slak,images/br_slak.png,images/cb_slak.png,0,,,,,,,,,,,,,,,,,,,,,,
,,,,,00107,2023-11-20_12h46.13.677,vbt_B2_day4,2022.2.4,Win32,144.0507058,,,,,,down,0,0.1625,,-0.026851866,-0.227777764,1,0,0,0,171,171,109,1,totaal,images/br_totaal.png,images/cb_totaal.png,0,,,,,,,,,,,,,,,,,,,,,,
,,,,,00107,2023-11-20_12h46.13.677,vbt_B2_day4,2022.2.4,Win32,144.0507058,,,,,,down,0,0.225,,-0.026851866,-0.227777764,1,0,0,0,172,172,100,1,geduld,images/br_geduld.png,images/cb_geduld.png,0,,,,,,,,,,,,,,,,,,,,,,
,,,,,00107,2023-11-20_12h46.13.677,vbt_B2_day4,2022.2.4,Win32,144.0507058,,,,,,down,0,0.2952,,-0.026851866,-0.227777764,1,0,0,0,173,173,85,1,heilig,images/br_heilig.png,images/cb_heilig.png,0,,,,,,,,,,,,,,,,,,,,,,
,,,,,00107,2023-11-20_12h46.13.677,vbt_B2_day4,2022.2.4,Win32,144.0507058,,,,,,down,0,0.5254,,-0.026851866,-0.227777764,1,0,0,0,174,174,58,1,tekst,images/br_tekst.png,images/cb_tekst.png,0,,,,,,,,,,,,,,,,,,,,,,
,,,,,00107,2023-11-20_12h46.13.677,vbt_B2_day4,2022.2.4,Win32,144.0507058,,,,,,down,0,0.186,,-0.026851866,-0.227777764,1,0,0,0,175,175,181,1,toegeven,images/br_toegeven.png,images/cb_toegeven.png,0,,,,,,,,,,,,,,,,,,,,,,
,,,,,00107,2023-11-20_12h46.13.677,vbt_B2_day4,2022.2.4,Win32,144.0507058,,,,,,down,0,0.4393,,-0.026851866,-0.227777764,1,0,0,0,176,176,50,1,stoom,images/br_stoom.png,images/cb_stoom.png,0,,,,,,,,,,,,,,,,,,,,,,
,,,,,00107,2023-11-20_12h46.13.677,vbt_B2_day4,2022.2.4,Win32,144.0507058,,,,,,down,0,0.4569,,-0.026851866,-0.227777764,1,0,0,0,177,177,177,1,maaltijd,images/br_maaltijd.png,images/cb_maaltijd.png,0,,,,,,,,,,,,,,,,,,,,,,
,,,,,00107,2023-11-20_12h46.13.677,vbt_B2_day4,2022.2.4,Win32,144.0507058,,,,,,down,0,0.2985,,-0.026851866,-0.227777764,1,0,0,0,178,178,84,1,lokken,images/br_lokken.png,images/cb_lokken.png,0,,,,,,,,,,,,,,,,,,,,,,
,,,,,00107,2023-11-20_12h46.13.677,vbt_B2_day4,2022.2.4,Win32,144.0507058,,,,,,down,0,0.4409,,-0.026851866,-0.227777764,1,0,0,0,179,179,15,1,soda,images/br_soda.png,images/cb_soda.png,0,,,,,,,,,,,,,,,,,,,,,,
,,,,,00107,2023-11-20_12h46.13.677,vbt_B2_day4,2022.2.4,Win32,144.0507058,,,,,,down,0,0.464,,-0.026851866,-0.227777764,1,0,0,0,180,180,192,1,schaamte,images/br_schaamte.png,images/cb_schaamte.png,0,,,,,,,,,,,,,,,,,,,,,,
,,,,,00107,2023-11-20_12h46.13.677,vbt_B2_day4,2022.2.4,Win32,144.0507058,,,,,,down,0,0.3368,,-0.026851866,-0.227777764,1,0,0,0,181,181,198,1,bedoelen,images/br_bedoelen.png,images/cb_bedoelen.png,0,,,,,,,,,,,,,,,,,,,,,,
,,,,,00107,2023-11-20_12h46.13.677,vbt_B2_day4,2022.2.4,Win32,144.0507058,,,,,,down,0,0.3339,,-0.026851866,-0.227777764,1,0,0,0,182,182,91,1,gezond,images/br_gezond.png,images/cb_gezond.png,0,,,,,,,,,,,,,,,,,,,,,,
,,,,,00107,2023-11-20_12h46.13.677,vbt_B2_day4,2022.2.4,Win32,144.0507058,,,,,,down,0,0.0961,,-0.026851866,-0.227777764,1,0,0,0,183,183,175,1,heengaan,images/br_heengaan.png,images/cb_heengaan.png,0,,,,,,,,,,,,,,,,,,,,,,
,,,,,00107,2023-11-20_12h46.13.677,vbt_B2_day4,2022.2.4,Win32,144.0507058,,,,,,down,0,0.3706,,-0.026851866,-0.227777764,1,0,0,0,184,184,179,1,woestijn,images/br_woestijn.png,images/cb_woestijn.png,0,,,,,,,,,,,,,,,,,,,,,,
,,,,,00107,2023-11-20_12h46.13.677,vbt_B2_day4,2022.2.4,Win32,144.0507058,,,,,,down,0,0.3309,,-0.026851866,-0.227777764,1,0,0,0,185,185,98,1,kreeft,images/br_kreeft.png,images/cb_kreeft.png,0,,,,,,,,,,,,,,,,,,,,,,
,,,,,00107,2023-11-20_12h46.13.677,vbt_B2_day4,2022.2.4,Win32,144.0507058,,,,,,down,0,0.4675,,-0.026851866,-0.227777764,1,0,0,0,186,186,155,1,gerucht,images/br_gerucht.png,images/cb_gerucht.png,0,,,,,,,,,,,,,,,,,,,,,,
,,,,,00107,2023-11-20_12h46.13.677,vbt_B2_day4,2022.2.4,Win32,144.0507058,,,,,,down,0,0.2809,,-0.026851866,-0.227777764,1,0,0,0,187,187,8,1,knie,images/br_knie.png,images/cb_knie.png,0,,,,,,,,,,,,,,,,,,,,,,
,,,,,00107,2023-11-20_12h46.13.677,vbt_B2_day4,2022.2.4,Win32,144.0507058,,,,,,down,0,1.1687,,-0.026851866,-0.227777764,1,0,0,0,188,188,106,1,zingen,images/br_zingen.png,images/cb_zingen.png,1,zingen,,,,,,,,,,,,,,,,,,,,,
,,,,,00107,2023-11-20_12h46.13.677,vbt_B2_day4,2022.2.4,Win32,144.0507058,,,,,,down,0,0.215,,-0.026851866,-0.227777764,1,0,0,0,189,189,139,1,stiekem,images/br_stiekem.png,images/cb_stiekem.png,0,,,,,,,,,,,,,,,,,,,,,,
,,,,,00107,2023-11-20_12h46.13.677,vbt_B2_day4,2022.2.4,Win32,144.0507058,,,,,,down,0,0.1432,,-0.026851866,-0.227777764,1,0,0,0,190,190,10,1,leek,images/br_leek.png,images/cb_leek.png,0,,,,,,,,,,,,,,,,,,,,,,
,,,,,00107,2023-11-20_12h46.13.677,vbt_B2_day4,2022.2.4,Win32,144.0507058,,,,,,down,0,0.7271,,-0.026851866,-0.227777764,1,0,0,0,191,191,105,1,wijlen,images/br_wijlen.png,images/cb_wijlen.png,1,wijlen,,,,,,,,,,,,,,,,,,,,,
,,,,,00107,2023-11-20_12h46.13.677,vbt_B2_day4,2022.2.4,Win32,144.0507058,,,,,,down,0,0.4527,,-0.026851866,-0.227777764,1,0,0,0,192,192,123,1,hiervan,images/br_hiervan.png,images/cb_hiervan.png,0,,,,,,,,,,,,,,,,,,,,,,
,,,,,00107,2023-11-20_12h46.13.677,vbt_B2_day4,2022.2.4,Win32,144.0507058,,,,,,down,0,0.309,,-0.026851866,-0.227777764,1,0,0,0,193,193,159,1,sufferd,images/br_sufferd.png,images/cb_sufferd.png,0,,,,,,,,,,,,,,,,,,,,,,
,,,,,00107,2023-11-20_12h46.13.677,vbt_B2_day4,2022.2.4,Win32,144.0507058,,,,,,down,0,0.3323,,-0.026851866,-0.227777764,1,0,0,0,194,194,112,1,lukken,images/br_lukken.png,images/cb_lukken.png,0,,,,,,,,,,,,,,,,,,,,,,
,,,,,00107,2023-11-20_12h46.13.677,vbt_B2_day4,2022.2.4,Win32,144.0507058,,,,,,down,0,0.2607,,-0.026851866,-0.227777764,1,0,0,0,195,195,37,1,mijn,images/br_mijn.png,images/cb_mijn.png,0,,,,,,,,,,,,,,,,,,,,,,
,,,,,00107,2023-11-20_12h46.13.677,vbt_B2_day4,2022.2.4,Win32,144.0507058,,,,,,down,0,0.2916,,-0.026851866,-0.227777764,1,0,0,0,196,196,89,1,slapen,images/br_slapen.png,images/cb_slapen.png,0,,,,,,,,,,,,,,,,,,,,,,
,,,,,00107,2023-11-20_12h46.13.677,vbt_B2_day4,2022.2.4,Win32,144.0507058,,,,,,down,0,0.3213,,-0.026851866,-0.227777764,1,0,0,0,197,197,78,1,leren,images/br_leren.png,images/cb_leren.png,0,,,,,,,,,,,,,,,,,,,,,,
,,,,,00107,2023-11-20_12h46.13.677,vbt_B2_day4,2022.2.4,Win32,144.0507058,,,,,,down,0,0.2862,,-0.026851866,-0.227777764,1,0,0,0,198,198,61,1,groen,images/br_groen.png,images/cb_groen.png,0,,,,,,,,,,,,,,,,,,,,,,
,,,,,00107,2023-11-20_12h46.13.677,vbt_B2_day4,2022.2.4,Win32,144.0507058,,,,,,down,0,3.0981,,-0.026851866,-0.227777764,1,0,0,0,199,199,104,1,zweven,images/br_zweven.png,images/cb_zweven.png,1,zweven,,,,,,,,,,,,,,,,,,,,,
,,,,,00107,2023-11-20_12h46.13.677,vbt_B2_day4,2022.2.4,Win32,144.0507058,,,,,,,,,,,,,,,,,,,,,,,,,-0.026851866,-0.227777764,1,0,0,,,,,,,,,,,,,,,,
,,,,,00107,2023-11-20_12h46.13.677,vbt_B2_day4,2022.2.4,Win32,144.0507058,,,,,,,,,,,,,,,,,,,,,,,,,,,,,,-0.026851866,-0.227777764,1,0,0,,,,,,,,,,,
,,,,,00107,2023-11-20_12h46.13.677,vbt_B2_day4,2022.2.4,Win32,144.0507058,,,,,,,,,,,,,,,,,,,,fran,images/br_fran.png,images/cb_fran.png,,fran,,,,,,,,,,,-0.026851866,-0.227777764,1,0,0,fran,0,0,0,22,1
,,,,,00107,2023-11-20_12h46.13.677,vbt_B2_day4,2022.2.4,Win32,144.0507058,,,,,,,,,,,,,,,,,,,,broodje,images/br_broodje.png,images/cb_broodje.png,,broodje,,,,,,,,,,,0.088888875,-0.207407422,1,0,0,broodje,0,1,1,55,1
,,,,,00107,2023-11-20_12h46.13.677,vbt_B2_day4,2022.2.4,Win32,144.0507058,,,,,,,,,,,,,,,,,,,,strok,images/br_strok.png,images/cb_strok.png,,strok,,,,,,,,,,,0.088888875,-0.207407422,1,0,0,strok,0,2,2,25,1
,,,,,00107,2023-11-20_12h46.13.677,vbt_B2_day4,2022.2.4,Win32,144.0507058,,,,,,,,,,,,,,,,,,,,pittig,images/br_pittig.png,images/cb_pittig.png,,pitten,,,,,,,,,,,0.088888875,-0.207407422,1,0,0,pitten,0,3,3,51,1
,,,,,00107,2023-11-20_12h46.13.677,vbt_B2_day4,2022.2.4,Win32,144.0507058,,,,,,,,,,,,,,,,,,,,grappen,images/br_grappen.png,images/cb_grappen.png,,grappen,,,,,,,,,,,0.088888875,-0.207407422,1,0,0,grappen,0,4,4,12,1
,,,,,00107,2023-11-20_12h46.13.677,vbt_B2_day4,2022.2.4,Win32,144.0507058,,,,,,,,,,,,,,,,,,,,gijf,images/br_gijf.png,images/cb_gijf.png,,gijf,,,,,,,,,,,0.088888875,-0.207407422,1,0,0,gijf,0,5,5,23,1
,,,,,00107,2023-11-20_12h46.13.677,vbt_B2_day4,2022.2.4,Win32,144.0507058,,,,,,,,,,,,,,,,,,,,sulbon,images/br_sulbon.png,images/cb_sulbon.png,,sulbon,,,,,,,,,,,0.088888875,-0.207407422,1,0,0,sulbon,0,6,6,31,1
,,,,,00107,2023-11-20_12h46.13.677,vbt_B2_day4,2022.2.4,Win32,144.0507058,,,,,,,,,,,,,,,,,,,,mekst,images/br_mekst.png,images/cb_mekst.png,,mekst,,,,,,,,,,,0.088888875,-0.207407422,1,0,0,mekst,0,7,7,27,1
,,,,,00107,2023-11-20_12h46.13.677,vbt_B2_day4,2022.2.4,Win32,144.0507058,,,,,,,,,,,,,,,,,,,,zwek,images/br_zwek.png,images/cb_zwek.png,,zwek,,,,,,,,,,,0.088888875,-0.207407422,1,0,0,zwek,0,8,8,20,1
,,,,,00107,2023-11-20_12h46.13.677,vbt_B2_day4,2022.2.4,Win32,144.0507058,,,,,,,,,,,,,,,,,,,,soda,images/br_soda.png,images/cb_soda.png,,soda,,,,,,,,,,,0.088888875,-0.207407422,1,0,0,soda,0,9,9,3,1
,,,,,00107,2023-11-20_12h46.13.677,vbt_B2_day4,2022.2.4,Win32,144.0507058,,,,,,,,,,,,,,,,,,,,baron,images/br_baron.png,images/cb_baron.png,,baron,,,,,,,,,,,0.088888875,-0.207407422,1,0,0,baron,0,10,10,5,1
,,,,,00107,2023-11-20_12h46.13.677,vbt_B2_day4,2022.2.4,Win32,144.0507058,,,,,,,,,,,,,,,,,,,,heengaan,images/br_heengaan.png,images/cb_heengaan.png,,heengaan,,,,,,,,,,,0.088888875,-0.207407422,1,0,0,heengaan,0,11,11,19,1
,,,,,00107,2023-11-20_12h46.13.677,vbt_B2_day4,2022.2.4,Win32,144.0507058,,,,,,,,,,,,,,,,,,,,pijnlijk,images/br_pijnlijk.png,images/cb_pijnlijk.png,,pijnlijk,,,,,,,,,,,0.088888875,-0.207407422,1,0,0,pijnlijk,0,12,12,58,1
,,,,,00107,2023-11-20_12h46.13.677,vbt_B2_day4,2022.2.4,Win32,144.0507058,,,,,,,,,,,,,,,,,,,,wagon,images/br_wagon.png,images/cb_wagon.png,,wagon,,,,,,,,,,,0.088888875,-0.207407422,1,0,0,wagon,0,13,13,4,1
,,,,,00107,2023-11-20_12h46.13.677,vbt_B2_day4,2022.2.4,Win32,144.0507058,,,,,,,,,,,,,,,,,,,,oceaan,images/br_oceaan.png,images/cb_oceaan.png,,oceaan,,,,,,,,,,,0.088888875,-0.207407422,1,0,0,oceaan,0,14,14,10,1
,,,,,00107,2023-11-20_12h46.13.677,vbt_B2_day4,2022.2.4,Win32,144.0507058,,,,,,,,,,,,,,,,,,,,midden,images/br_midden.png,images/cb_midden.png,,midden,,,,,,,,,,,0.088888875,-0.207407422,1,0,0,midden,0,15,15,50,1
,,,,,00107,2023-11-20_12h46.13.677,vbt_B2_day4,2022.2.4,Win32,144.0507058,,,,,,,,,,,,,,,,,,,,gaaf,images/br_gaaf.png,images/cb_gaaf.png,,gaaf,,,,,,,,,,,0.088888875,-0.207407422,1,0,0,gaaf,0,16,16,43,1
,,,,,00107,2023-11-20_12h46.13.677,vbt_B2_day4,2022.2.4,Win32,144.0507058,,,,,,,,,,,,,,,,,,,,opkicht,images/br_opkicht.png,images/cb_opkicht.png,,opkicht,,,,,,,,,,,0.088888875,-0.207407422,1,0,0,opkicht,0,17,17,34,1
,,,,,00107,2023-11-20_12h46.13.677,vbt_B2_day4,2022.2.4,Win32,144.0507058,,,,,,,,,,,,,,,,,,,,drummer,images/br_drummer.png,images/cb_drummer.png,,drummer,,,,,,,,,,,0.088888875,-0.207407422,1,0,0,drummer,0,18,18,53,1
,,,,,00107,2023-11-20_12h46.13.677,vbt_B2_day4,2022.2.4,Win32,144.0507058,,,,,,,,,,,,,,,,,,,,noodzaak,images/br_noodzaak.png,images/cb_noodzaak.png,,noodzaak,,,,,,,,,,,0.088888875,-0.207407422,1,0,0,noodzaak,0,19,19,56,1
,,,,,00107,2023-11-20_12h46.13.677,vbt_B2_day4,2022.2.4,Win32,144.0507058,,,,,,,,,,,,,,,,,,,,toevol,images/br_toevol.png,images/cb_toevol.png,,toeval,,,,,,,,,,,0.088888875,-0.207407422,1,0,0,toeval,0,20,20,29,1
,,,,,00107,2023-11-20_12h46.13.677,vbt_B2_day4,2022.2.4,Win32,144.0507058,,,,,,,,,,,,,,,,,,,,waarop,images/br_waarop.png,images/cb_waarop.png,,waarop,,,,,,,,,,,0.088888875,-0.207407422,1,0,0,waarop,0,21,21,9,1
,,,,,00107,2023-11-20_12h46.13.677,vbt_B2_day4,2022.2.4,Win32,144.0507058,,,,,,,,,,,,,,,,,,,,bisschap,images/br_bisschap.png,images/cb_bisschap.png,,bisschap,,,,,,,,,,,0.088888875,-0.207407422,1,0,0,bisschap,0,22,22,36,1
,,,,,00107,2023-11-20_12h46.13.677,vbt_B2_day4,2022.2.4,Win32,144.0507058,,,,,,,,,,,,,,,,,,,,flippen,images/br_flippen.png,images/cb_flippen.png,,flippen,,,,,,,,,,,0.088888875,-0.207407422,1,0,0,flippen,0,23,23,54,1
,,,,,00107,2023-11-20_12h46.13.677,vbt_B2_day4,2022.2.4,Win32,144.0507058,,,,,,,,,,,,,,,,,,,,lappen,images/br_lappen.png,images/cb_lappen.png,,lappen,,,,,,,,,,,0.088888875,-0.207407422,1,0,0,lappen,0,24,24,49,1
,,,,,00107,2023-11-20_12h46.13.677,vbt_B2_day4,2022.2.4,Win32,144.0507058,,,,,,,,,,,,,,,,,,,,warel,images/br_warel.png,images/cb_warel.png,,warel,,,,,,,,,,,0.088888875,-0.207407422,1,0,0,warel,0,25,25,26,1
,,,,,00107,2023-11-20_12h46.13.677,vbt_B2_day4,2022.2.4,Win32,144.0507058,,,,,,,,,,,,,,,,,,,,stemming,images/br_stemming.png,images/cb_stemming.png,,steeming,,,,,,,,,,,-0.003703718,-0.20648151,1,0,0,steeming,0,26,26,18,1
,,,,,00107,2023-11-20_12h46.13.677,vbt_B2_day4,2022.2.4,Win32,144.0507058,,,,,,,,,,,,,,,,,,,,wozing,images/br_wozing.png,images/cb_wozing.png,,wozing,,,,,,,,,,,-0.003703718,-0.20648151,1,0,0,wozing,0,27,27,28,1
,,,,,00107,2023-11-20_12h46.13.677,vbt_B2_day4,2022.2.4,Win32,144.0507058,,,,,,,,,,,,,,,,,,,,schenden,images/br_schenden.png,images/cb_schenden.png,,schenden,,,,,,,,,,,-0.003703718,-0.20648151,1,0,0,schenden,0,28,28,57,1
,,,,,00107,2023-11-20_12h46.13.677,vbt_B2_day4,2022.2.4,Win32,144.0507058,,,,,,,,,,,,,,,,,,,,seizoon,images/br_seizoon.png,images/cb_seizoon.png,,seinoon,,,,,,,,,,,-0.003703718,-0.20648151,1,0,0,seinoon,0,29,29,33,1
,,,,,00107,2023-11-20_12h46.13.677,vbt_B2_day4,2022.2.4,Win32,144.0507058,,,,,,,,,,,,,,,,,,,,steen,images/br_steen.png,images/cb_steen.png,,steen,,,,,,,,,,,-0.003703718,-0.20648151,1,0,0,steen,0,30,30,44,1
,,,,,00107,2023-11-20_12h46.13.677,vbt_B2_day4,2022.2.4,Win32,144.0507058,,,,,,,,,,,,,,,,,,,,schotel,images/br_schotel.png,images/cb_schotel.png,,schotel,,,,,,,,,,,-0.003703718,-0.20648151,1,0,0,schotel,0,31,31,52,1
,,,,,00107,2023-11-20_12h46.13.677,vbt_B2_day4,2022.2.4,Win32,144.0507058,,,,,,,,,,,,,,,,,,,,gedicht,images/br_gedicht.png,images/cb_gedicht.png,,gedicht,,,,,,,,,,,-0.003703718,-0.20648151,1,0,0,gedicht,0,32,32,15,1
,,,,,00107,2023-11-20_12h46.13.677,vbt_B2_day4,2022.2.4,Win32,144.0507058,,,,,,,,,,,,,,,,,,,,gebit,images/br_gebit.png,images/cb_gebit.png,,gebit,,,,,,,,,,,-0.003703718,-0.20648151,1,0,0,gebit,0,33,33,6,1
,,,,,00107,2023-11-20_12h46.13.677,vbt_B2_day4,2022.2.4,Win32,144.0507058,,,,,,,,,,,,,,,,,,,,praat,images/br_praat.png,images/cb_praat.png,,praat,,,,,,,,,,,-0.003703718,-0.20648151,1,0,0,praat,0,34,34,7,1
,,,,,00107,2023-11-20_12h46.13.677,vbt_B2_day4,2022.2.4,Win32,144.0507058,,,,,,,,,,,,,,,,,,,,bruin,images/br_bruin.png,images/cb_bruin.png,,bruin,,,,,,,,,,,-0.003703718,-0.20648151,1,0,0,bruin,0,35,35,45,1
,,,,,00107,2023-11-20_12h46.13.677,vbt_B2_day4,2022.2.4,Win32,144.0507058,,,,,,,,,,,,,,,,,,,,getucht,images/br_getucht.png,images/cb_getucht.png,,getucht,,,,,,,,,,,-0.003703718,-0.20648151,1,0,0,getucht,0,36,36,35,1
,,,,,00107,2023-11-20_12h46.13.677,vbt_B2_day4,2022.2.4,Win32,144.0507058,,,,,,,,,,,,,,,,,,,,kust,images/br_kust.png,images/cb_kust.png,,kust,,,,,,,,,,,-0.003703718,-0.20648151,1,0,0,kust,0,37,37,0,1
,,,,,00107,2023-11-20_12h46.13.677,vbt_B2_day4,2022.2.4,Win32,144.0507058,,,,,,,,,,,,,,,,,,,,eerst,images/br_eerst.png,images/cb_eerst.png,,eerst,,,,,,,,,,,-0.003703718,-0.20648151,1,0,0,eerst,0,38,38,47,1
,,,,,00107,2023-11-20_12h46.13.677,vbt_B2_day4,2022.2.4,Win32,144.0507058,,,,,,,,,,,,,,,,,,,,weigeren,images/br_weigeren.png,images/cb_weigeren.png,,weigeren,,,,,,,,,,,-0.003703718,-0.20648151,1,0,0,weigeren,0,39,39,16,1
,,,,,00107,2023-11-20_12h46.13.677,vbt_B2_day4,2022.2.4,Win32,144.0507058,,,,,,,,,,,,,,,,,,,,snee,images/br_snee.png,images/cb_snee.png,,snee,,,,,,,,,,,-0.003703718,-0.20648151,1,0,0,snee,0,40,40,40,1
,,,,,00107,2023-11-20_12h46.13.677,vbt_B2_day4,2022.2.4,Win32,144.0507058,,,,,,,,,,,,,,,,,,,,seizoen,images/br_seizoen.png,images/cb_seizoen.png,,seizoen,,,,,,,,,,,-0.003703718,-0.20648151,1,0,0,seizoen,0,41,41,13,1
,,,,,00107,2023-11-20_12h46.13.677,vbt_B2_day4,2022.2.4,Win32,144.0507058,,,,,,,,,,,,,,,,,,,,gaan,images/br_gaan.png,images/cb_gaan.png,,gaan,,,,,,,,,,,-0.003703718,-0.20648151,1,0,0,gaan,0,42,42,41,1
,,,,,00107,2023-11-20_12h46.13.677,vbt_B2_day4,2022.2.4,Win32,144.0507058,,,,,,,,,,,,,,,,,,,,geheim,images/br_geheim.png,images/cb_geheim.png,,geheim,,,,,,,,,,,-0.003703718,-0.20648151,1,0,0,geheim,0,43,43,8,1
,,,,,00107,2023-11-20_12h46.13.677,vbt_B2_day4,2022.2.4,Win32,144.0507058,,,,,,,,,,,,,,,,,,,,aanzwaag,images/br_aanzwaag.png,images/cb_aanzwaag.png,,aanzwaag,,,,,,,,,,,-0.003703718,-0.20648151,1,0,0,aanzwaag,0,44,44,38,1
,,,,,00107,2023-11-20_12h46.13.677,vbt_B2_day4,2022.2.4,Win32,144.0507058,,,,,,,,,,,,,,,,,,,,rijp,images/br_rijp.png,images/cb_rijp.png,,rijp,,,,,,,,,,,-0.003703718,-0.20648151,1,0,0,rijp,0,45,45,2,1
,,,,,00107,2023-11-20_12h46.13.677,vbt_B2_day4,2022.2.4,Win32,144.0507058,,,,,,,,,,,,,,,,,,,,haza,images/br_haza.png,images/cb_haza.png,,haza,,,,,,,,,,,-0.003703718,-0.20648151,1,0,0,haza,0,46,46,21,1
,,,,,00107,2023-11-20_12h46.13.677,vbt_B2_day4,2022.2.4,Win32,144.0507058,,,,,,,,,,,,,,,,,,,,kaal,images/br_kaal.png,images/cb_kaal.png,,kaal,,,,,,,,,,,-0.003703718,-0.20648151,1,0,0,kaal,0,47,47,1,1
,,,,,00107,2023-11-20_12h46.13.677,vbt_B2_day4,2022.2.4,Win32,144.0507058,,,,,,,,,,,,,,,,,,,,ezel,images/br_ezel.png,images/cb_ezel.png,,ezel,,,,,,,,,,,-0.003703718,-0.20648151,1,0,0,ezel,0,48,48,42,1
,,,,,00107,2023-11-20_12h46.13.677,vbt_B2_day4,2022.2.4,Win32,144.0507058,,,,,,,,,,,,,,,,,,,,zaalrijk,images/br_zaalrijk.png,images/cb_zaalrijk.png,,zaalrijk,,,,,,,,,,,-0.003703718,-0.20648151,1,0,0,zaalrijk,0,49,49,37,1
,,,,,00107,2023-11-20_12h46.13.677,vbt_B2_day4,2022.2.4,Win32,144.0507058,,,,,,,,,,,,,,,,,,,,paalbaak,images/br_paalbaak.png,images/cb_paalbaak.png,,paalbaak,,,,,,,,,,,-0.003703718,-0.20648151,1,0,0,paalbaak,0,50,50,39,1
,,,,,00107,2023-11-20_12h46.13.677,vbt_B2_day4,2022.2.4,Win32,144.0507058,,,,,,,,,,,,,,,,,,,,drooien,images/br_drooien.png,images/cb_drooien.png,,drooien,,,,,,,,,,,-0.003703718,-0.20648151,1,0,0,drooien,0,51,51,32,1
,,,,,00107,2023-11-20_12h46.13.677,vbt_B2_day4,2022.2.4,Win32,144.0507058,,,,,,,,,,,,,,,,,,,,dalen,images/br_dalen.png,images/cb_dalen.png,,dalen,,,,,,,,,,,-0.003703718,-0.20648151,1,0,0,dalen,0,52,52,46,1
,,,,,00107,2023-11-20_12h46.13.677,vbt_B2_day4,2022.2.4,Win32,144.0507058,,,,,,,,,,,,,,,,,,,,opruimen,images/br_opruimen.png,images/cb_opruimen.png,,opruimen,,,,,,,,,,,-0.003703718,-0.20648151,1,0,0,opruimen,0,53,53,59,1
,,,,,00107,2023-11-20_12h46.13.677,vbt_B2_day4,2022.2.4,Win32,144.0507058,,,,,,,,,,,,,,,,,,,,gebog,images/br_gebog.png,images/cb_gebog.png,,gebog,,,,,,,,,,,-0.003703718,-0.20648151,1,0,0,gebog,0,54,54,24,1
,,,,,00107,2023-11-20_12h46.13.677,vbt_B2_day4,2022.2.4,Win32,144.0507058,,,,,,,,,,,,,,,,,,,,dozijn,images/br_dozijn.png,images/cb_dozijn.png,,dozijn,,,,,,,,,,,-0.003703718,-0.20648151,1,0,0,dozijn,0,55,55,48,1
,,,,,00107,2023-11-20_12h46.13.677,vbt_B2_day4,2022.2.4,Win32,144.0507058,,,,,,,,,,,,,,,,,,,,apparaat,images/br_apparaat.png,images/cb_apparaat.png,,apparaat,,,,,,,,,,,-0.003703718,-0.20648151,1,0,0,apparaat,0,56,56,17,1
,,,,,00107,2023-11-20_12h46.13.677,vbt_B2_day4,2022.2.4,Win32,144.0507058,,,,,,,,,,,,,,,,,,,,geliefd,images/br_geliefd.png,images/cb_geliefd.png,,geliefd,,,,,,,,,,,-0.003703718,-0.20648151,1,0,0,geliefd,0,57,57,14,1
,,,,,00107,2023-11-20_12h46.13.677,vbt_B2_day4,2022.2.4,Win32,144.0507058,,,,,,,,,,,,,,,,,,,,vreten,images/br_vreten.png,images/cb_vreten.png,,vreten,,,,,,,,,,,-0.003703718,-0.20648151,1,0,0,vreten,0,58,58,11,1
,,,,,00107,2023-11-20_12h46.13.677,vbt_B2_day4,2022.2.4,Win32,144.0507058,,,,,,,,,,,,,,,,,,,,tucket,images/br_tucket.png,images/cb_tucket.png,,tucket,,,,,,,,,,,-0.003703718,-0.20648151,1,0,0,tucket,0,59,59,30,1
,,,,,00107,2023-11-20_12h46.13.677,vbt_B2_day4,2022.2.4,Win32,144.0507058,,,,,,,,,,,,,,,,,,,,,,,,,,,,,,,,,,,,,,,,,,,,,
