welcome_mouse.x,welcome_mouse.y,welcome_mouse.leftButton,welcome_mouse.midButton,welcome_mouse.rightButton,"ID",date,expName,psychopyVersion,OS,frameRate,trainInstr_mouse.x,trainInstr_mouse.y,trainInstr_mouse.leftButton,trainInstr_mouse.midButton,trainInstr_mouse.rightButton,translation_key.keys,translation_key.corr,translation_key.rt,word_rsp.text,trWrd_mouse.x,trWrd_mouse.y,trWrd_mouse.leftButton,trWrd_mouse.midButton,trWrd_mouse.rightButton,train_loop.thisRepN,train_loop.thisTrialN,train_loop.thisN,train_loop.thisIndex,train_loop.ran,nlWrd,brWrd,cbWrd,test,testResp,mouse.x,mouse.y,mouse.leftButton,mouse.midButton,mouse.rightButton,testInstr_mouse.x,testInstr_mouse.y,testInstr_mouse.leftButton,testInstr_mouse.midButton,testInstr_mouse.rightButton,test_mouse.x,test_mouse.y,test_mouse.leftButton,test_mouse.midButton,test_mouse.rightButton,test_response.text,test_loop.thisRepN,test_loop.thisTrialN,test_loop.thisN,test_loop.thisIndex,test_loop.ran
-0.149999972,-0.180555556,1,0,0,00055,2023-10-14_19h36.20.443,vbt_B2_day4,2022.2.4,Win32,59.69792848,,,,,,,,,,,,,,,,,,,,,,,,,,,,,,,,,,,,,,,,,,,,,
,,,,,00055,2023-10-14_19h36.20.443,vbt_B2_day4,2022.2.4,Win32,59.69792848,0.569444444,0.16574072,1,0,0,,,,,,,,,,,,,,,,,,,,,,,,,,,,,,,,,,,,,,,,
,,,,,00055,2023-10-14_19h36.20.443,vbt_B2_day4,2022.2.4,Win32,59.69792848,,,,,,down,0,1.8255,,0.563888974,-0.171296296,1,0,0,0,0,0,53,1,baron,images/br_baron.png,images/cb_baron.png,0,,,,,,,,,,,,,,,,,,,,,,
,,,,,00055,2023-10-14_19h36.20.443,vbt_B2_day4,2022.2.4,Win32,59.69792848,,,,,,down,0,0.304,,0.563888974,-0.171296296,1,0,0,0,1,1,113,1,koppen,images/br_koppen.png,images/cb_koppen.png,0,,,,,,,,,,,,,,,,,,,,,,
,,,,,00055,2023-10-14_19h36.20.443,vbt_B2_day4,2022.2.4,Win32,59.69792848,,,,,,down,0,1.0517,,0.564814815,-0.170370384,1,0,0,0,2,2,57,1,steek,images/br_steek.png,images/cb_steek.png,0,,,,,,,,,,,,,,,,,,,,,,
,,,,,00055,2023-10-14_19h36.20.443,vbt_B2_day4,2022.2.4,Win32,59.69792848,,,,,,down,0,1.3033,,0.564814815,-0.170370384,1,0,0,0,3,3,87,1,toeval,images/br_toeval.png,images/cb_toeval.png,0,,,,,,,,,,,,,,,,,,,,,,
,,,,,00055,2023-10-14_19h36.20.443,vbt_B2_day4,2022.2.4,Win32,59.69792848,,,,,,down,0,3.5057,,0.391666695,-0.384259259,1,0,0,0,4,4,136,1,waarbij,images/br_waarbij.png,images/cb_waarbij.png,0,,,,,,,,,,,,,,,,,,,,,,
,,,,,00055,2023-10-14_19h36.20.443,vbt_B2_day4,2022.2.4,Win32,59.69792848,,,,,,down,0,9.9978,,0.37037037,-0.37037037,1,0,0,0,5,5,179,1,woestijn,images/br_woestijn.png,images/cb_woestijn.png,0,,,,,,,,,,,,,,,,,,,,,,
,,,,,00055,2023-10-14_19h36.20.443,vbt_B2_day4,2022.2.4,Win32,59.69792848,,,,,,down,0,0.0876,,-0.017592607,-0.00462963,1,0,0,0,6,6,2,1,jaar,images/br_jaar.png,images/cb_jaar.png,0,,,,,,,,,,,,,,,,,,,,,,
,,,,,00055,2023-10-14_19h36.20.443,vbt_B2_day4,2022.2.4,Win32,59.69792848,,,,,,down,0,3.0746,,-0.017592607,-0.00462963,1,0,0,0,7,7,42,1,bleek,images/br_bleek.png,images/cb_bleek.png,0,,,,,,,,,,,,,,,,,,,,,,
,,,,,00055,2023-10-14_19h36.20.443,vbt_B2_day4,2022.2.4,Win32,59.69792848,,,,,,down,0,0.0258,,0.045370384,0.138888889,1,0,0,0,8,8,151,1,aanzoek,images/br_aanzoek.png,images/cb_aanzoek.png,0,,,,,,,,,,,,,,,,,,,,,,
,,,,,00055,2023-10-14_19h36.20.443,vbt_B2_day4,2022.2.4,Win32,59.69792848,,,,,,down,0,1.4354,,0.046296296,0.138888889,1,0,0,0,9,9,71,1,bever,images/br_bever.png,images/cb_bever.png,0,,,,,,,,,,,,,,,,,,,,,,
,,,,,00055,2023-10-14_19h36.20.443,vbt_B2_day4,2022.2.4,Win32,59.69792848,,,,,,down,0,6.5841,,0.046296296,0.138888889,1,0,0,0,10,10,109,1,totaal,images/br_totaal.png,images/cb_totaal.png,0,,,,,,,,,,,,,,,,,,,,,,
,,,,,00055,2023-10-14_19h36.20.443,vbt_B2_day4,2022.2.4,Win32,59.69792848,,,,,,down,0,2.8031,,0.409259231,-0.150925954,1,0,0,0,11,11,132,1,grappen,images/br_grappen.png,images/cb_grappen.png,0,,,,,,,,,,,,,,,,,,,,,,
,,,,,00055,2023-10-14_19h36.20.443,vbt_B2_day4,2022.2.4,Win32,59.69792848,,,,,,down,0,0.2567,,0.416666667,-0.169444473,1,0,0,0,12,12,52,1,wagon,images/br_wagon.png,images/cb_wagon.png,0,,,,,,,,,,,,,,,,,,,,,,
,,,,,00055,2023-10-14_19h36.20.443,vbt_B2_day4,2022.2.4,Win32,59.69792848,,,,,,down,0,1.6551,,0.416666667,-0.169444473,1,0,0,0,13,13,100,1,geduld,images/br_geduld.png,images/cb_geduld.png,0,,,,,,,,,,,,,,,,,,,,,,
,,,,,00055,2023-10-14_19h36.20.443,vbt_B2_day4,2022.2.4,Win32,59.69792848,,,,,,down,0,2.5032,,0.187037079,-0.100000028,1,0,0,0,14,14,125,1,aanzien,images/br_aanzien.png,images/cb_aanzien.png,0,,,,,,,,,,,,,,,,,,,,,,
,,,,,00055,2023-10-14_19h36.20.443,vbt_B2_day4,2022.2.4,Win32,59.69792848,,,,,,down,0,2.4995,,0.187037079,-0.100000028,1,0,0,0,15,15,24,1,jurk,images/br_jurk.png,images/cb_jurk.png,1,jurk,,,,,,,,,,,,,,,,,,,,,
,,,,,00055,2023-10-14_19h36.20.443,vbt_B2_day4,2022.2.4,Win32,59.69792848,,,,,,down,0,5.8105,,0.187037079,-0.100000028,1,0,0,0,16,16,77,1,woede,images/br_woede.png,images/cb_woede.png,0,,,,,,,,,,,,,,,,,,,,,,
,,,,,00055,2023-10-14_19h36.20.443,vbt_B2_day4,2022.2.4,Win32,59.69792848,,,,,,down,0,7.3688,,0.187037079,-0.100000028,1,0,0,0,17,17,173,1,apparaat,images/br_apparaat.png,images/cb_apparaat.png,0,,,,,,,,,,,,,,,,,,,,,,
,,,,,00055,2023-10-14_19h36.20.443,vbt_B2_day4,2022.2.4,Win32,59.69792848,,,,,,down,0,1.5402,,0.187037079,-0.100000028,1,0,0,0,18,18,67,1,zwart,images/br_zwart.png,images/cb_zwart.png,1,zwart,,,,,,,,,,,,,,,,,,,,,
,,,,,00055,2023-10-14_19h36.20.443,vbt_B2_day4,2022.2.4,Win32,59.69792848,,,,,,down,0,2.9351,,0.025925954,0.003703683,1,0,0,0,19,19,160,1,daarheen,images/br_daarheen.png,images/cb_daarheen.png,0,,,,,,,,,,,,,,,,,,,,,,
,,,,,00055,2023-10-14_19h36.20.443,vbt_B2_day4,2022.2.4,Win32,59.69792848,,,,,,down,0,10.6133,,-0.060185185,-0.079629651,1,0,0,0,20,20,108,1,excuus,images/br_excuus.png,images/cb_excuus.png,0,,,,,,,,,,,,,,,,,,,,,,
,,,,,00055,2023-10-14_19h36.20.443,vbt_B2_day4,2022.2.4,Win32,59.69792848,,,,,,down,0,1.9842,,-0.059259273,-0.080555563,1,0,0,0,21,21,105,1,wijlen,images/br_wijlen.png,images/cb_wijlen.png,1,wijlen,,,,,,,,,,,,,,,,,,,,,
,,,,,00055,2023-10-14_19h36.20.443,vbt_B2_day4,2022.2.4,Win32,59.69792848,,,,,,down,0,0.5768,,0.078703704,0.025925919,1,0,0,0,22,22,93,1,waarop,images/br_waarop.png,images/cb_waarop.png,0,,,,,,,,,,,,,,,,,,,,,,
,,,,,00055,2023-10-14_19h36.20.443,vbt_B2_day4,2022.2.4,Win32,59.69792848,,,,,,down,0,1.1487,,0.078703704,0.025925919,1,0,0,0,23,23,128,1,prikken,images/br_prikken.png,images/cb_prikken.png,0,,,,,,,,,,,,,,,,,,,,,,
,,,,,00055,2023-10-14_19h36.20.443,vbt_B2_day4,2022.2.4,Win32,59.69792848,,,,,,down,0,1.8021,,0.078703704,0.023148148,1,0,0,0,24,24,59,1,kring,images/br_kring.png,images/cb_kring.png,0,,,,,,,,,,,,,,,,,,,,,,
,,,,,00055,2023-10-14_19h36.20.443,vbt_B2_day4,2022.2.4,Win32,59.69792848,,,,,,down,0,0.6898,,0.078703704,0.023148148,1,0,0,0,25,25,199,1,beseffen,images/br_beseffen.png,images/cb_beseffen.png,0,,,,,,,,,,,,,,,,,,,,,,
,,,,,00055,2023-10-14_19h36.20.443,vbt_B2_day4,2022.2.4,Win32,59.69792848,,,,,,down,0,0.6336,,0.078703704,0.023148148,1,0,0,0,26,26,112,1,lukken,images/br_lukken.png,images/cb_lukken.png,0,,,,,,,,,,,,,,,,,,,,,,
,,,,,00055,2023-10-14_19h36.20.443,vbt_B2_day4,2022.2.4,Win32,59.69792848,,,,,,down,0,1.7532,,0.051851838,-0.020370377,1,0,0,0,27,27,45,1,piste,images/br_piste.png,images/cb_piste.png,0,,,,,,,,,,,,,,,,,,,,,,
,,,,,00055,2023-10-14_19h36.20.443,vbt_B2_day4,2022.2.4,Win32,59.69792848,,,,,,down,0,0.5481,,0.22129631,0.451851849,1,0,0,0,28,28,26,1,leuk,images/br_leuk.png,images/cb_leuk.png,1,leuk,,,,,,,,,,,,,,,,,,,,,
,,,,,00055,2023-10-14_19h36.20.443,vbt_B2_day4,2022.2.4,Win32,59.69792848,,,,,,down,0,0.0591,,0.088888875,-0.151851866,1,0,0,0,29,29,28,1,stal,images/br_stal.png,images/cb_stal.png,0,,,,,,,,,,,,,,,,,,,,,,
,,,,,00055,2023-10-14_19h36.20.443,vbt_B2_day4,2022.2.4,Win32,59.69792848,,,,,,down,0,0.6673,,0.088888875,-0.151851866,1,0,0,0,30,30,25,1,plek,images/br_plek.png,images/cb_plek.png,1,plek,,,,,,,,,,,,,,,,,,,,,
,,,,,00055,2023-10-14_19h36.20.443,vbt_B2_day4,2022.2.4,Win32,59.69792848,,,,,,down,0,1.0812,,0.088888875,-0.151851866,1,0,0,0,31,31,46,1,jagen,images/br_jagen.png,images/cb_jagen.png,0,,,,,,,,,,,,,,,,,,,,,,
,,,,,00055,2023-10-14_19h36.20.443,vbt_B2_day4,2022.2.4,Win32,59.69792848,,,,,,down,0,3.853,,0.088888875,-0.151851866,1,0,0,0,32,32,90,1,geluid,images/br_geluid.png,images/cb_geluid.png,0,,,,,,,,,,,,,,,,,,,,,,
,,,,,00055,2023-10-14_19h36.20.443,vbt_B2_day4,2022.2.4,Win32,59.69792848,,,,,,down,0,1.515,,0.087037051,-0.151851866,1,0,0,0,33,33,98,1,kreeft,images/br_kreeft.png,images/cb_kreeft.png,0,,,,,,,,,,,,,,,,,,,,,,
,,,,,00055,2023-10-14_19h36.20.443,vbt_B2_day4,2022.2.4,Win32,59.69792848,,,,,,down,0,2.412,,0.087037051,-0.151851866,1,0,0,0,34,34,66,1,lever,images/br_lever.png,images/cb_lever.png,1,lever,,,,,,,,,,,,,,,,,,,,,
,,,,,00055,2023-10-14_19h36.20.443,vbt_B2_day4,2022.2.4,Win32,59.69792848,,,,,,down,0,1.9788,,0.087037051,-0.151851866,1,0,0,0,35,35,55,1,praat,images/br_praat.png,images/cb_praat.png,0,,,,,,,,,,,,,,,,,,,,,,
,,,,,00055,2023-10-14_19h36.20.443,vbt_B2_day4,2022.2.4,Win32,59.69792848,,,,,,down,0,13.9458,,0.087037051,-0.151851866,1,0,0,0,36,36,38,1,baai,images/br_baai.png,images/cb_baai.png,0,,,,,,,,,,,,,,,,,,,,,,
,,,,,00055,2023-10-14_19h36.20.443,vbt_B2_day4,2022.2.4,Win32,59.69792848,,,,,,down,0,2.0816,,0.087037051,-0.151851866,1,0,0,0,37,37,177,1,maaltijd,images/br_maaltijd.png,images/cb_maaltijd.png,0,,,,,,,,,,,,,,,,,,,,,,
,,,,,00055,2023-10-14_19h36.20.443,vbt_B2_day4,2022.2.4,Win32,59.69792848,,,,,,down,0,1.0825,,0.087037051,-0.151851866,1,0,0,0,38,38,117,1,kennis,images/br_kennis.png,images/cb_kennis.png,0,,,,,,,,,,,,,,,,,,,,,,
,,,,,00055,2023-10-14_19h36.20.443,vbt_B2_day4,2022.2.4,Win32,59.69792848,,,,,,down,0,1.605,,0.087037051,-0.151851866,1,0,0,0,39,39,1,1,zaal,images/br_zaal.png,images/cb_zaal.png,0,,,,,,,,,,,,,,,,,,,,,,
,,,,,00055,2023-10-14_19h36.20.443,vbt_B2_day4,2022.2.4,Win32,59.69792848,,,,,,down,0,2.3364,,0.087037051,-0.151851866,1,0,0,0,40,40,194,1,driemaal,images/br_driemaal.png,images/cb_driemaal.png,0,,,,,,,,,,,,,,,,,,,,,,
,,,,,00055,2023-10-14_19h36.20.443,vbt_B2_day4,2022.2.4,Win32,59.69792848,,,,,,down,0,8.0522,,0.087037051,-0.151851866,1,0,0,0,41,41,64,1,wegen,images/br_wegen.png,images/cb_wegen.png,1,wegen,,,,,,,,,,,,,,,,,,,,,
,,,,,00055,2023-10-14_19h36.20.443,vbt_B2_day4,2022.2.4,Win32,59.69792848,,,,,,down,0,1.4029,,0.085185228,-0.152777778,1,0,0,0,42,42,20,1,site,images/br_site.png,images/cb_site.png,0,,,,,,,,,,,,,,,,,,,,,,
,,,,,00055,2023-10-14_19h36.20.443,vbt_B2_day4,2022.2.4,Win32,59.69792848,,,,,,down,0,1.4114,,0.084259245,-0.152777778,1,0,0,0,43,43,74,1,graaf,images/br_graaf.png,images/cb_graaf.png,0,,,,,,,,,,,,,,,,,,,,,,
,,,,,00055,2023-10-14_19h36.20.443,vbt_B2_day4,2022.2.4,Win32,59.69792848,,,,,,down,0,31.4668,,0.084259245,-0.148148148,1,0,0,0,44,44,162,1,uitdelen,images/br_uitdelen.png,images/cb_uitdelen.png,0,,,,,,,,,,,,,,,,,,,,,,
,,,,,00055,2023-10-14_19h36.20.443,vbt_B2_day4,2022.2.4,Win32,59.69792848,,,,,,down,0,0.5391,,0.084259245,-0.148148148,1,0,0,0,45,45,168,1,bisschop,images/br_bisschop.png,images/cb_bisschop.png,0,,,,,,,,,,,,,,,,,,,,,,
,,,,,00055,2023-10-14_19h36.20.443,vbt_B2_day4,2022.2.4,Win32,59.69792848,,,,,,down,0,1.4662,,0.084259245,-0.148148148,1,0,0,0,46,46,104,1,zweven,images/br_zweven.png,images/cb_zweven.png,1,zweven,,,,,,,,,,,,,,,,,,,,,
,,,,,00055,2023-10-14_19h36.20.443,vbt_B2_day4,2022.2.4,Win32,59.69792848,,,,,,down,0,0.4823,,0.084259245,-0.148148148,1,0,0,0,47,47,84,1,lokken,images/br_lokken.png,images/cb_lokken.png,0,,,,,,,,,,,,,,,,,,,,,,
,,,,,00055,2023-10-14_19h36.20.443,vbt_B2_day4,2022.2.4,Win32,59.69792848,,,,,,down,0,2.5917,,0.084259245,-0.148148148,1,0,0,0,48,48,196,1,nakijken,images/br_nakijken.png,images/cb_nakijken.png,0,,,,,,,,,,,,,,,,,,,,,,
,,,,,00055,2023-10-14_19h36.20.443,vbt_B2_day4,2022.2.4,Win32,59.69792848,,,,,,down,0,4.4094,,0.084259245,-0.148148148,1,0,0,0,49,49,165,1,feestdag,images/br_feestdag.png,images/cb_feestdag.png,0,,,,,,,,,,,,,,,,,,,,,,
,,,,,00055,2023-10-14_19h36.20.443,vbt_B2_day4,2022.2.4,Win32,59.69792848,,,,,,down,0,0.1154,,0.084259245,-0.147222236,1,0,0,0,50,50,102,1,legaal,images/br_legaal.png,images/cb_legaal.png,0,,,,,,,,,,,,,,,,,,,,,,
,,,,,00055,2023-10-14_19h36.20.443,vbt_B2_day4,2022.2.4,Win32,59.69792848,,,,,,down,0,2.8055,,0.536111196,0.043518526,1,0,0,0,51,51,193,1,weeshuis,images/br_weeshuis.png,images/cb_weeshuis.png,0,,,,,,,,,,,,,,,,,,,,,,
,,,,,00055,2023-10-14_19h36.20.443,vbt_B2_day4,2022.2.4,Win32,59.69792848,,,,,,down,0,1.9794,,0.238888917,-0.378703718,1,0,0,0,52,52,54,1,gebit,images/br_gebit.png,images/cb_gebit.png,0,,,,,,,,,,,,,,,,,,,,,,
,,,,,00055,2023-10-14_19h36.20.443,vbt_B2_day4,2022.2.4,Win32,59.69792848,,,,,,down,0,0.2472,,0.238888917,-0.378703718,1,0,0,0,53,53,0,1,slak,images/br_slak.png,images/cb_slak.png,0,,,,,,,,,,,,,,,,,,,,,,
,,,,,00055,2023-10-14_19h36.20.443,vbt_B2_day4,2022.2.4,Win32,59.69792848,,,,,,down,0,5.4832,,0.238888917,-0.378703718,1,0,0,0,54,54,186,1,voorraad,images/br_voorraad.png,images/cb_voorraad.png,1,voorraad,,,,,,,,,,,,,,,,,,,,,
,,,,,00055,2023-10-14_19h36.20.443,vbt_B2_day4,2022.2.4,Win32,59.69792848,,,,,,down,0,2.7682,,0.286111125,-0.275000042,1,0,0,0,55,55,192,1,schaamte,images/br_schaamte.png,images/cb_schaamte.png,0,,,,,,,,,,,,,,,,,,,,,,
,,,,,00055,2023-10-14_19h36.20.443,vbt_B2_day4,2022.2.4,Win32,59.69792848,,,,,,down,0,5.2032,,0.309259344,-0.22592594,1,0,0,0,56,56,121,1,twijfel,images/br_twijfel.png,images/cb_twijfel.png,0,,,,,,,,,,,,,,,,,,,,,,
,,,,,00055,2023-10-14_19h36.20.443,vbt_B2_day4,2022.2.4,Win32,59.69792848,,,,,,down,0,1.6011,,0.309259344,-0.22592594,1,0,0,0,57,57,119,1,liefje,images/br_liefje.png,images/cb_liefje.png,0,,,,,,,,,,,,,,,,,,,,,,
,,,,,00055,2023-10-14_19h36.20.443,vbt_B2_day4,2022.2.4,Win32,59.69792848,,,,,,down,0,6.0676,,0.299074102,-0.216666681,1,0,0,0,58,58,69,1,waken,images/br_waken.png,images/cb_waken.png,0,,,,,,,,,,,,,,,,,,,,,,
,,,,,00055,2023-10-14_19h36.20.443,vbt_B2_day4,2022.2.4,Win32,59.69792848,,,,,,down,0,0.0727,,0.291666667,-0.226851852,1,0,0,0,59,59,48,1,steel,images/br_steel.png,images/cb_steel.png,0,,,,,,,,,,,,,,,,,,,,,,
,,,,,00055,2023-10-14_19h36.20.443,vbt_B2_day4,2022.2.4,Win32,59.69792848,,,,,,down,0,1.9706,,0.291666667,-0.228703746,1,0,0,0,60,60,141,1,knielen,images/br_knielen.png,images/cb_knielen.png,0,,,,,,,,,,,,,,,,,,,,,,
,,,,,00055,2023-10-14_19h36.20.443,vbt_B2_day4,2022.2.4,Win32,59.69792848,,,,,,down,0,7.1474,,0.291666667,-0.228703746,1,0,0,0,61,61,197,1,spanning,images/br_spanning.png,images/cb_spanning.png,0,,,,,,,,,,,,,,,,,,,,,,
,,,,,00055,2023-10-14_19h36.20.443,vbt_B2_day4,2022.2.4,Win32,59.69792848,,,,,,down,0,0.8376,,0.291666667,-0.228703746,1,0,0,0,62,62,21,1,mist,images/br_mist.png,images/cb_mist.png,0,,,,,,,,,,,,,,,,,,,,,,
,,,,,00055,2023-10-14_19h36.20.443,vbt_B2_day4,2022.2.4,Win32,59.69792848,,,,,,down,0,1.4952,,0.291666667,-0.228703746,1,0,0,0,63,63,62,1,knaap,images/br_knaap.png,images/cb_knaap.png,0,,,,,,,,,,,,,,,,,,,,,,
,,,,,00055,2023-10-14_19h36.20.443,vbt_B2_day4,2022.2.4,Win32,59.69792848,,,,,,down,0,2.8,,0.291666667,-0.228703746,1,0,0,0,64,64,95,1,vreten,images/br_vreten.png,images/cb_vreten.png,0,,,,,,,,,,,,,,,,,,,,,,
,,,,,00055,2023-10-14_19h36.20.443,vbt_B2_day4,2022.2.4,Win32,59.69792848,,,,,,down,0,0.561,,0.291666667,-0.228703746,1,0,0,0,65,65,127,1,doodmoe,images/br_doodmoe.png,images/cb_doodmoe.png,0,,,,,,,,,,,,,,,,,,,,,,
,,,,,00055,2023-10-14_19h36.20.443,vbt_B2_day4,2022.2.4,Win32,59.69792848,,,,,,down,0,0.0398,,0.295370384,-0.218518504,1,0,0,0,66,66,17,1,taal,images/br_taal.png,images/cb_taal.png,0,,,,,,,,,,,,,,,,,,,,,,
,,,,,00055,2023-10-14_19h36.20.443,vbt_B2_day4,2022.2.4,Win32,59.69792848,,,,,,down,0,0.2728,,0.294444473,-0.220370399,1,0,0,0,67,67,10,1,leek,images/br_leek.png,images/cb_leek.png,0,,,,,,,,,,,,,,,,,,,,,,
,,,,,00055,2023-10-14_19h36.20.443,vbt_B2_day4,2022.2.4,Win32,59.69792848,,,,,,down,0,4.7325,,0.294444473,-0.220370399,1,0,0,0,68,68,85,1,heilig,images/br_heilig.png,images/cb_heilig.png,0,,,,,,,,,,,,,,,,,,,,,,
,,,,,00055,2023-10-14_19h36.20.443,vbt_B2_day4,2022.2.4,Win32,59.69792848,,,,,,down,0,2.2075,,0.294444473,-0.220370399,1,0,0,0,69,69,80,1,kanjer,images/br_kanjer.png,images/cb_kanjer.png,0,,,,,,,,,,,,,,,,,,,,,,
,,,,,00055,2023-10-14_19h36.20.443,vbt_B2_day4,2022.2.4,Win32,59.69792848,,,,,,down,0,0.3685,,0.294444473,-0.220370399,1,0,0,0,70,70,189,1,aanraden,images/br_aanraden.png,images/cb_aanraden.png,0,,,,,,,,,,,,,,,,,,,,,,
,,,,,00055,2023-10-14_19h36.20.443,vbt_B2_day4,2022.2.4,Win32,59.69792848,,,,,,down,0,2.9172,,0.294444473,-0.220370399,1,0,0,0,71,71,163,1,schuilen,images/br_schuilen.png,images/cb_schuilen.png,0,,,,,,,,,,,,,,,,,,,,,,
,,,,,00055,2023-10-14_19h36.20.443,vbt_B2_day4,2022.2.4,Win32,59.69792848,,,,,,down,0,0.8253,,0.291666667,-0.217592593,1,0,0,0,72,72,144,1,eetlust,images/br_eetlust.png,images/cb_eetlust.png,1,eetlust,,,,,,,,,,,,,,,,,,,,,
,,,,,00055,2023-10-14_19h36.20.443,vbt_B2_day4,2022.2.4,Win32,59.69792848,,,,,,down,0,0.8467,,0.291666667,-0.217592593,1,0,0,0,73,73,37,1,mijn,images/br_mijn.png,images/cb_mijn.png,0,,,,,,,,,,,,,,,,,,,,,,
,,,,,00055,2023-10-14_19h36.20.443,vbt_B2_day4,2022.2.4,Win32,59.69792848,,,,,,down,0,1.314,,0.291666667,-0.217592593,1,0,0,0,74,74,190,1,goedkoop,images/br_goedkoop.png,images/cb_goedkoop.png,0,,,,,,,,,,,,,,,,,,,,,,
,,,,,00055,2023-10-14_19h36.20.443,vbt_B2_day4,2022.2.4,Win32,59.69792848,,,,,,down,0,1.3069,,0.291666667,-0.217592593,1,0,0,0,75,75,185,1,mijnheer,images/br_mijnheer.png,images/cb_mijnheer.png,1,mijnheer,,,,,,,,,,,,,,,,,,,,,
,,,,,00055,2023-10-14_19h36.20.443,vbt_B2_day4,2022.2.4,Win32,59.69792848,,,,,,down,0,3.905,,0.291666667,-0.217592593,1,0,0,0,76,76,89,1,slapen,images/br_slapen.png,images/cb_slapen.png,0,,,,,,,,,,,,,,,,,,,,,,
,,,,,00055,2023-10-14_19h36.20.443,vbt_B2_day4,2022.2.4,Win32,59.69792848,,,,,,down,0,1.5029,,0.286111125,-0.215740769,1,0,0,0,77,77,147,1,komisch,images/br_komisch.png,images/cb_komisch.png,1,komisch,,,,,,,,,,,,,,,,,,,,,
,,,,,00055,2023-10-14_19h36.20.443,vbt_B2_day4,2022.2.4,Win32,59.69792848,,,,,,down,0,2.5275,,0.285185213,-0.212962963,1,0,0,0,78,78,124,1,bloeien,images/br_bloeien.png,images/cb_bloeien.png,0,,,,,,,,,,,,,,,,,,,,,,
,,,,,00055,2023-10-14_19h36.20.443,vbt_B2_day4,2022.2.4,Win32,59.69792848,,,,,,down,0,1.4824,,0.285185213,-0.212962963,1,0,0,0,79,79,86,1,woning,images/br_woning.png,images/cb_woning.png,0,,,,,,,,,,,,,,,,,,,,,,
,,,,,00055,2023-10-14_19h36.20.443,vbt_B2_day4,2022.2.4,Win32,59.69792848,,,,,,down,0,2.373,,0.287037037,-0.211111139,1,0,0,0,80,80,180,1,openbaar,images/br_openbaar.png,images/cb_openbaar.png,0,,,,,,,,,,,,,,,,,,,,,,
,,,,,00055,2023-10-14_19h36.20.443,vbt_B2_day4,2022.2.4,Win32,59.69792848,,,,,,down,0,1.1534,,0.287037037,-0.211111139,1,0,0,0,81,81,97,1,loyaal,images/br_loyaal.png,images/cb_loyaal.png,0,,,,,,,,,,,,,,,,,,,,,,
,,,,,00055,2023-10-14_19h36.20.443,vbt_B2_day4,2022.2.4,Win32,59.69792848,,,,,,down,0,2.4442,,0.287037037,-0.211111139,1,0,0,0,82,82,4,1,moes,images/br_moes.png,images/cb_moes.png,0,,,,,,,,,,,,,,,,,,,,,,
,,,,,00055,2023-10-14_19h36.20.443,vbt_B2_day4,2022.2.4,Win32,59.69792848,,,,,,down,0,1.0821,,0.287037037,-0.211111139,1,0,0,0,83,83,170,1,schatten,images/br_schatten.png,images/cb_schatten.png,0,,,,,,,,,,,,,,,,,,,,,,
,,,,,00055,2023-10-14_19h36.20.443,vbt_B2_day4,2022.2.4,Win32,59.69792848,,,,,,down,0,2.4676,,0.287037037,-0.211111139,1,0,0,0,84,84,129,1,verhaal,images/br_verhaal.png,images/cb_verhaal.png,0,,,,,,,,,,,,,,,,,,,,,,
,,,,,00055,2023-10-14_19h36.20.443,vbt_B2_day4,2022.2.4,Win32,59.69792848,,,,,,down,0,2.338,,0.287037037,-0.211111139,1,0,0,0,85,85,140,1,blijven,images/br_blijven.png,images/cb_blijven.png,0,,,,,,,,,,,,,,,,,,,,,,
,,,,,00055,2023-10-14_19h36.20.443,vbt_B2_day4,2022.2.4,Win32,59.69792848,,,,,,down,0,0.1204,,0.284259302,-0.212962963,1,0,0,0,86,86,29,1,baas,images/br_baas.png,images/cb_baas.png,0,,,,,,,,,,,,,,,,,,,,,,
,,,,,00055,2023-10-14_19h36.20.443,vbt_B2_day4,2022.2.4,Win32,59.69792848,,,,,,down,0,0.7452,,0.284259302,-0.212962963,1,0,0,0,87,87,27,1,dans,images/br_dans.png,images/cb_dans.png,1,dans,,,,,,,,,,,,,,,,,,,,,
,,,,,00055,2023-10-14_19h36.20.443,vbt_B2_day4,2022.2.4,Win32,59.69792848,,,,,,down,0,1.483,,0.284259302,-0.212962963,1,0,0,0,88,88,107,1,maling,images/br_maling.png,images/cb_maling.png,1,maling,,,,,,,,,,,,,,,,,,,,,
,,,,,00055,2023-10-14_19h36.20.443,vbt_B2_day4,2022.2.4,Win32,59.69792848,,,,,,down,0,0.6013,,0.279629672,-0.216666681,1,0,0,0,89,89,195,1,middelen,images/br_middelen.png,images/cb_middelen.png,0,,,,,,,,,,,,,,,,,,,,,,
,,,,,00055,2023-10-14_19h36.20.443,vbt_B2_day4,2022.2.4,Win32,59.69792848,,,,,,down,0,0.2087,,0.279629672,-0.217592593,1,0,0,0,90,90,51,1,samen,images/br_samen.png,images/cb_samen.png,0,,,,,,,,,,,,,,,,,,,,,,
,,,,,00055,2023-10-14_19h36.20.443,vbt_B2_day4,2022.2.4,Win32,59.69792848,,,,,,down,0,3.8171,,0.279629672,-0.217592593,1,0,0,0,91,91,116,1,besmet,images/br_besmet.png,images/cb_besmet.png,0,,,,,,,,,,,,,,,,,,,,,,
,,,,,00055,2023-10-14_19h36.20.443,vbt_B2_day4,2022.2.4,Win32,59.69792848,,,,,,down,0,0.8482,,0.279629672,-0.217592593,1,0,0,0,92,92,122,1,waarvan,images/br_waarvan.png,images/cb_waarvan.png,0,,,,,,,,,,,,,,,,,,,,,,
,,,,,00055,2023-10-14_19h36.20.443,vbt_B2_day4,2022.2.4,Win32,59.69792848,,,,,,down,0,6.0469,,0.033333319,0.02407406,1,0,0,0,93,93,88,1,boeien,images/br_boeien.png,images/cb_boeien.png,0,,,,,,,,,,,,,,,,,,,,,,
,,,,,00055,2023-10-14_19h36.20.443,vbt_B2_day4,2022.2.4,Win32,59.69792848,,,,,,down,0,1.4562,,0.033333319,0.0074074,1,0,0,0,94,94,152,1,afnemen,images/br_afnemen.png,images/cb_afnemen.png,0,,,,,,,,,,,,,,,,,,,,,,
,,,,,00055,2023-10-14_19h36.20.443,vbt_B2_day4,2022.2.4,Win32,59.69792848,,,,,,down,0,0.7141,,0.033333319,0.0074074,1,0,0,0,95,95,16,1,ziek,images/br_ziek.png,images/cb_ziek.png,0,,,,,,,,,,,,,,,,,,,,,,
,,,,,00055,2023-10-14_19h36.20.443,vbt_B2_day4,2022.2.4,Win32,59.69792848,,,,,,down,0,0.859,,0.043518561,0.045370349,1,0,0,0,96,96,79,1,nodig,images/br_nodig.png,images/cb_nodig.png,0,,,,,,,,,,,,,,,,,,,,,,
,,,,,00055,2023-10-14_19h36.20.443,vbt_B2_day4,2022.2.4,Win32,59.69792848,,,,,,down,0,1.9562,,0.085185228,0.006481489,1,0,0,0,97,97,76,1,afval,images/br_afval.png,images/cb_afval.png,0,,,,,,,,,,,,,,,,,,,,,,
,,,,,00055,2023-10-14_19h36.20.443,vbt_B2_day4,2022.2.4,Win32,59.69792848,,,,,,down,0,2.5334,,0.085185228,0.006481489,1,0,0,0,98,98,187,1,opkijken,images/br_opkijken.png,images/cb_opkijken.png,1,opkijken,,,,,,,,,,,,,,,,,,,,,
,,,,,00055,2023-10-14_19h36.20.443,vbt_B2_day4,2022.2.4,Win32,59.69792848,,,,,,down,0,2.4016,,0.085185228,0.006481489,1,0,0,0,99,99,126,1,kasteel,images/br_kasteel.png,images/cb_kasteel.png,0,,,,,,,,,,,,,,,,,,,,,,
,,,,,00055,2023-10-14_19h36.20.443,vbt_B2_day4,2022.2.4,Win32,59.69792848,,,,,,down,0,2.1948,,0.085185228,0.006481489,1,0,0,0,100,100,33,1,vlek,images/br_vlek.png,images/cb_vlek.png,0,,,,,,,,,,,,,,,,,,,,,,
,,,,,00055,2023-10-14_19h36.20.443,vbt_B2_day4,2022.2.4,Win32,59.69792848,,,,,,down,0,2.0881,,0.085185228,0.006481489,1,0,0,0,101,101,13,1,kaal,images/br_kaal.png,images/cb_kaal.png,0,,,,,,,,,,,,,,,,,,,,,,
,,,,,00055,2023-10-14_19h36.20.443,vbt_B2_day4,2022.2.4,Win32,59.69792848,,,,,,down,0,2.9033,,0.722222222,-0.01666666,1,0,0,0,102,102,23,1,zout,images/br_zout.png,images/cb_zout.png,0,,,,,,,,,,,,,,,,,,,,,,
,,,,,00055,2023-10-14_19h36.20.443,vbt_B2_day4,2022.2.4,Win32,59.69792848,,,,,,down,0,1.048,,0.710185157,-0.029629637,1,0,0,0,103,103,32,1,palm,images/br_palm.png,images/cb_palm.png,0,,,,,,,,,,,,,,,,,,,,,,
,,,,,00055,2023-10-14_19h36.20.443,vbt_B2_day4,2022.2.4,Win32,59.69792848,,,,,,down,0,1.1692,,0.710185157,-0.030555548,1,0,0,0,104,104,142,1,snuiven,images/br_snuiven.png,images/cb_snuiven.png,0,,,,,,,,,,,,,,,,,,,,,,
,,,,,00055,2023-10-14_19h36.20.443,vbt_B2_day4,2022.2.4,Win32,59.69792848,,,,,,down,0,0.1159,,0.710185157,-0.030555548,1,0,0,0,105,105,68,1,schat,images/br_schat.png,images/cb_schat.png,0,,,,,,,,,,,,,,,,,,,,,,
,,,,,00055,2023-10-14_19h36.20.443,vbt_B2_day4,2022.2.4,Win32,59.69792848,,,,,,down,0,0.5572,,0.710185157,-0.031481496,1,0,0,0,106,106,78,1,leren,images/br_leren.png,images/cb_leren.png,0,,,,,,,,,,,,,,,,,,,,,,
,,,,,00055,2023-10-14_19h36.20.443,vbt_B2_day4,2022.2.4,Win32,59.69792848,,,,,,down,0,0.328,,0.710185157,-0.031481496,1,0,0,0,107,107,65,1,parel,images/br_parel.png,images/cb_parel.png,1,parel,,,,,,,,,,,,,,,,,,,,,
,,,,,00055,2023-10-14_19h36.20.443,vbt_B2_day4,2022.2.4,Win32,59.69792848,,,,,,down,0,0.7567,,0.694444444,-0.053703697,1,0,0,0,108,108,148,1,smullen,images/br_smullen.png,images/cb_smullen.png,0,,,,,,,,,,,,,,,,,,,,,,
,,,,,00055,2023-10-14_19h36.20.443,vbt_B2_day4,2022.2.4,Win32,59.69792848,,,,,,down,0,0.2068,,0.694444444,-0.053703697,1,0,0,0,109,109,14,1,rijp,images/br_rijp.png,images/cb_rijp.png,0,,,,,,,,,,,,,,,,,,,,,,
,,,,,00055,2023-10-14_19h36.20.443,vbt_B2_day4,2022.2.4,Win32,59.69792848,,,,,,down,0,0.7999,,0.694444444,-0.053703697,1,0,0,0,110,110,111,1,ticket,images/br_ticket.png,images/cb_ticket.png,0,,,,,,,,,,,,,,,,,,,,,,
,,,,,00055,2023-10-14_19h36.20.443,vbt_B2_day4,2022.2.4,Win32,59.69792848,,,,,,down,0,5.7501,,0.685185185,-0.062962956,1,0,0,0,111,111,130,1,keihard,images/br_keihard.png,images/cb_keihard.png,0,,,,,,,,,,,,,,,,,,,,,,
,,,,,00055,2023-10-14_19h36.20.443,vbt_B2_day4,2022.2.4,Win32,59.69792848,,,,,,down,0,0.7477,,0.683333362,-0.062037044,1,0,0,0,112,112,138,1,akkoord,images/br_akkoord.png,images/cb_akkoord.png,0,,,,,,,,,,,,,,,,,,,,,,
,,,,,00055,2023-10-14_19h36.20.443,vbt_B2_day4,2022.2.4,Win32,59.69792848,,,,,,down,0,1.2716,,0.606481481,-0.10555557,1,0,0,0,113,113,50,1,stoom,images/br_stoom.png,images/cb_stoom.png,0,,,,,,,,,,,,,,,,,,,,,,
,,,,,00055,2023-10-14_19h36.20.443,vbt_B2_day4,2022.2.4,Win32,59.69792848,,,,,,down,0,0.0732,,0.601851852,-0.108333376,1,0,0,0,114,114,183,1,getuigen,images/br_getuigen.png,images/cb_getuigen.png,0,,,,,,,,,,,,,,,,,,,,,,
,,,,,00055,2023-10-14_19h36.20.443,vbt_B2_day4,2022.2.4,Win32,59.69792848,,,,,,down,0,0.4401,,0.601851852,-0.108333376,1,0,0,0,115,115,36,1,vuur,images/br_vuur.png,images/cb_vuur.png,0,,,,,,,,,,,,,,,,,,,,,,
,,,,,00055,2023-10-14_19h36.20.443,vbt_B2_day4,2022.2.4,Win32,59.69792848,,,,,,down,0,1.3784,,0.601851852,-0.108333376,1,0,0,0,116,116,188,1,strekken,images/br_strekken.png,images/cb_strekken.png,0,,,,,,,,,,,,,,,,,,,,,,
,,,,,00055,2023-10-14_19h36.20.443,vbt_B2_day4,2022.2.4,Win32,59.69792848,,,,,,down,0,0.6039,,0.550000085,-0.499074088,1,0,0,0,117,117,82,1,muziek,images/br_muziek.png,images/cb_muziek.png,0,,,,,,,,,,,,,,,,,,,,,,
,,,,,00055,2023-10-14_19h36.20.443,vbt_B2_day4,2022.2.4,Win32,59.69792848,,,,,,down,0,4.8216,,0.128703718,-0.075000021,1,0,0,0,118,118,169,1,oprotten,images/br_oprotten.png,images/cb_oprotten.png,0,,,,,,,,,,,,,,,,,,,,,,
,,,,,00055,2023-10-14_19h36.20.443,vbt_B2_day4,2022.2.4,Win32,59.69792848,,,,,,down,0,2.4228,,0.128703718,-0.075000021,1,0,0,0,119,119,167,1,eenhoorn,images/br_eenhoorn.png,images/cb_eenhoorn.png,0,,,,,,,,,,,,,,,,,,,,,,
,,,,,00055,2023-10-14_19h36.20.443,vbt_B2_day4,2022.2.4,Win32,59.69792848,,,,,,down,0,1.3035,,0.128703718,-0.075000021,1,0,0,0,120,120,58,1,tekst,images/br_tekst.png,images/cb_tekst.png,0,,,,,,,,,,,,,,,,,,,,,,
,,,,,00055,2023-10-14_19h36.20.443,vbt_B2_day4,2022.2.4,Win32,59.69792848,,,,,,down,0,0.2754,,0.128703718,-0.075000021,1,0,0,0,121,121,191,1,opheffen,images/br_opheffen.png,images/cb_opheffen.png,0,,,,,,,,,,,,,,,,,,,,,,
,,,,,00055,2023-10-14_19h36.20.443,vbt_B2_day4,2022.2.4,Win32,59.69792848,,,,,,down,0,0.0725,,0.128703718,-0.075000021,1,0,0,0,122,122,150,1,gegeven,images/br_gegeven.png,images/cb_gegeven.png,0,,,,,,,,,,,,,,,,,,,,,,
,,,,,00055,2023-10-14_19h36.20.443,vbt_B2_day4,2022.2.4,Win32,59.69792848,,,,,,down,0,1.2487,,0.125,-0.077777792,1,0,0,0,123,123,171,1,aarzelen,images/br_aarzelen.png,images/cb_aarzelen.png,0,,,,,,,,,,,,,,,,,,,,,,
,,,,,00055,2023-10-14_19h36.20.443,vbt_B2_day4,2022.2.4,Win32,59.69792848,,,,,,down,0,4.6847,,0.125,-0.077777792,1,0,0,0,124,124,161,1,attentie,images/br_attentie.png,images/cb_attentie.png,0,,,,,,,,,,,,,,,,,,,,,,
,,,,,00055,2023-10-14_19h36.20.443,vbt_B2_day4,2022.2.4,Win32,59.69792848,,,,,,down,0,0.592,,0.125,-0.077777792,1,0,0,0,125,125,118,1,vinger,images/br_vinger.png,images/cb_vinger.png,0,,,,,,,,,,,,,,,,,,,,,,
,,,,,00055,2023-10-14_19h36.20.443,vbt_B2_day4,2022.2.4,Win32,59.69792848,,,,,,down,0,1.5677,,0.125,-0.077777792,1,0,0,0,126,126,198,1,bedoelen,images/br_bedoelen.png,images/cb_bedoelen.png,0,,,,,,,,,,,,,,,,,,,,,,
,,,,,00055,2023-10-14_19h36.20.443,vbt_B2_day4,2022.2.4,Win32,59.69792848,,,,,,down,0,0.4574,,0.125,-0.077777792,1,0,0,0,127,127,30,1,uien,images/br_uien.png,images/cb_uien.png,0,,,,,,,,,,,,,,,,,,,,,,
,,,,,00055,2023-10-14_19h36.20.443,vbt_B2_day4,2022.2.4,Win32,59.69792848,,,,,,down,0,2.2482,,0.125,-0.077777792,1,0,0,0,128,128,123,1,hiervan,images/br_hiervan.png,images/cb_hiervan.png,0,,,,,,,,,,,,,,,,,,,,,,
,,,,,00055,2023-10-14_19h36.20.443,vbt_B2_day4,2022.2.4,Win32,59.69792848,,,,,,down,0,0.2358,,0.125,-0.077777792,1,0,0,0,129,129,35,1,lust,images/br_lust.png,images/cb_lust.png,0,,,,,,,,,,,,,,,,,,,,,,
,,,,,00055,2023-10-14_19h36.20.443,vbt_B2_day4,2022.2.4,Win32,59.69792848,,,,,,down,0,0.3879,,-0.020370342,-0.035185178,1,0,0,0,130,130,91,1,gezond,images/br_gezond.png,images/cb_gezond.png,0,,,,,,,,,,,,,,,,,,,,,,
,,,,,00055,2023-10-14_19h36.20.443,vbt_B2_day4,2022.2.4,Win32,59.69792848,,,,,,down,0,3.668,,0.090740769,-0.027777778,1,0,0,0,131,131,131,1,opzicht,images/br_opzicht.png,images/cb_opzicht.png,0,,,,,,,,,,,,,,,,,,,,,,
,,,,,00055,2023-10-14_19h36.20.443,vbt_B2_day4,2022.2.4,Win32,59.69792848,,,,,,down,0,0.2695,,0.125,-0.062962956,1,0,0,0,132,132,56,1,traag,images/br_traag.png,images/cb_traag.png,0,,,,,,,,,,,,,,,,,,,,,,
,,,,,00055,2023-10-14_19h36.20.443,vbt_B2_day4,2022.2.4,Win32,59.69792848,,,,,,down,0,0.8682,,0.150000042,-0.056481503,1,0,0,0,133,133,110,1,zuster,images/br_zuster.png,images/cb_zuster.png,0,,,,,,,,,,,,,,,,,,,,,,
,,,,,00055,2023-10-14_19h36.20.443,vbt_B2_day4,2022.2.4,Win32,59.69792848,,,,,,down,0,4.604,,0.345370399,0.053703697,1,0,0,0,134,134,92,1,geheim,images/br_geheim.png,images/cb_geheim.png,0,,,,,,,,,,,,,,,,,,,,,,
,,,,,00055,2023-10-14_19h36.20.443,vbt_B2_day4,2022.2.4,Win32,59.69792848,,,,,,down,0,7.5585,,0.440740797,0.25462963,1,0,0,0,135,135,153,1,vervoer,images/br_vervoer.png,images/cb_vervoer.png,0,,,,,,,,,,,,,,,,,,,,,,
,,,,,00055,2023-10-14_19h36.20.443,vbt_B2_day4,2022.2.4,Win32,59.69792848,,,,,,down,0,3.3019,,0.440740797,0.25462963,1,0,0,0,136,136,73,1,volop,images/br_volop.png,images/cb_volop.png,0,,,,,,,,,,,,,,,,,,,,,,
,,,,,00055,2023-10-14_19h36.20.443,vbt_B2_day4,2022.2.4,Win32,59.69792848,,,,,,down,0,1.2948,,0.312962991,0.392592589,1,0,0,0,137,137,134,1,geliefd,images/br_geliefd.png,images/cb_geliefd.png,0,,,,,,,,,,,,,,,,,,,,,,
,,,,,00055,2023-10-14_19h36.20.443,vbt_B2_day4,2022.2.4,Win32,59.69792848,,,,,,down,0,1.5331,,0.704629686,-0.033333355,1,0,0,0,138,138,81,1,dubbel,images/br_dubbel.png,images/cb_dubbel.png,0,,,,,,,,,,,,,,,,,,,,,,
,,,,,00055,2023-10-14_19h36.20.443,vbt_B2_day4,2022.2.4,Win32,59.69792848,,,,,,down,0,1.367,,0.54814812,-0.059259273,1,0,0,0,139,139,11,1,mode,images/br_mode.png,images/cb_mode.png,0,,,,,,,,,,,,,,,,,,,,,,
,,,,,00055,2023-10-14_19h36.20.443,vbt_B2_day4,2022.2.4,Win32,59.69792848,,,,,,down,0,0.6442,,0.554629714,-0.060185185,1,0,0,0,140,140,70,1,ijdel,images/br_ijdel.png,images/cb_ijdel.png,0,,,,,,,,,,,,,,,,,,,,,,
,,,,,00055,2023-10-14_19h36.20.443,vbt_B2_day4,2022.2.4,Win32,59.69792848,,,,,,down,0,1.2005,,0.562037009,-0.053703697,1,0,0,0,141,141,22,1,stof,images/br_stof.png,images/cb_stof.png,0,,,,,,,,,,,,,,,,,,,,,,
,,,,,00055,2023-10-14_19h36.20.443,vbt_B2_day4,2022.2.4,Win32,59.69792848,,,,,,down,0,3.301,,0.592592593,-0.022222236,1,0,0,0,142,142,176,1,techniek,images/br_techniek.png,images/cb_techniek.png,0,,,,,,,,,,,,,,,,,,,,,,
,,,,,00055,2023-10-14_19h36.20.443,vbt_B2_day4,2022.2.4,Win32,59.69792848,,,,,,down,0,0.5339,,0.540740826,-0.048148155,1,0,0,0,143,143,75,1,snoep,images/br_snoep.png,images/cb_snoep.png,0,,,,,,,,,,,,,,,,,,,,,,
,,,,,00055,2023-10-14_19h36.20.443,vbt_B2_day4,2022.2.4,Win32,59.69792848,,,,,,down,0,1.8681,,0.598148205,-0.092592593,1,0,0,0,144,144,6,1,diep,images/br_diep.png,images/cb_diep.png,0,,,,,,,,,,,,,,,,,,,,,,
,,,,,00055,2023-10-14_19h36.20.443,vbt_B2_day4,2022.2.4,Win32,59.69792848,,,,,,down,0,5.228,,0.812962991,-0.222222222,1,0,0,0,145,145,181,1,toegeven,images/br_toegeven.png,images/cb_toegeven.png,0,,,,,,,,,,,,,,,,,,,,,,
,,,,,00055,2023-10-14_19h36.20.443,vbt_B2_day4,2022.2.4,Win32,59.69792848,,,,,,down,0,3.1394,,0.800925926,-0.233333376,1,0,0,0,146,146,182,1,bijkomen,images/br_bijkomen.png,images/cb_bijkomen.png,0,,,,,,,,,,,,,,,,,,,,,,
,,,,,00055,2023-10-14_19h36.20.443,vbt_B2_day4,2022.2.4,Win32,59.69792848,,,,,,down,0,0.7797,,0.800925926,-0.234259288,1,0,0,0,147,147,159,1,sufferd,images/br_sufferd.png,images/cb_sufferd.png,0,,,,,,,,,,,,,,,,,,,,,,
,,,,,00055,2023-10-14_19h36.20.443,vbt_B2_day4,2022.2.4,Win32,59.69792848,,,,,,down,0,3.2652,,0.827777863,-0.337962963,1,0,0,0,148,148,154,1,aflopen,images/br_aflopen.png,images/cb_aflopen.png,0,,,,,,,,,,,,,,,,,,,,,,
,,,,,00055,2023-10-14_19h36.20.443,vbt_B2_day4,2022.2.4,Win32,59.69792848,,,,,,down,0,3.8148,,0.791666667,-0.332407422,1,0,0,0,149,149,137,1,trekker,images/br_trekker.png,images/cb_trekker.png,0,,,,,,,,,,,,,,,,,,,,,,
,,,,,00055,2023-10-14_19h36.20.443,vbt_B2_day4,2022.2.4,Win32,59.69792848,,,,,,down,0,27.4935,,0.813888974,-0.336111139,1,0,0,0,150,150,156,1,rechten,images/br_rechten.png,images/cb_rechten.png,0,,,,,,,,,,,,,,,,,,,,,,
,,,,,00055,2023-10-14_19h36.20.443,vbt_B2_day4,2022.2.4,Win32,59.69792848,,,,,,down,0,0.8768,,0.82222225,-0.338888875,1,0,0,0,151,151,96,1,slagen,images/br_slagen.png,images/cb_slagen.png,0,,,,,,,,,,,,,,,,,,,,,,
,,,,,00055,2023-10-14_19h36.20.443,vbt_B2_day4,2022.2.4,Win32,59.69792848,,,,,,down,0,0.8866,,0.824074074,-0.338888875,1,0,0,0,152,152,72,1,strak,images/br_strak.png,images/cb_strak.png,0,,,,,,,,,,,,,,,,,,,,,,
,,,,,00055,2023-10-14_19h36.20.443,vbt_B2_day4,2022.2.4,Win32,59.69792848,,,,,,down,0,0.0871,,0.824074074,-0.338888875,1,0,0,0,153,153,19,1,geit,images/br_geit.png,images/cb_geit.png,0,,,,,,,,,,,,,,,,,,,,,,
,,,,,00055,2023-10-14_19h36.20.443,vbt_B2_day4,2022.2.4,Win32,59.69792848,,,,,,down,0,0.684,,0.525925954,-0.362963005,1,0,0,0,154,154,103,1,joggen,images/br_joggen.png,images/cb_joggen.png,0,,,,,,,,,,,,,,,,,,,,,,
,,,,,00055,2023-10-14_19h36.20.443,vbt_B2_day4,2022.2.4,Win32,59.69792848,,,,,,down,0,1.7499,,0.515740712,-0.364814829,1,0,0,0,155,155,5,1,blad,images/br_blad.png,images/cb_blad.png,0,,,,,,,,,,,,,,,,,,,,,,
,,,,,00055,2023-10-14_19h36.20.443,vbt_B2_day4,2022.2.4,Win32,59.69792848,,,,,,down,0,15.67,,0.515740712,-0.364814829,1,0,0,0,156,156,155,1,gerucht,images/br_gerucht.png,images/cb_gerucht.png,0,,,,,,,,,,,,,,,,,,,,,,
,,,,,00055,2023-10-14_19h36.20.443,vbt_B2_day4,2022.2.4,Win32,59.69792848,,,,,,down,0,3.0154,,0.515740712,-0.364814829,1,0,0,0,157,157,34,1,vorm,images/br_vorm.png,images/cb_vorm.png,0,,,,,,,,,,,,,,,,,,,,,,
,,,,,00055,2023-10-14_19h36.20.443,vbt_B2_day4,2022.2.4,Win32,59.69792848,,,,,,down,0,2.3157,,0.515740712,-0.364814829,1,0,0,0,158,158,145,1,invloed,images/br_invloed.png,images/cb_invloed.png,1,invloed,,,,,,,,,,,,,,,,,,,,,
,,,,,00055,2023-10-14_19h36.20.443,vbt_B2_day4,2022.2.4,Win32,59.69792848,,,,,,down,0,1.0431,,0.772222307,-0.268518519,1,0,0,0,159,159,166,1,strikken,images/br_strikken.png,images/cb_strikken.png,0,,,,,,,,,,,,,,,,,,,,,,
,,,,,00055,2023-10-14_19h36.20.443,vbt_B2_day4,2022.2.4,Win32,59.69792848,,,,,,down,0,2.8528,,0.795370455,-0.273148148,1,0,0,0,160,160,83,1,mening,images/br_mening.png,images/cb_mening.png,0,,,,,,,,,,,,,,,,,,,,,,
,,,,,00055,2023-10-14_19h36.20.443,vbt_B2_day4,2022.2.4,Win32,59.69792848,,,,,,down,0,0.0048,,0.795370455,-0.273148148,1,0,0,0,161,161,7,1,geld,images/br_geld.png,images/cb_geld.png,0,,,,,,,,,,,,,,,,,,,,,,
,,,,,00055,2023-10-14_19h36.20.443,vbt_B2_day4,2022.2.4,Win32,59.69792848,,,,,,down,0,0.9976,,0.795370455,-0.273148148,1,0,0,0,162,162,184,1,aandelen,images/br_aandelen.png,images/cb_aandelen.png,1,aandelen,,,,,,,,,,,,,,,,,,,,,
,,,,,00055,2023-10-14_19h36.20.443,vbt_B2_day4,2022.2.4,Win32,59.69792848,,,,,,down,0,2.5694,,0.339814787,0.072222215,1,0,0,0,163,163,133,1,seizoen,images/br_seizoen.png,images/cb_seizoen.png,0,,,,,,,,,,,,,,,,,,,,,,
,,,,,00055,2023-10-14_19h36.20.443,vbt_B2_day4,2022.2.4,Win32,59.69792848,,,,,,down,0,0.0658,,0.339814787,0.072222215,1,0,0,0,164,164,39,1,laag,images/br_laag.png,images/cb_laag.png,0,,,,,,,,,,,,,,,,,,,,,,
,,,,,00055,2023-10-14_19h36.20.443,vbt_B2_day4,2022.2.4,Win32,59.69792848,,,,,,down,0,3.5789,,0.207407422,-0.039814808,1,0,0,0,165,165,44,1,flits,images/br_flits.png,images/cb_flits.png,0,,,,,,,,,,,,,,,,,,,,,,
,,,,,00055,2023-10-14_19h36.20.443,vbt_B2_day4,2022.2.4,Win32,59.69792848,,,,,,down,0,0.7994,,0.207407422,-0.041666667,1,0,0,0,166,166,99,1,koffie,images/br_koffie.png,images/cb_koffie.png,0,,,,,,,,,,,,,,,,,,,,,,
,,,,,00055,2023-10-14_19h36.20.443,vbt_B2_day4,2022.2.4,Win32,59.69792848,,,,,,down,0,0.3008,,0.207407422,-0.042592614,1,0,0,0,167,167,9,1,hier,images/br_hier.png,images/cb_hier.png,0,,,,,,,,,,,,,,,,,,,,,,
,,,,,00055,2023-10-14_19h36.20.443,vbt_B2_day4,2022.2.4,Win32,59.69792848,,,,,,down,0,0.0875,,0.207407422,-0.042592614,1,0,0,0,168,168,106,1,zingen,images/br_zingen.png,images/cb_zingen.png,1,zingen,,,,,,,,,,,,,,,,,,,,,
,,,,,00055,2023-10-14_19h36.20.443,vbt_B2_day4,2022.2.4,Win32,59.69792848,,,,,,down,0,0.7075,,0.207407422,-0.042592614,1,0,0,0,169,169,175,1,heengaan,images/br_heengaan.png,images/cb_heengaan.png,0,,,,,,,,,,,,,,,,,,,,,,
,,,,,00055,2023-10-14_19h36.20.443,vbt_B2_day4,2022.2.4,Win32,59.69792848,,,,,,down,0,0.3184,,0.207407422,-0.042592614,1,0,0,0,170,170,157,1,uitlaat,images/br_uitlaat.png,images/cb_uitlaat.png,0,,,,,,,,,,,,,,,,,,,,,,
,,,,,00055,2023-10-14_19h36.20.443,vbt_B2_day4,2022.2.4,Win32,59.69792848,,,,,,down,0,10.514,,0.207407422,-0.042592614,1,0,0,0,171,171,149,1,redding,images/br_redding.png,images/cb_redding.png,0,,,,,,,,,,,,,,,,,,,,,,
,,,,,00055,2023-10-14_19h36.20.443,vbt_B2_day4,2022.2.4,Win32,59.69792848,,,,,,down,0,0.0008,,0.207407422,-0.042592614,1,0,0,0,172,172,61,1,groen,images/br_groen.png,images/cb_groen.png,0,,,,,,,,,,,,,,,,,,,,,,
,,,,,00055,2023-10-14_19h36.20.443,vbt_B2_day4,2022.2.4,Win32,59.69792848,,,,,,down,0,0.395,,0.207407422,-0.042592614,1,0,0,0,173,173,135,1,gedicht,images/br_gedicht.png,images/cb_gedicht.png,0,,,,,,,,,,,,,,,,,,,,,,
,,,,,00055,2023-10-14_19h36.20.443,vbt_B2_day4,2022.2.4,Win32,59.69792848,,,,,,down,0,0.8995,,0.207407422,-0.042592614,1,0,0,0,174,174,47,1,kabel,images/br_kabel.png,images/cb_kabel.png,0,,,,,,,,,,,,,,,,,,,,,,
,,,,,00055,2023-10-14_19h36.20.443,vbt_B2_day4,2022.2.4,Win32,59.69792848,,,,,,down,0,1.1516,,0.207407422,-0.042592614,1,0,0,0,175,175,139,1,stiekem,images/br_stiekem.png,images/cb_stiekem.png,0,,,,,,,,,,,,,,,,,,,,,,
,,,,,00055,2023-10-14_19h36.20.443,vbt_B2_day4,2022.2.4,Win32,59.69792848,,,,,,down,0,0.4368,,0.207407422,-0.042592614,1,0,0,0,176,176,43,1,klauw,images/br_klauw.png,images/cb_klauw.png,0,,,,,,,,,,,,,,,,,,,,,,
,,,,,00055,2023-10-14_19h36.20.443,vbt_B2_day4,2022.2.4,Win32,59.69792848,,,,,,down,0,8.5059,,0.207407422,-0.042592614,1,0,0,0,177,177,41,1,maken,images/br_maken.png,images/cb_maken.png,0,,,,,,,,,,,,,,,,,,,,,,
,,,,,00055,2023-10-14_19h36.20.443,vbt_B2_day4,2022.2.4,Win32,59.69792848,,,,,,down,0,1.718,,0.207407422,-0.042592614,1,0,0,0,178,178,174,1,stemming,images/br_stemming.png,images/cb_stemming.png,0,,,,,,,,,,,,,,,,,,,,,,
,,,,,00055,2023-10-14_19h36.20.443,vbt_B2_day4,2022.2.4,Win32,59.69792848,,,,,,down,0,0.2817,,0.207407422,-0.042592614,1,0,0,0,179,179,40,1,schep,images/br_schep.png,images/cb_schep.png,0,,,,,,,,,,,,,,,,,,,,,,
,,,,,00055,2023-10-14_19h36.20.443,vbt_B2_day4,2022.2.4,Win32,59.69792848,,,,,,down,0,0.6492,,0.207407422,-0.042592614,1,0,0,0,180,180,63,1,flirt,images/br_flirt.png,images/cb_flirt.png,0,,,,,,,,,,,,,,,,,,,,,,
,,,,,00055,2023-10-14_19h36.20.443,vbt_B2_day4,2022.2.4,Win32,59.69792848,,,,,,down,0,0.1521,,0.207407422,-0.042592614,1,0,0,0,181,181,12,1,kust,images/br_kust.png,images/cb_kust.png,0,,,,,,,,,,,,,,,,,,,,,,
,,,,,00055,2023-10-14_19h36.20.443,vbt_B2_day4,2022.2.4,Win32,59.69792848,,,,,,down,0,4.8419,,0.207407422,-0.042592614,1,0,0,0,182,182,60,1,jasje,images/br_jasje.png,images/cb_jasje.png,0,,,,,,,,,,,,,,,,,,,,,,
,,,,,00055,2023-10-14_19h36.20.443,vbt_B2_day4,2022.2.4,Win32,59.69792848,,,,,,down,0,1.0848,,0.207407422,-0.042592614,1,0,0,0,183,183,143,1,hechten,images/br_hechten.png,images/cb_hechten.png,0,,,,,,,,,,,,,,,,,,,,,,
,,,,,00055,2023-10-14_19h36.20.443,vbt_B2_day4,2022.2.4,Win32,59.69792848,,,,,,down,0,3.3223,,0.207407422,-0.042592614,1,0,0,0,184,184,3,1,mand,images/br_mand.png,images/cb_mand.png,0,,,,,,,,,,,,,,,,,,,,,,
,,,,,00055,2023-10-14_19h36.20.443,vbt_B2_day4,2022.2.4,Win32,59.69792848,,,,,,down,0,0.2347,,0.207407422,-0.042592614,1,0,0,0,185,185,115,1,kleren,images/br_kleren.png,images/cb_kleren.png,0,,,,,,,,,,,,,,,,,,,,,,
,,,,,00055,2023-10-14_19h36.20.443,vbt_B2_day4,2022.2.4,Win32,59.69792848,,,,,,down,0,0.1878,,0.207407422,-0.042592614,1,0,0,0,186,186,114,1,vullen,images/br_vullen.png,images/cb_vullen.png,0,,,,,,,,,,,,,,,,,,,,,,
,,,,,00055,2023-10-14_19h36.20.443,vbt_B2_day4,2022.2.4,Win32,59.69792848,,,,,,down,0,0.4699,,0.207407422,-0.042592614,1,0,0,0,187,187,8,1,knie,images/br_knie.png,images/cb_knie.png,0,,,,,,,,,,,,,,,,,,,,,,
,,,,,00055,2023-10-14_19h36.20.443,vbt_B2_day4,2022.2.4,Win32,59.69792848,,,,,,down,0,6.6063,,0.207407422,-0.042592614,1,0,0,0,188,188,146,1,opkomen,images/br_opkomen.png,images/cb_opkomen.png,1,opkomen,,,,,,,,,,,,,,,,,,,,,
,,,,,00055,2023-10-14_19h36.20.443,vbt_B2_day4,2022.2.4,Win32,59.69792848,,,,,,down,0,1.6305,,0.207407422,-0.042592614,1,0,0,0,189,189,158,1,innemen,images/br_innemen.png,images/cb_innemen.png,0,,,,,,,,,,,,,,,,,,,,,,
,,,,,00055,2023-10-14_19h36.20.443,vbt_B2_day4,2022.2.4,Win32,59.69792848,,,,,,down,0,0.3336,,0.207407422,-0.042592614,1,0,0,0,190,190,18,1,blik,images/br_blik.png,images/cb_blik.png,0,,,,,,,,,,,,,,,,,,,,,,
,,,,,00055,2023-10-14_19h36.20.443,vbt_B2_day4,2022.2.4,Win32,59.69792848,,,,,,down,0,5.1523,,0.207407422,-0.042592614,1,0,0,0,191,191,178,1,huisdier,images/br_huisdier.png,images/cb_huisdier.png,0,,,,,,,,,,,,,,,,,,,,,,
,,,,,00055,2023-10-14_19h36.20.443,vbt_B2_day4,2022.2.4,Win32,59.69792848,,,,,,down,0,0.1824,,0.207407422,-0.042592614,1,0,0,0,192,192,49,1,laken,images/br_laken.png,images/cb_laken.png,0,,,,,,,,,,,,,,,,,,,,,,
,,,,,00055,2023-10-14_19h36.20.443,vbt_B2_day4,2022.2.4,Win32,59.69792848,,,,,,down,0,2.2683,,0.207407422,-0.042592614,1,0,0,0,193,193,31,1,poes,images/br_poes.png,images/cb_poes.png,0,,,,,,,,,,,,,,,,,,,,,,
,,,,,00055,2023-10-14_19h36.20.443,vbt_B2_day4,2022.2.4,Win32,59.69792848,,,,,,down,0,5.7119,,0.253703718,-0.027777778,1,0,0,0,194,194,120,1,klimmen,images/br_klimmen.png,images/cb_klimmen.png,0,,,,,,,,,,,,,,,,,,,,,,
,,,,,00055,2023-10-14_19h36.20.443,vbt_B2_day4,2022.2.4,Win32,59.69792848,,,,,,down,0,0.9823,,0.253703718,-0.027777778,1,0,0,0,195,195,101,1,staren,images/br_staren.png,images/cb_staren.png,0,,,,,,,,,,,,,,,,,,,,,,
,,,,,00055,2023-10-14_19h36.20.443,vbt_B2_day4,2022.2.4,Win32,59.69792848,,,,,,down,0,3.14,,0.253703718,-0.027777778,1,0,0,0,196,196,164,1,anarchie,images/br_anarchie.png,images/cb_anarchie.png,0,,,,,,,,,,,,,,,,,,,,,,
,,,,,00055,2023-10-14_19h36.20.443,vbt_B2_day4,2022.2.4,Win32,59.69792848,,,,,,down,0,0.3963,,0.251851894,-0.028703725,1,0,0,0,197,197,94,1,oceaan,images/br_oceaan.png,images/cb_oceaan.png,0,,,,,,,,,,,,,,,,,,,,,,
,,,,,00055,2023-10-14_19h36.20.443,vbt_B2_day4,2022.2.4,Win32,59.69792848,,,,,,down,0,0.7571,,0.251851894,-0.028703725,1,0,0,0,198,198,15,1,soda,images/br_soda.png,images/cb_soda.png,0,,,,,,,,,,,,,,,,,,,,,,
,,,,,00055,2023-10-14_19h36.20.443,vbt_B2_day4,2022.2.4,Win32,59.69792848,,,,,,down,0,3.5982,,0.251851894,-0.028703725,1,0,0,0,199,199,172,1,weigeren,images/br_weigeren.png,images/cb_weigeren.png,0,,,,,,,,,,,,,,,,,,,,,,
,,,,,00055,2023-10-14_19h36.20.443,vbt_B2_day4,2022.2.4,Win32,59.69792848,,,,,,,,,,,,,,,,,,,,,,,,,0.251851894,-0.028703725,1,0,0,,,,,,,,,,,,,,,,
,,,,,00055,2023-10-14_19h36.20.443,vbt_B2_day4,2022.2.4,Win32,59.69792848,,,,,,,,,,,,,,,,,,,,,,,,,,,,,,0.388888889,-0.142592607,1,0,0,,,,,,,,,,,
,,,,,00055,2023-10-14_19h36.20.443,vbt_B2_day4,2022.2.4,Win32,59.69792848,,,,,,,,,,,,,,,,,,,,dalen,images/br_dalen.png,images/cb_dalen.png,,dalen,,,,,,,,,,,0.388888889,-0.142592607,1,0,0,dalen,0,0,0,46,1
,,,,,00055,2023-10-14_19h36.20.443,vbt_B2_day4,2022.2.4,Win32,59.69792848,,,,,,,,,,,,,,,,,,,,zaalrijk,images/br_zaalrijk.png,images/cb_zaalrijk.png,,zaalrijk,,,,,,,,,,,0.388888889,-0.142592607,1,0,0,zaalrijk,0,1,1,37,1
,,,,,00055,2023-10-14_19h36.20.443,vbt_B2_day4,2022.2.4,Win32,59.69792848,,,,,,,,,,,,,,,,,,,,paalbaak,images/br_paalbaak.png,images/cb_paalbaak.png,,paalbaak,,,,,,,,,,,0.388888889,-0.142592607,1,0,0,paalbaak,0,2,2,39,1
,,,,,00055,2023-10-14_19h36.20.443,vbt_B2_day4,2022.2.4,Win32,59.69792848,,,,,,,,,,,,,,,,,,,,bisschap,images/br_bisschap.png,images/cb_bisschap.png,,bisschrp,,,,,,,,,,,0.388888889,-0.142592607,1,0,0,bisschrp,0,3,3,36,1
,,,,,00055,2023-10-14_19h36.20.443,vbt_B2_day4,2022.2.4,Win32,59.69792848,,,,,,,,,,,,,,,,,,,,mekst,images/br_mekst.png,images/cb_mekst.png,,mekst,,,,,,,,,,,0.388888889,-0.142592607,1,0,0,mekst,0,4,4,27,1
,,,,,00055,2023-10-14_19h36.20.443,vbt_B2_day4,2022.2.4,Win32,59.69792848,,,,,,,,,,,,,,,,,,,,aanzwaag,images/br_aanzwaag.png,images/cb_aanzwaag.png,,aanzwaag,,,,,,,,,,,0.388888889,-0.142592607,1,0,0,aanzwaag,0,5,5,38,1
,,,,,00055,2023-10-14_19h36.20.443,vbt_B2_day4,2022.2.4,Win32,59.69792848,,,,,,,,,,,,,,,,,,,,schenden,images/br_schenden.png,images/cb_schenden.png,,schenden,,,,,,,,,,,0.388888889,-0.142592607,1,0,0,schenden,0,6,6,57,1
,,,,,00055,2023-10-14_19h36.20.443,vbt_B2_day4,2022.2.4,Win32,59.69792848,,,,,,,,,,,,,,,,,,,,gebit,images/br_gebit.png,images/cb_gebit.png,,gebit,,,,,,,,,,,0.388888889,-0.150925954,1,0,0,gebit,0,7,7,6,1
,,,,,00055,2023-10-14_19h36.20.443,vbt_B2_day4,2022.2.4,Win32,59.69792848,,,,,,,,,,,,,,,,,,,,weigeren,images/br_weigeren.png,images/cb_weigeren.png,,weigeren,,,,,,,,,,,0.388888889,-0.150925954,1,0,0,weigeren,0,8,8,16,1
,,,,,00055,2023-10-14_19h36.20.443,vbt_B2_day4,2022.2.4,Win32,59.69792848,,,,,,,,,,,,,,,,,,,,geheim,images/br_geheim.png,images/cb_geheim.png,,geheim,,,,,,,,,,,0.388888889,-0.150925954,1,0,0,geheim,0,9,9,8,1
,,,,,00055,2023-10-14_19h36.20.443,vbt_B2_day4,2022.2.4,Win32,59.69792848,,,,,,,,,,,,,,,,,,,,noodzaak,images/br_noodzaak.png,images/cb_noodzaak.png,,noodzaak,,,,,,,,,,,0.388888889,-0.150925954,1,0,0,noodzaak,0,10,10,56,1
,,,,,00055,2023-10-14_19h36.20.443,vbt_B2_day4,2022.2.4,Win32,59.69792848,,,,,,,,,,,,,,,,,,,,flippen,images/br_flippen.png,images/cb_flippen.png,,flippen,,,,,,,,,,,0.390740712,-0.151851866,1,0,0,flippen,0,11,11,54,1
,,,,,00055,2023-10-14_19h36.20.443,vbt_B2_day4,2022.2.4,Win32,59.69792848,,,,,,,,,,,,,,,,,,,,opkicht,images/br_opkicht.png,images/cb_opkicht.png,,opkicht,,,,,,,,,,,0.390740712,-0.151851866,1,0,0,opkicht,0,12,12,34,1
,,,,,00055,2023-10-14_19h36.20.443,vbt_B2_day4,2022.2.4,Win32,59.69792848,,,,,,,,,,,,,,,,,,,,getucht,images/br_getucht.png,images/cb_getucht.png,,getucht,,,,,,,,,,,0.390740712,-0.151851866,1,0,0,getucht,0,13,13,35,1
,,,,,00055,2023-10-14_19h36.20.443,vbt_B2_day4,2022.2.4,Win32,59.69792848,,,,,,,,,,,,,,,,,,,,apparaat,images/br_apparaat.png,images/cb_apparaat.png,,apparaat,,,,,,,,,,,0.390740712,-0.151851866,1,0,0,apparaat,0,14,14,17,1
,,,,,00055,2023-10-14_19h36.20.443,vbt_B2_day4,2022.2.4,Win32,59.69792848,,,,,,,,,,,,,,,,,,,,gaan,images/br_gaan.png,images/cb_gaan.png,,gaan,,,,,,,,,,,0.390740712,-0.151851866,1,0,0,gaan,0,15,15,41,1
,,,,,00055,2023-10-14_19h36.20.443,vbt_B2_day4,2022.2.4,Win32,59.69792848,,,,,,,,,,,,,,,,,,,,bruin,images/br_bruin.png,images/cb_bruin.png,,boeien,,,,,,,,,,,0.390740712,-0.151851866,1,0,0,boeien,0,16,16,45,1
,,,,,00055,2023-10-14_19h36.20.443,vbt_B2_day4,2022.2.4,Win32,59.69792848,,,,,,,,,,,,,,,,,,,,soda,images/br_soda.png,images/cb_soda.png,,soda,,,,,,,,,,,0.390740712,-0.151851866,1,0,0,soda,0,17,17,3,1
,,,,,00055,2023-10-14_19h36.20.443,vbt_B2_day4,2022.2.4,Win32,59.69792848,,,,,,,,,,,,,,,,,,,,schotel,images/br_schotel.png,images/cb_schotel.png,,schotel,,,,,,,,,,,0.390740712,-0.151851866,1,0,0,schotel,0,18,18,52,1
,,,,,00055,2023-10-14_19h36.20.443,vbt_B2_day4,2022.2.4,Win32,59.69792848,,,,,,,,,,,,,,,,,,,,waarop,images/br_waarop.png,images/cb_waarop.png,,waarop,,,,,,,,,,,0.390740712,-0.151851866,1,0,0,waarop,0,19,19,9,1
,,,,,00055,2023-10-14_19h36.20.443,vbt_B2_day4,2022.2.4,Win32,59.69792848,,,,,,,,,,,,,,,,,,,,fran,images/br_fran.png,images/cb_fran.png,,farm,,,,,,,,,,,0.390740712,-0.151851866,1,0,0,farm,0,20,20,22,1
,,,,,00055,2023-10-14_19h36.20.443,vbt_B2_day4,2022.2.4,Win32,59.69792848,,,,,,,,,,,,,,,,,,,,rijp,images/br_rijp.png,images/cb_rijp.png,,rijp,,,,,,,,,,,0.390740712,-0.15370369,1,0,0,rijp,0,21,21,2,1
,,,,,00055,2023-10-14_19h36.20.443,vbt_B2_day4,2022.2.4,Win32,59.69792848,,,,,,,,,,,,,,,,,,,,grappen,images/br_grappen.png,images/cb_grappen.png,,grappen,,,,,,,,,,,0.390740712,-0.15370369,1,0,0,grappen,0,22,22,12,1
,,,,,00055,2023-10-14_19h36.20.443,vbt_B2_day4,2022.2.4,Win32,59.69792848,,,,,,,,,,,,,,,,,,,,opruimen,images/br_opruimen.png,images/cb_opruimen.png,,opruimen,,,,,,,,,,,0.390740712,-0.15370369,1,0,0,opruimen,0,23,23,59,1
,,,,,00055,2023-10-14_19h36.20.443,vbt_B2_day4,2022.2.4,Win32,59.69792848,,,,,,,,,,,,,,,,,,,,pittig,images/br_pittig.png,images/cb_pittig.png,,pittig,,,,,,,,,,,0.387037065,-0.152777778,1,0,0,pittig,0,24,24,51,1
,,,,,00055,2023-10-14_19h36.20.443,vbt_B2_day4,2022.2.4,Win32,59.69792848,,,,,,,,,,,,,,,,,,,,stemming,images/br_stemming.png,images/cb_stemming.png,,stemming,,,,,,,,,,,0.387037065,-0.152777778,1,0,0,stemming,0,25,25,18,1
,,,,,00055,2023-10-14_19h36.20.443,vbt_B2_day4,2022.2.4,Win32,59.69792848,,,,,,,,,,,,,,,,,,,,wagon,images/br_wagon.png,images/cb_wagon.png,,wa...,,,,,,,,,,,0.387037065,-0.152777778,1,0,0,wa...,0,26,26,4,1
,,,,,00055,2023-10-14_19h36.20.443,vbt_B2_day4,2022.2.4,Win32,59.69792848,,,,,,,,,,,,,,,,,,,,eerst,images/br_eerst.png,images/cb_eerst.png,,eerst,,,,,,,,,,,0.387037065,-0.152777778,1,0,0,eerst,0,27,27,47,1
,,,,,00055,2023-10-14_19h36.20.443,vbt_B2_day4,2022.2.4,Win32,59.69792848,,,,,,,,,,,,,,,,,,,,wozing,images/br_wozing.png,images/cb_wozing.png,,wozing,,,,,,,,,,,0.387037065,-0.152777778,1,0,0,wozing,0,28,28,28,1
,,,,,00055,2023-10-14_19h36.20.443,vbt_B2_day4,2022.2.4,Win32,59.69792848,,,,,,,,,,,,,,,,,,,,dozijn,images/br_dozijn.png,images/cb_dozijn.png,,dozijn,,,,,,,,,,,0.387037065,-0.152777778,1,0,0,dozijn,0,29,29,48,1
,,,,,00055,2023-10-14_19h36.20.443,vbt_B2_day4,2022.2.4,Win32,59.69792848,,,,,,,,,,,,,,,,,,,,kaal,images/br_kaal.png,images/cb_kaal.png,,kaal,,,,,,,,,,,0.385185242,-0.150925954,1,0,0,kaal,0,30,30,1,1
,,,,,00055,2023-10-14_19h36.20.443,vbt_B2_day4,2022.2.4,Win32,59.69792848,,,,,,,,,,,,,,,,,,,,sulbon,images/br_sulbon.png,images/cb_sulbon.png,,sulbon,,,,,,,,,,,0.385185242,-0.150925954,1,0,0,sulbon,0,31,31,31,1
,,,,,00055,2023-10-14_19h36.20.443,vbt_B2_day4,2022.2.4,Win32,59.69792848,,,,,,,,,,,,,,,,,,,,steen,images/br_steen.png,images/cb_steen.png,,steen,,,,,,,,,,,0.385185242,-0.150925954,1,0,0,steen,0,32,32,44,1
,,,,,00055,2023-10-14_19h36.20.443,vbt_B2_day4,2022.2.4,Win32,59.69792848,,,,,,,,,,,,,,,,,,,,heengaan,images/br_heengaan.png,images/cb_heengaan.png,,heengaan,,,,,,,,,,,0.385185242,-0.150925954,1,0,0,heengaan,0,33,33,19,1
,,,,,00055,2023-10-14_19h36.20.443,vbt_B2_day4,2022.2.4,Win32,59.69792848,,,,,,,,,,,,,,,,,,,,drooien,images/br_drooien.png,images/cb_drooien.png,,drooien,,,,,,,,,,,0.385185242,-0.150925954,1,0,0,drooien,0,34,34,32,1
,,,,,00055,2023-10-14_19h36.20.443,vbt_B2_day4,2022.2.4,Win32,59.69792848,,,,,,,,,,,,,,,,,,,,haza,images/br_haza.png,images/cb_haza.png,,haza,,,,,,,,,,,0.385185242,-0.150925954,1,0,0,haza,0,35,35,21,1
,,,,,00055,2023-10-14_19h36.20.443,vbt_B2_day4,2022.2.4,Win32,59.69792848,,,,,,,,,,,,,,,,,,,,kust,images/br_kust.png,images/cb_kust.png,,kust,,,,,,,,,,,0.385185242,-0.150925954,1,0,0,kust,0,36,36,0,1
,,,,,00055,2023-10-14_19h36.20.443,vbt_B2_day4,2022.2.4,Win32,59.69792848,,,,,,,,,,,,,,,,,,,,toevol,images/br_toevol.png,images/cb_toevol.png,,toevol,,,,,,,,,,,0.385185242,-0.150925954,1,0,0,toevol,0,37,37,29,1
,,,,,00055,2023-10-14_19h36.20.443,vbt_B2_day4,2022.2.4,Win32,59.69792848,,,,,,,,,,,,,,,,,,,,baron,images/br_baron.png,images/cb_baron.png,,baron,,,,,,,,,,,0.385185242,-0.150925954,1,0,0,baron,0,38,38,5,1
,,,,,00055,2023-10-14_19h36.20.443,vbt_B2_day4,2022.2.4,Win32,59.69792848,,,,,,,,,,,,,,,,,,,,midden,images/br_midden.png,images/cb_midden.png,,midden,,,,,,,,,,,0.385185242,-0.150925954,1,0,0,midden,0,39,39,50,1
,,,,,00055,2023-10-14_19h36.20.443,vbt_B2_day4,2022.2.4,Win32,59.69792848,,,,,,,,,,,,,,,,,,,,vreten,images/br_vreten.png,images/cb_vreten.png,,vreten,,,,,,,,,,,0.384259259,-0.155555584,1,0,0,vreten,0,40,40,11,1
,,,,,00055,2023-10-14_19h36.20.443,vbt_B2_day4,2022.2.4,Win32,59.69792848,,,,,,,,,,,,,,,,,,,,drummer,images/br_drummer.png,images/cb_drummer.png,,drummen,,,,,,,,,,,0.384259259,-0.155555584,1,0,0,drummen,0,41,41,53,1
,,,,,00055,2023-10-14_19h36.20.443,vbt_B2_day4,2022.2.4,Win32,59.69792848,,,,,,,,,,,,,,,,,,,,praat,images/br_praat.png,images/cb_praat.png,,vraat,,,,,,,,,,,0.384259259,-0.155555584,1,0,0,vraat,0,42,42,7,1
,,,,,00055,2023-10-14_19h36.20.443,vbt_B2_day4,2022.2.4,Win32,59.69792848,,,,,,,,,,,,,,,,,,,,warel,images/br_warel.png,images/cb_warel.png,,warel,,,,,,,,,,,0.384259259,-0.155555584,1,0,0,warel,0,43,43,26,1
,,,,,00055,2023-10-14_19h36.20.443,vbt_B2_day4,2022.2.4,Win32,59.69792848,,,,,,,,,,,,,,,,,,,,broodje,images/br_broodje.png,images/cb_broodje.png,,broodje,,,,,,,,,,,0.384259259,-0.155555584,1,0,0,broodje,0,44,44,55,1
,,,,,00055,2023-10-14_19h36.20.443,vbt_B2_day4,2022.2.4,Win32,59.69792848,,,,,,,,,,,,,,,,,,,,zwek,images/br_zwek.png,images/cb_zwek.png,,zwek,,,,,,,,,,,0.384259259,-0.155555584,1,0,0,zwek,0,45,45,20,1
,,,,,00055,2023-10-14_19h36.20.443,vbt_B2_day4,2022.2.4,Win32,59.69792848,,,,,,,,,,,,,,,,,,,,oceaan,images/br_oceaan.png,images/cb_oceaan.png,,oceaan,,,,,,,,,,,0.37962963,-0.156481496,1,0,0,oceaan,0,46,46,10,1
,,,,,00055,2023-10-14_19h36.20.443,vbt_B2_day4,2022.2.4,Win32,59.69792848,,,,,,,,,,,,,,,,,,,,gebog,images/br_gebog.png,images/cb_gebog.png,,gebog,,,,,,,,,,,0.37962963,-0.156481496,1,0,0,gebog,0,47,47,24,1
,,,,,00055,2023-10-14_19h36.20.443,vbt_B2_day4,2022.2.4,Win32,59.69792848,,,,,,,,,,,,,,,,,,,,tucket,images/br_tucket.png,images/cb_tucket.png,,tucket,,,,,,,,,,,0.374074159,-0.152777778,1,0,0,tucket,0,48,48,30,1
,,,,,00055,2023-10-14_19h36.20.443,vbt_B2_day4,2022.2.4,Win32,59.69792848,,,,,,,,,,,,,,,,,,,,pijnlijk,images/br_pijnlijk.png,images/cb_pijnlijk.png,,penlijk,,,,,,,,,,,0.390740712,-0.145370413,1,0,0,penlijk,0,49,49,58,1
,,,,,00055,2023-10-14_19h36.20.443,vbt_B2_day4,2022.2.4,Win32,59.69792848,,,,,,,,,,,,,,,,,,,,seizoon,images/br_seizoon.png,images/cb_seizoon.png,,seizoon,,,,,,,,,,,0.391666695,-0.142592607,1,0,0,seizoon,0,50,50,33,1
,,,,,00055,2023-10-14_19h36.20.443,vbt_B2_day4,2022.2.4,Win32,59.69792848,,,,,,,,,,,,,,,,,,,,gaaf,images/br_gaaf.png,images/cb_gaaf.png,,gaaf,,,,,,,,,,,0.391666695,-0.142592607,1,0,0,gaaf,0,51,51,43,1
,,,,,00055,2023-10-14_19h36.20.443,vbt_B2_day4,2022.2.4,Win32,59.69792848,,,,,,,,,,,,,,,,,,,,gijf,images/br_gijf.png,images/cb_gijf.png,,gijf,,,,,,,,,,,0.395370342,-0.14444443,1,0,0,gijf,0,52,52,23,1
,,,,,00055,2023-10-14_19h36.20.443,vbt_B2_day4,2022.2.4,Win32,59.69792848,,,,,,,,,,,,,,,,,,,,seizoen,images/br_seizoen.png,images/cb_seizoen.png,,seizoen,,,,,,,,,,,0.395370342,-0.14444443,1,0,0,seizoen,0,53,53,13,1
,,,,,00055,2023-10-14_19h36.20.443,vbt_B2_day4,2022.2.4,Win32,59.69792848,,,,,,,,,,,,,,,,,,,,ezel,images/br_ezel.png,images/cb_ezel.png,,ezel,,,,,,,,,,,0.395370342,-0.14444443,1,0,0,ezel,0,54,54,42,1
,,,,,00055,2023-10-14_19h36.20.443,vbt_B2_day4,2022.2.4,Win32,59.69792848,,,,,,,,,,,,,,,,,,,,strok,images/br_strok.png,images/cb_strok.png,,strok,,,,,,,,,,,0.395370342,-0.14444443,1,0,0,strok,0,55,55,25,1
,,,,,00055,2023-10-14_19h36.20.443,vbt_B2_day4,2022.2.4,Win32,59.69792848,,,,,,,,,,,,,,,,,,,,geliefd,images/br_geliefd.png,images/cb_geliefd.png,,geliefd,,,,,,,,,,,0.395370342,-0.14444443,1,0,0,geliefd,0,56,56,14,1
,,,,,00055,2023-10-14_19h36.20.443,vbt_B2_day4,2022.2.4,Win32,59.69792848,,,,,,,,,,,,,,,,,,,,lappen,images/br_lappen.png,images/cb_lappen.png,,lappen,,,,,,,,,,,0.29814812,-0.085185192,1,0,0,lappen,0,57,57,49,1
,,,,,00055,2023-10-14_19h36.20.443,vbt_B2_day4,2022.2.4,Win32,59.69792848,,,,,,,,,,,,,,,,,,,,snee,images/br_snee.png,images/cb_snee.png,,snee,,,,,,,,,,,0.295370384,-0.085185192,1,0,0,snee,0,58,58,40,1
,,,,,00055,2023-10-14_19h36.20.443,vbt_B2_day4,2022.2.4,Win32,59.69792848,,,,,,,,,,,,,,,,,,,,gedicht,images/br_gedicht.png,images/cb_gedicht.png,,gedicht,,,,,,,,,,,0.295370384,-0.085185192,1,0,0,gedicht,0,59,59,15,1
,,,,,00055,2023-10-14_19h36.20.443,vbt_B2_day4,2022.2.4,Win32,59.69792848,,,,,,,,,,,,,,,,,,,,,,,,,,,,,,,,,,,,,,,,,,,,,
