welcome_mouse.x,welcome_mouse.y,welcome_mouse.leftButton,welcome_mouse.midButton,welcome_mouse.rightButton,"ID",date,expName,psychopyVersion,OS,frameRate,trainInstr_mouse.x,trainInstr_mouse.y,trainInstr_mouse.leftButton,trainInstr_mouse.midButton,trainInstr_mouse.rightButton,translation_key.keys,translation_key.corr,translation_key.rt,word_rsp.text,trWrd_mouse.x,trWrd_mouse.y,trWrd_mouse.leftButton,trWrd_mouse.midButton,trWrd_mouse.rightButton,train_loop.thisRepN,train_loop.thisTrialN,train_loop.thisN,train_loop.thisIndex,train_loop.ran,nlWrd,brWrd,cbWrd,test,testResp,mouse.x,mouse.y,mouse.leftButton,mouse.midButton,mouse.rightButton,testInstr_mouse.x,testInstr_mouse.y,testInstr_mouse.leftButton,testInstr_mouse.midButton,testInstr_mouse.rightButton,test_mouse.x,test_mouse.y,test_mouse.leftButton,test_mouse.midButton,test_mouse.rightButton,test_response.text,test_loop.thisRepN,test_loop.thisTrialN,test_loop.thisN,test_loop.thisIndex,test_loop.ran
-0.144388021,-0.231992188,1,0,0,00101,2023-11-30_08h11.57.486,vbt_B2_day4,2022.2.4,MacIntel,60.0024001,,,,,,,,,,,,,,,,,,,,,,,,,,,,,,,,,,,,,,,,,,,,,
,,,,,00101,2023-11-30_08h11.57.486,vbt_B2_day4,2022.2.4,MacIntel,60.0024001,-0.144388021,-0.231992188,1,0,0,,,,,,,,,,,,,,,,,,,,,,,,,,,,,,,,,,,,,,,,
,,,,,00101,2023-11-30_08h11.57.486,vbt_B2_day4,2022.2.4,MacIntel,60.0024001,,,,,,down,0,5.4878,,-0.144388021,-0.231992188,1,0,0,0,0,0,111,1,ticket,images/br_ticket.png,images/cb_ticket.png,0,,,,,,,,,,,,,,,,,,,,,,
,,,,,00101,2023-11-30_08h11.57.486,vbt_B2_day4,2022.2.4,MacIntel,60.0024001,,,,,,down,0,0.6901,,-0.144388021,-0.231992188,1,0,0,0,1,1,180,1,openbaar,images/br_openbaar.png,images/cb_openbaar.png,0,,,,,,,,,,,,,,,,,,,,,,
,,,,,00101,2023-11-30_08h11.57.486,vbt_B2_day4,2022.2.4,MacIntel,60.0024001,,,,,,down,0,0.4031,,-0.144388021,-0.231992188,1,0,0,0,2,2,169,1,oprotten,images/br_oprotten.png,images/cb_oprotten.png,0,,,,,,,,,,,,,,,,,,,,,,
,,,,,00101,2023-11-30_08h11.57.486,vbt_B2_day4,2022.2.4,MacIntel,60.0024001,,,,,,down,0,1.0576,,-0.144388021,-0.231992188,1,0,0,0,3,3,13,1,kaal,images/br_kaal.png,images/cb_kaal.png,0,,,,,,,,,,,,,,,,,,,,,,
,,,,,00101,2023-11-30_08h11.57.486,vbt_B2_day4,2022.2.4,MacIntel,60.0024001,,,,,,down,0,0.1236,,0.799978299,-0.20594184,1,0,0,0,4,4,163,1,schuilen,images/br_schuilen.png,images/cb_schuilen.png,0,,,,,,,,,,,,,,,,,,,,,,
,,,,,00101,2023-11-30_08h11.57.486,vbt_B2_day4,2022.2.4,MacIntel,60.0024001,,,,,,down,0,0.1686,,0.799978299,-0.20594184,1,0,0,0,5,5,194,1,driemaal,images/br_driemaal.png,images/cb_driemaal.png,0,,,,,,,,,,,,,,,,,,,,,,
,,,,,00101,2023-11-30_08h11.57.486,vbt_B2_day4,2022.2.4,MacIntel,60.0024001,,,,,,down,0,0.0052,,0.799978299,-0.20594184,1,0,0,0,6,6,99,1,koffie,images/br_koffie.png,images/cb_koffie.png,0,,,,,,,,,,,,,,,,,,,,,,
,,,,,00101,2023-11-30_08h11.57.486,vbt_B2_day4,2022.2.4,MacIntel,60.0024001,,,,,,down,0,1.4352,,-0.010347222,-0.372851563,1,0,0,0,7,7,100,1,geduld,images/br_geduld.png,images/cb_geduld.png,0,,,,,,,,,,,,,,,,,,,,,,
,,,,,00101,2023-11-30_08h11.57.486,vbt_B2_day4,2022.2.4,MacIntel,60.0024001,,,,,,down,0,1.6989,,0.21453559,-0.361341146,1,0,0,0,8,8,146,1,opkomen,images/br_opkomen.png,images/cb_opkomen.png,1,opkomen,,,,,,,,,,,,,,,,,,,,,
,,,,,00101,2023-11-30_08h11.57.486,vbt_B2_day4,2022.2.4,MacIntel,60.0024001,,,,,,down,0,2.8932,,0.21453559,-0.361341146,1,0,0,0,9,9,153,1,vervoer,images/br_vervoer.png,images/cb_vervoer.png,0,,,,,,,,,,,,,,,,,,,,,,
,,,,,00101,2023-11-30_08h11.57.486,vbt_B2_day4,2022.2.4,MacIntel,60.0024001,,,,,,down,0,0.1164,,0.21453559,-0.361341146,1,0,0,0,10,10,50,1,stoom,images/br_stoom.png,images/cb_stoom.png,0,,,,,,,,,,,,,,,,,,,,,,
,,,,,00101,2023-11-30_08h11.57.486,vbt_B2_day4,2022.2.4,MacIntel,60.0024001,,,,,,down,0,0.0734,,0.21453559,-0.361341146,1,0,0,0,11,11,4,1,moes,images/br_moes.png,images/cb_moes.png,0,,,,,,,,,,,,,,,,,,,,,,
,,,,,00101,2023-11-30_08h11.57.486,vbt_B2_day4,2022.2.4,MacIntel,60.0024001,,,,,,down,0,1.3218,,0.21453559,-0.361341146,1,0,0,0,12,12,27,1,dans,images/br_dans.png,images/cb_dans.png,1,dans,,,,,,,,,,,,,,,,,,,,,
,,,,,00101,2023-11-30_08h11.57.486,vbt_B2_day4,2022.2.4,MacIntel,60.0024001,,,,,,down,0,0.2568,,0.21453559,-0.361341146,1,0,0,0,13,13,21,1,mist,images/br_mist.png,images/cb_mist.png,0,,,,,,,,,,,,,,,,,,,,,,
,,,,,00101,2023-11-30_08h11.57.486,vbt_B2_day4,2022.2.4,MacIntel,60.0024001,,,,,,down,0,0.6522,,0.21453559,-0.361341146,1,0,0,0,14,14,122,1,waarvan,images/br_waarvan.png,images/cb_waarvan.png,0,,,,,,,,,,,,,,,,,,,,,,
,,,,,00101,2023-11-30_08h11.57.486,vbt_B2_day4,2022.2.4,MacIntel,60.0024001,,,,,,down,0,2.3524,,0.21453559,-0.361341146,1,0,0,0,15,15,184,1,aandelen,images/br_aandelen.png,images/cb_aandelen.png,1,aandelen,,,,,,,,,,,,,,,,,,,,,
,,,,,00101,2023-11-30_08h11.57.486,vbt_B2_day4,2022.2.4,MacIntel,60.0024001,,,,,,down,0,2.4995,,0.21453559,-0.361341146,1,0,0,0,16,16,135,1,gedicht,images/br_gedicht.png,images/cb_gedicht.png,0,,,,,,,,,,,,,,,,,,,,,,
,,,,,00101,2023-11-30_08h11.57.486,vbt_B2_day4,2022.2.4,MacIntel,60.0024001,,,,,,down,0,0.1324,,0.21453559,-0.361341146,1,0,0,0,17,17,132,1,grappen,images/br_grappen.png,images/cb_grappen.png,0,,,,,,,,,,,,,,,,,,,,,,
,,,,,00101,2023-11-30_08h11.57.486,vbt_B2_day4,2022.2.4,MacIntel,60.0024001,,,,,,down,0,0.4685,,0.21453559,-0.361341146,1,0,0,0,18,18,84,1,lokken,images/br_lokken.png,images/cb_lokken.png,0,,,,,,,,,,,,,,,,,,,,,,
,,,,,00101,2023-11-30_08h11.57.486,vbt_B2_day4,2022.2.4,MacIntel,60.0024001,,,,,,down,0,1.1002,,0.21453559,-0.361341146,1,0,0,0,19,19,170,1,schatten,images/br_schatten.png,images/cb_schatten.png,0,,,,,,,,,,,,,,,,,,,,,,
,,,,,00101,2023-11-30_08h11.57.486,vbt_B2_day4,2022.2.4,MacIntel,60.0024001,,,,,,down,0,0.0981,,0.21453559,-0.361341146,1,0,0,0,20,20,56,1,traag,images/br_traag.png,images/cb_traag.png,0,,,,,,,,,,,,,,,,,,,,,,
,,,,,00101,2023-11-30_08h11.57.486,vbt_B2_day4,2022.2.4,MacIntel,60.0024001,,,,,,down,0,1.5681,,0.21453559,-0.361341146,1,0,0,0,21,21,70,1,ijdel,images/br_ijdel.png,images/cb_ijdel.png,0,,,,,,,,,,,,,,,,,,,,,,
,,,,,00101,2023-11-30_08h11.57.486,vbt_B2_day4,2022.2.4,MacIntel,60.0024001,,,,,,down,0,0.0263,,0.21453559,-0.361341146,1,0,0,0,22,22,73,1,volop,images/br_volop.png,images/cb_volop.png,0,,,,,,,,,,,,,,,,,,,,,,
,,,,,00101,2023-11-30_08h11.57.486,vbt_B2_day4,2022.2.4,MacIntel,60.0024001,,,,,,down,0,0.0682,,0.21453559,-0.361341146,1,0,0,0,23,23,30,1,uien,images/br_uien.png,images/cb_uien.png,0,,,,,,,,,,,,,,,,,,,,,,
,,,,,00101,2023-11-30_08h11.57.486,vbt_B2_day4,2022.2.4,MacIntel,60.0024001,,,,,,down,0,34.4173,,0.21453559,-0.361341146,1,0,0,0,24,24,127,1,doodmoe,images/br_doodmoe.png,images/cb_doodmoe.png,0,,,,,,,,,,,,,,,,,,,,,,
,,,,,00101,2023-11-30_08h11.57.486,vbt_B2_day4,2022.2.4,MacIntel,60.0024001,,,,,,down,0,0.6351,,0.214913194,-0.358671875,1,0,0,0,25,25,40,1,schep,images/br_schep.png,images/cb_schep.png,0,,,,,,,,,,,,,,,,,,,,,,
,,,,,00101,2023-11-30_08h11.57.486,vbt_B2_day4,2022.2.4,MacIntel,60.0024001,,,,,,down,0,0.4876,,0.214913194,-0.357256944,1,0,0,0,26,26,112,1,lukken,images/br_lukken.png,images/cb_lukken.png,0,,,,,,,,,,,,,,,,,,,,,,
,,,,,00101,2023-11-30_08h11.57.486,vbt_B2_day4,2022.2.4,MacIntel,60.0024001,,,,,,down,0,0.2327,,0.214913194,-0.357256944,1,0,0,0,27,27,26,1,leuk,images/br_leuk.png,images/cb_leuk.png,1,leuk,,,,,,,,,,,,,,,,,,,,,
,,,,,00101,2023-11-30_08h11.57.486,vbt_B2_day4,2022.2.4,MacIntel,60.0024001,,,,,,down,0,0.2571,,0.214913194,-0.357256944,1,0,0,0,28,28,32,1,palm,images/br_palm.png,images/cb_palm.png,0,,,,,,,,,,,,,,,,,,,,,,
,,,,,00101,2023-11-30_08h11.57.486,vbt_B2_day4,2022.2.4,MacIntel,60.0024001,,,,,,down,0,2.1932,,0.214913194,-0.357256944,1,0,0,0,29,29,173,1,apparaat,images/br_apparaat.png,images/cb_apparaat.png,0,,,,,,,,,,,,,,,,,,,,,,
,,,,,00101,2023-11-30_08h11.57.486,vbt_B2_day4,2022.2.4,MacIntel,60.0024001,,,,,,down,0,1.8838,,0.214913194,-0.357256944,1,0,0,0,30,30,172,1,weigeren,images/br_weigeren.png,images/cb_weigeren.png,0,,,,,,,,,,,,,,,,,,,,,,
,,,,,00101,2023-11-30_08h11.57.486,vbt_B2_day4,2022.2.4,MacIntel,60.0024001,,,,,,down,0,0.3647,,0.214913194,-0.357256944,1,0,0,0,31,31,154,1,aflopen,images/br_aflopen.png,images/cb_aflopen.png,0,,,,,,,,,,,,,,,,,,,,,,
,,,,,00101,2023-11-30_08h11.57.486,vbt_B2_day4,2022.2.4,MacIntel,60.0024001,,,,,,down,0,2.1007,,0.214913194,-0.357256944,1,0,0,0,32,32,11,1,mode,images/br_mode.png,images/cb_mode.png,0,,,,,,,,,,,,,,,,,,,,,,
,,,,,00101,2023-11-30_08h11.57.486,vbt_B2_day4,2022.2.4,MacIntel,60.0024001,,,,,,down,0,0.3805,,0.214913194,-0.357256944,1,0,0,0,33,33,12,1,kust,images/br_kust.png,images/cb_kust.png,0,,,,,,,,,,,,,,,,,,,,,,
,,,,,00101,2023-11-30_08h11.57.486,vbt_B2_day4,2022.2.4,MacIntel,60.0024001,,,,,,down,0,0.8917,,0.214913194,-0.357256944,1,0,0,0,34,34,82,1,muziek,images/br_muziek.png,images/cb_muziek.png,0,,,,,,,,,,,,,,,,,,,,,,
,,,,,00101,2023-11-30_08h11.57.486,vbt_B2_day4,2022.2.4,MacIntel,60.0024001,,,,,,down,0,0.3228,,0.214913194,-0.357256944,1,0,0,0,35,35,90,1,geluid,images/br_geluid.png,images/cb_geluid.png,0,,,,,,,,,,,,,,,,,,,,,,
,,,,,00101,2023-11-30_08h11.57.486,vbt_B2_day4,2022.2.4,MacIntel,60.0024001,,,,,,down,0,1.1724,,0.214913194,-0.357256944,1,0,0,0,36,36,62,1,knaap,images/br_knaap.png,images/cb_knaap.png,0,,,,,,,,,,,,,,,,,,,,,,
,,,,,00101,2023-11-30_08h11.57.486,vbt_B2_day4,2022.2.4,MacIntel,60.0024001,,,,,,down,0,4.0862,,0.214913194,-0.357256944,1,0,0,0,37,37,64,1,wegen,images/br_wegen.png,images/cb_wegen.png,1,wegen,,,,,,,,,,,,,,,,,,,,,
,,,,,00101,2023-11-30_08h11.57.486,vbt_B2_day4,2022.2.4,MacIntel,60.0024001,,,,,,down,0,1.0674,,0.214913194,-0.357256944,1,0,0,0,38,38,66,1,lever,images/br_lever.png,images/cb_lever.png,1,lever,,,,,,,,,,,,,,,,,,,,,
,,,,,00101,2023-11-30_08h11.57.486,vbt_B2_day4,2022.2.4,MacIntel,60.0024001,,,,,,down,0,0.2172,,0.214913194,-0.357256944,1,0,0,0,39,39,115,1,kleren,images/br_kleren.png,images/cb_kleren.png,0,,,,,,,,,,,,,,,,,,,,,,
,,,,,00101,2023-11-30_08h11.57.486,vbt_B2_day4,2022.2.4,MacIntel,60.0024001,,,,,,down,0,0.1354,,0.214913194,-0.357256944,1,0,0,0,40,40,198,1,bedoelen,images/br_bedoelen.png,images/cb_bedoelen.png,0,,,,,,,,,,,,,,,,,,,,,,
,,,,,00101,2023-11-30_08h11.57.486,vbt_B2_day4,2022.2.4,MacIntel,60.0024001,,,,,,down,0,3.1729,,0.214913194,-0.357256944,1,0,0,0,41,41,67,1,zwart,images/br_zwart.png,images/cb_zwart.png,1,zwart,,,,,,,,,,,,,,,,,,,,,
,,,,,00101,2023-11-30_08h11.57.486,vbt_B2_day4,2022.2.4,MacIntel,60.0024001,,,,,,down,0,1.3225,,0.214913194,-0.357256944,1,0,0,0,42,42,123,1,hiervan,images/br_hiervan.png,images/cb_hiervan.png,0,,,,,,,,,,,,,,,,,,,,,,
,,,,,00101,2023-11-30_08h11.57.486,vbt_B2_day4,2022.2.4,MacIntel,60.0024001,,,,,,down,0,0.2102,,0.214913194,-0.357256944,1,0,0,0,43,43,189,1,aanraden,images/br_aanraden.png,images/cb_aanraden.png,0,,,,,,,,,,,,,,,,,,,,,,
,,,,,00101,2023-11-30_08h11.57.486,vbt_B2_day4,2022.2.4,MacIntel,60.0024001,,,,,,down,0,6.3334,,0.214913194,-0.357256944,1,0,0,0,44,44,185,1,mijnheer,images/br_mijnheer.png,images/cb_mijnheer.png,1,mijnheer,,,,,,,,,,,,,,,,,,,,,
,,,,,00101,2023-11-30_08h11.57.486,vbt_B2_day4,2022.2.4,MacIntel,60.0024001,,,,,,down,0,0.1225,,0.214913194,-0.357256944,1,0,0,0,45,45,18,1,blik,images/br_blik.png,images/cb_blik.png,0,,,,,,,,,,,,,,,,,,,,,,
,,,,,00101,2023-11-30_08h11.57.486,vbt_B2_day4,2022.2.4,MacIntel,60.0024001,,,,,,down,0,0.7699,,0.214913194,-0.357256944,1,0,0,0,46,46,75,1,snoep,images/br_snoep.png,images/cb_snoep.png,0,,,,,,,,,,,,,,,,,,,,,,
,,,,,00101,2023-11-30_08h11.57.486,vbt_B2_day4,2022.2.4,MacIntel,60.0024001,,,,,,down,0,2.5044,,0.214913194,-0.357256944,1,0,0,0,47,47,168,1,bisschop,images/br_bisschop.png,images/cb_bisschop.png,0,,,,,,,,,,,,,,,,,,,,,,
,,,,,00101,2023-11-30_08h11.57.486,vbt_B2_day4,2022.2.4,MacIntel,60.0024001,,,,,,down,0,1.3995,,0.214913194,-0.357256944,1,0,0,0,48,48,182,1,bijkomen,images/br_bijkomen.png,images/cb_bijkomen.png,0,,,,,,,,,,,,,,,,,,,,,,
,,,,,00101,2023-11-30_08h11.57.486,vbt_B2_day4,2022.2.4,MacIntel,60.0024001,,,,,,down,0,1.1674,,0.214913194,-0.357256944,1,0,0,0,49,49,186,1,voorraad,images/br_voorraad.png,images/cb_voorraad.png,1,voorraad,,,,,,,,,,,,,,,,,,,,,
,,,,,00101,2023-11-30_08h11.57.486,vbt_B2_day4,2022.2.4,MacIntel,60.0024001,,,,,,down,0,2.5553,,0.214913194,-0.357256944,1,0,0,0,50,50,193,1,weeshuis,images/br_weeshuis.png,images/cb_weeshuis.png,0,,,,,,,,,,,,,,,,,,,,,,
,,,,,00101,2023-11-30_08h11.57.486,vbt_B2_day4,2022.2.4,MacIntel,60.0024001,,,,,,down,0,0.867,,0.214913194,-0.357256944,1,0,0,0,51,51,156,1,rechten,images/br_rechten.png,images/cb_rechten.png,0,,,,,,,,,,,,,,,,,,,,,,
,,,,,00101,2023-11-30_08h11.57.486,vbt_B2_day4,2022.2.4,MacIntel,60.0024001,,,,,,down,0,0.2501,,0.214913194,-0.357256944,1,0,0,0,52,52,81,1,dubbel,images/br_dubbel.png,images/cb_dubbel.png,0,,,,,,,,,,,,,,,,,,,,,,
,,,,,00101,2023-11-30_08h11.57.486,vbt_B2_day4,2022.2.4,MacIntel,60.0024001,,,,,,down,0,0.5482,,0.214913194,-0.357256944,1,0,0,0,53,53,102,1,legaal,images/br_legaal.png,images/cb_legaal.png,0,,,,,,,,,,,,,,,,,,,,,,
,,,,,00101,2023-11-30_08h11.57.486,vbt_B2_day4,2022.2.4,MacIntel,60.0024001,,,,,,down,0,0.3029,,0.214913194,-0.357256944,1,0,0,0,54,54,160,1,daarheen,images/br_daarheen.png,images/cb_daarheen.png,0,,,,,,,,,,,,,,,,,,,,,,
,,,,,00101,2023-11-30_08h11.57.486,vbt_B2_day4,2022.2.4,MacIntel,60.0024001,,,,,,down,0,0.2134,,0.214913194,-0.357256944,1,0,0,0,55,55,77,1,woede,images/br_woede.png,images/cb_woede.png,0,,,,,,,,,,,,,,,,,,,,,,
,,,,,00101,2023-11-30_08h11.57.486,vbt_B2_day4,2022.2.4,MacIntel,60.0024001,,,,,,down,0,0.0044,,0.214913194,-0.357256944,1,0,0,0,56,56,79,1,nodig,images/br_nodig.png,images/cb_nodig.png,0,,,,,,,,,,,,,,,,,,,,,,
,,,,,00101,2023-11-30_08h11.57.486,vbt_B2_day4,2022.2.4,MacIntel,60.0024001,,,,,,down,0,0.121,,0.214913194,-0.357256944,1,0,0,0,57,57,51,1,samen,images/br_samen.png,images/cb_samen.png,0,,,,,,,,,,,,,,,,,,,,,,
,,,,,00101,2023-11-30_08h11.57.486,vbt_B2_day4,2022.2.4,MacIntel,60.0024001,,,,,,down,0,5.6895,,0.214913194,-0.357256944,1,0,0,0,58,58,80,1,kanjer,images/br_kanjer.png,images/cb_kanjer.png,0,,,,,,,,,,,,,,,,,,,,,,
,,,,,00101,2023-11-30_08h11.57.486,vbt_B2_day4,2022.2.4,MacIntel,60.0024001,,,,,,down,0,0.8001,,0.214913194,-0.357256944,1,0,0,0,59,59,158,1,innemen,images/br_innemen.png,images/cb_innemen.png,0,,,,,,,,,,,,,,,,,,,,,,
,,,,,00101,2023-11-30_08h11.57.486,vbt_B2_day4,2022.2.4,MacIntel,60.0024001,,,,,,down,0,0.6418,,0.214913194,-0.357256944,1,0,0,0,60,60,121,1,twijfel,images/br_twijfel.png,images/cb_twijfel.png,0,,,,,,,,,,,,,,,,,,,,,,
,,,,,00101,2023-11-30_08h11.57.486,vbt_B2_day4,2022.2.4,MacIntel,60.0024001,,,,,,down,0,0.0895,,0.214913194,-0.357256944,1,0,0,0,61,61,136,1,waarbij,images/br_waarbij.png,images/cb_waarbij.png,0,,,,,,,,,,,,,,,,,,,,,,
,,,,,00101,2023-11-30_08h11.57.486,vbt_B2_day4,2022.2.4,MacIntel,60.0024001,,,,,,down,0,1.0647,,0.214913194,-0.357256944,1,0,0,0,62,62,131,1,opzicht,images/br_opzicht.png,images/cb_opzicht.png,0,,,,,,,,,,,,,,,,,,,,,,
,,,,,00101,2023-11-30_08h11.57.486,vbt_B2_day4,2022.2.4,MacIntel,60.0024001,,,,,,down,0,4.2673,,0.214913194,-0.357256944,1,0,0,0,63,63,44,1,flits,images/br_flits.png,images/cb_flits.png,0,,,,,,,,,,,,,,,,,,,,,,
,,,,,00101,2023-11-30_08h11.57.486,vbt_B2_day4,2022.2.4,MacIntel,60.0024001,,,,,,down,0,2.6904,,0.214913194,-0.357256944,1,0,0,0,64,64,188,1,strekken,images/br_strekken.png,images/cb_strekken.png,0,,,,,,,,,,,,,,,,,,,,,,
,,,,,00101,2023-11-30_08h11.57.486,vbt_B2_day4,2022.2.4,MacIntel,60.0024001,,,,,,down,0,2.2868,,0.214913194,-0.357256944,1,0,0,0,65,65,117,1,kennis,images/br_kennis.png,images/cb_kennis.png,0,,,,,,,,,,,,,,,,,,,,,,
,,,,,00101,2023-11-30_08h11.57.486,vbt_B2_day4,2022.2.4,MacIntel,60.0024001,,,,,,down,0,2.7856,,0.214913194,-0.357256944,1,0,0,0,66,66,53,1,baron,images/br_baron.png,images/cb_baron.png,0,,,,,,,,,,,,,,,,,,,,,,
,,,,,00101,2023-11-30_08h11.57.486,vbt_B2_day4,2022.2.4,MacIntel,60.0024001,,,,,,down,0,0.7034,,0.214913194,-0.357256944,1,0,0,0,67,67,134,1,geliefd,images/br_geliefd.png,images/cb_geliefd.png,0,,,,,,,,,,,,,,,,,,,,,,
,,,,,00101,2023-11-30_08h11.57.486,vbt_B2_day4,2022.2.4,MacIntel,60.0024001,,,,,,down,0,0.5716,,0.214913194,-0.357256944,1,0,0,0,68,68,177,1,maaltijd,images/br_maaltijd.png,images/cb_maaltijd.png,0,,,,,,,,,,,,,,,,,,,,,,
,,,,,00101,2023-11-30_08h11.57.486,vbt_B2_day4,2022.2.4,MacIntel,60.0024001,,,,,,down,0,2.9755,,0.214913194,-0.357256944,1,0,0,0,69,69,120,1,klimmen,images/br_klimmen.png,images/cb_klimmen.png,0,,,,,,,,,,,,,,,,,,,,,,
,,,,,00101,2023-11-30_08h11.57.486,vbt_B2_day4,2022.2.4,MacIntel,60.0024001,,,,,,down,0,1.2528,,0.204986979,-0.368810764,1,0,0,0,70,70,149,1,redding,images/br_redding.png,images/cb_redding.png,0,,,,,,,,,,,,,,,,,,,,,,
,,,,,00101,2023-11-30_08h11.57.486,vbt_B2_day4,2022.2.4,MacIntel,60.0024001,,,,,,down,0,0.3897,,0.204986979,-0.368810764,1,0,0,0,71,71,140,1,blijven,images/br_blijven.png,images/cb_blijven.png,0,,,,,,,,,,,,,,,,,,,,,,
,,,,,00101,2023-11-30_08h11.57.486,vbt_B2_day4,2022.2.4,MacIntel,60.0024001,,,,,,down,0,0.1431,,0.204986979,-0.368810764,1,0,0,0,72,72,34,1,vorm,images/br_vorm.png,images/cb_vorm.png,0,,,,,,,,,,,,,,,,,,,,,,
,,,,,00101,2023-11-30_08h11.57.486,vbt_B2_day4,2022.2.4,MacIntel,60.0024001,,,,,,down,0,2.0201,,0.204986979,-0.368810764,1,0,0,0,73,73,91,1,gezond,images/br_gezond.png,images/cb_gezond.png,0,,,,,,,,,,,,,,,,,,,,,,
,,,,,00101,2023-11-30_08h11.57.486,vbt_B2_day4,2022.2.4,MacIntel,60.0024001,,,,,,down,0,3.0515,,0.204986979,-0.368810764,1,0,0,0,74,74,65,1,parel,images/br_parel.png,images/cb_parel.png,1,parel,,,,,,,,,,,,,,,,,,,,,
,,,,,00101,2023-11-30_08h11.57.486,vbt_B2_day4,2022.2.4,MacIntel,60.0024001,,,,,,down,0,3.9642,,0.204986979,-0.368810764,1,0,0,0,75,75,107,1,maling,images/br_maling.png,images/cb_maling.png,1,maling,,,,,,,,,,,,,,,,,,,,,
,,,,,00101,2023-11-30_08h11.57.486,vbt_B2_day4,2022.2.4,MacIntel,60.0024001,,,,,,down,0,3.3591,,0.204986979,-0.368810764,1,0,0,0,76,76,109,1,totaal,images/br_totaal.png,images/cb_totaal.png,0,,,,,,,,,,,,,,,,,,,,,,
,,,,,00101,2023-11-30_08h11.57.486,vbt_B2_day4,2022.2.4,MacIntel,60.0024001,,,,,,down,0,0.8199,,0.204986979,-0.368810764,1,0,0,0,77,77,85,1,heilig,images/br_heilig.png,images/cb_heilig.png,0,,,,,,,,,,,,,,,,,,,,,,
,,,,,00101,2023-11-30_08h11.57.486,vbt_B2_day4,2022.2.4,MacIntel,60.0024001,,,,,,down,0,1.8881,,0.204986979,-0.368810764,1,0,0,0,78,78,58,1,tekst,images/br_tekst.png,images/cb_tekst.png,0,,,,,,,,,,,,,,,,,,,,,,
,,,,,00101,2023-11-30_08h11.57.486,vbt_B2_day4,2022.2.4,MacIntel,60.0024001,,,,,,down,0,0.6989,,0.204986979,-0.368810764,1,0,0,0,79,79,15,1,soda,images/br_soda.png,images/cb_soda.png,0,,,,,,,,,,,,,,,,,,,,,,
,,,,,00101,2023-11-30_08h11.57.486,vbt_B2_day4,2022.2.4,MacIntel,60.0024001,,,,,,down,0,0.4177,,0.204986979,-0.368810764,1,0,0,0,80,80,174,1,stemming,images/br_stemming.png,images/cb_stemming.png,0,,,,,,,,,,,,,,,,,,,,,,
,,,,,00101,2023-11-30_08h11.57.486,vbt_B2_day4,2022.2.4,MacIntel,60.0024001,,,,,,down,0,0.1137,,0.204986979,-0.368810764,1,0,0,0,81,81,103,1,joggen,images/br_joggen.png,images/cb_joggen.png,0,,,,,,,,,,,,,,,,,,,,,,
,,,,,00101,2023-11-30_08h11.57.486,vbt_B2_day4,2022.2.4,MacIntel,60.0024001,,,,,,down,0,0.4282,,0.204986979,-0.368810764,1,0,0,0,82,82,150,1,gegeven,images/br_gegeven.png,images/cb_gegeven.png,0,,,,,,,,,,,,,,,,,,,,,,
,,,,,00101,2023-11-30_08h11.57.486,vbt_B2_day4,2022.2.4,MacIntel,60.0024001,,,,,,down,0,0.9049,,0.204986979,-0.368810764,1,0,0,0,83,83,36,1,vuur,images/br_vuur.png,images/cb_vuur.png,0,,,,,,,,,,,,,,,,,,,,,,
,,,,,00101,2023-11-30_08h11.57.486,vbt_B2_day4,2022.2.4,MacIntel,60.0024001,,,,,,down,0,1.2049,,0.204986979,-0.368810764,1,0,0,0,84,84,196,1,nakijken,images/br_nakijken.png,images/cb_nakijken.png,0,,,,,,,,,,,,,,,,,,,,,,
,,,,,00101,2023-11-30_08h11.57.486,vbt_B2_day4,2022.2.4,MacIntel,60.0024001,,,,,,down,0,0.3692,,0.204986979,-0.368810764,1,0,0,0,85,85,2,1,jaar,images/br_jaar.png,images/cb_jaar.png,0,,,,,,,,,,,,,,,,,,,,,,
,,,,,00101,2023-11-30_08h11.57.486,vbt_B2_day4,2022.2.4,MacIntel,60.0024001,,,,,,down,0,0.502,,0.204986979,-0.368810764,1,0,0,0,86,86,141,1,knielen,images/br_knielen.png,images/cb_knielen.png,0,,,,,,,,,,,,,,,,,,,,,,
,,,,,00101,2023-11-30_08h11.57.486,vbt_B2_day4,2022.2.4,MacIntel,60.0024001,,,,,,down,0,1.1082,,0.204986979,-0.368810764,1,0,0,0,87,87,110,1,zuster,images/br_zuster.png,images/cb_zuster.png,0,,,,,,,,,,,,,,,,,,,,,,
,,,,,00101,2023-11-30_08h11.57.486,vbt_B2_day4,2022.2.4,MacIntel,60.0024001,,,,,,down,0,0.1484,,0.204986979,-0.368810764,1,0,0,0,88,88,199,1,beseffen,images/br_beseffen.png,images/cb_beseffen.png,0,,,,,,,,,,,,,,,,,,,,,,
,,,,,00101,2023-11-30_08h11.57.486,vbt_B2_day4,2022.2.4,MacIntel,60.0024001,,,,,,down,0,2.4678,,0.204986979,-0.368810764,1,0,0,0,89,89,178,1,huisdier,images/br_huisdier.png,images/cb_huisdier.png,0,,,,,,,,,,,,,,,,,,,,,,
,,,,,00101,2023-11-30_08h11.57.486,vbt_B2_day4,2022.2.4,MacIntel,60.0024001,,,,,,down,0,0.0667,,0.204986979,-0.368810764,1,0,0,0,90,90,151,1,aanzoek,images/br_aanzoek.png,images/cb_aanzoek.png,0,,,,,,,,,,,,,,,,,,,,,,
,,,,,00101,2023-11-30_08h11.57.486,vbt_B2_day4,2022.2.4,MacIntel,60.0024001,,,,,,down,0,0.6205,,0.204986979,-0.368810764,1,0,0,0,91,91,190,1,goedkoop,images/br_goedkoop.png,images/cb_goedkoop.png,0,,,,,,,,,,,,,,,,,,,,,,
,,,,,00101,2023-11-30_08h11.57.486,vbt_B2_day4,2022.2.4,MacIntel,60.0024001,,,,,,down,0,0.1328,,0.204986979,-0.368810764,1,0,0,0,92,92,7,1,geld,images/br_geld.png,images/cb_geld.png,0,,,,,,,,,,,,,,,,,,,,,,
,,,,,00101,2023-11-30_08h11.57.486,vbt_B2_day4,2022.2.4,MacIntel,60.0024001,,,,,,down,0,0.4359,,0.204986979,-0.368810764,1,0,0,0,93,93,95,1,vreten,images/br_vreten.png,images/cb_vreten.png,0,,,,,,,,,,,,,,,,,,,,,,
,,,,,00101,2023-11-30_08h11.57.486,vbt_B2_day4,2022.2.4,MacIntel,60.0024001,,,,,,down,0,0.2189,,0.204986979,-0.368810764,1,0,0,0,94,94,101,1,staren,images/br_staren.png,images/cb_staren.png,0,,,,,,,,,,,,,,,,,,,,,,
,,,,,00101,2023-11-30_08h11.57.486,vbt_B2_day4,2022.2.4,MacIntel,60.0024001,,,,,,down,0,0.0518,,0.204986979,-0.368810764,1,0,0,0,95,95,192,1,schaamte,images/br_schaamte.png,images/cb_schaamte.png,0,,,,,,,,,,,,,,,,,,,,,,
,,,,,00101,2023-11-30_08h11.57.486,vbt_B2_day4,2022.2.4,MacIntel,60.0024001,,,,,,down,0,0.0527,,0.204986979,-0.368810764,1,0,0,0,96,96,89,1,slapen,images/br_slapen.png,images/cb_slapen.png,0,,,,,,,,,,,,,,,,,,,,,,
,,,,,00101,2023-11-30_08h11.57.486,vbt_B2_day4,2022.2.4,MacIntel,60.0024001,,,,,,down,0,0.1845,,0.204986979,-0.368810764,1,0,0,0,97,97,152,1,afnemen,images/br_afnemen.png,images/cb_afnemen.png,0,,,,,,,,,,,,,,,,,,,,,,
,,,,,00101,2023-11-30_08h11.57.486,vbt_B2_day4,2022.2.4,MacIntel,60.0024001,,,,,,down,0,0.1688,,0.204986979,-0.368810764,1,0,0,0,98,98,138,1,akkoord,images/br_akkoord.png,images/cb_akkoord.png,0,,,,,,,,,,,,,,,,,,,,,,
,,,,,00101,2023-11-30_08h11.57.486,vbt_B2_day4,2022.2.4,MacIntel,60.0024001,,,,,,down,0,0.6722,,0.204986979,-0.368810764,1,0,0,0,99,99,125,1,aanzien,images/br_aanzien.png,images/cb_aanzien.png,0,,,,,,,,,,,,,,,,,,,,,,
,,,,,00101,2023-11-30_08h11.57.486,vbt_B2_day4,2022.2.4,MacIntel,60.0024001,,,,,,down,0,1.2159,,0.204986979,-0.368810764,1,0,0,0,100,100,105,1,wijlen,images/br_wijlen.png,images/cb_wijlen.png,1,wijlen,,,,,,,,,,,,,,,,,,,,,
,,,,,00101,2023-11-30_08h11.57.486,vbt_B2_day4,2022.2.4,MacIntel,60.0024001,,,,,,down,0,0.0551,,0.204986979,-0.368810764,1,0,0,0,101,101,57,1,steek,images/br_steek.png,images/cb_steek.png,0,,,,,,,,,,,,,,,,,,,,,,
,,,,,00101,2023-11-30_08h11.57.486,vbt_B2_day4,2022.2.4,MacIntel,60.0024001,,,,,,down,0,0.0015,,0.204986979,-0.368810764,1,0,0,0,102,102,48,1,steel,images/br_steel.png,images/cb_steel.png,0,,,,,,,,,,,,,,,,,,,,,,
,,,,,00101,2023-11-30_08h11.57.486,vbt_B2_day4,2022.2.4,MacIntel,60.0024001,,,,,,down,0,1.099,,0.204986979,-0.368810764,1,0,0,0,103,103,167,1,eenhoorn,images/br_eenhoorn.png,images/cb_eenhoorn.png,0,,,,,,,,,,,,,,,,,,,,,,
,,,,,00101,2023-11-30_08h11.57.486,vbt_B2_day4,2022.2.4,MacIntel,60.0024001,,,,,,down,0,1.7532,,0.204986979,-0.368810764,1,0,0,0,104,104,197,1,spanning,images/br_spanning.png,images/cb_spanning.png,0,,,,,,,,,,,,,,,,,,,,,,
,,,,,00101,2023-11-30_08h11.57.486,vbt_B2_day4,2022.2.4,MacIntel,60.0024001,,,,,,down,0,0.1924,,0.204986979,-0.368810764,1,0,0,0,105,105,71,1,bever,images/br_bever.png,images/cb_bever.png,0,,,,,,,,,,,,,,,,,,,,,,
,,,,,00101,2023-11-30_08h11.57.486,vbt_B2_day4,2022.2.4,MacIntel,60.0024001,,,,,,down,0,0.5385,,0.204986979,-0.368810764,1,0,0,0,106,106,59,1,kring,images/br_kring.png,images/cb_kring.png,0,,,,,,,,,,,,,,,,,,,,,,
,,,,,00101,2023-11-30_08h11.57.486,vbt_B2_day4,2022.2.4,MacIntel,60.0024001,,,,,,down,0,1.8011,,0.204986979,-0.368810764,1,0,0,0,107,107,25,1,plek,images/br_plek.png,images/cb_plek.png,1,plek,,,,,,,,,,,,,,,,,,,,,
,,,,,00101,2023-11-30_08h11.57.486,vbt_B2_day4,2022.2.4,MacIntel,60.0024001,,,,,,down,0,0.7729,,0.204986979,-0.368810764,1,0,0,0,108,108,28,1,stal,images/br_stal.png,images/cb_stal.png,0,,,,,,,,,,,,,,,,,,,,,,
,,,,,00101,2023-11-30_08h11.57.486,vbt_B2_day4,2022.2.4,MacIntel,60.0024001,,,,,,down,0,0.0929,,0.204986979,-0.368810764,1,0,0,0,109,109,93,1,waarop,images/br_waarop.png,images/cb_waarop.png,0,,,,,,,,,,,,,,,,,,,,,,
,,,,,00101,2023-11-30_08h11.57.486,vbt_B2_day4,2022.2.4,MacIntel,60.0024001,,,,,,down,0,0.1509,,0.204986979,-0.368810764,1,0,0,0,110,110,88,1,boeien,images/br_boeien.png,images/cb_boeien.png,0,,,,,,,,,,,,,,,,,,,,,,
,,,,,00101,2023-11-30_08h11.57.486,vbt_B2_day4,2022.2.4,MacIntel,60.0024001,,,,,,down,0,0.2191,,0.204986979,-0.368810764,1,0,0,0,111,111,42,1,bleek,images/br_bleek.png,images/cb_bleek.png,0,,,,,,,,,,,,,,,,,,,,,,
,,,,,00101,2023-11-30_08h11.57.486,vbt_B2_day4,2022.2.4,MacIntel,60.0024001,,,,,,down,0,0.8055,,0.204986979,-0.368810764,1,0,0,0,112,112,98,1,kreeft,images/br_kreeft.png,images/cb_kreeft.png,0,,,,,,,,,,,,,,,,,,,,,,
,,,,,00101,2023-11-30_08h11.57.486,vbt_B2_day4,2022.2.4,MacIntel,60.0024001,,,,,,down,0,1.326,,0.204986979,-0.368810764,1,0,0,0,113,113,87,1,toeval,images/br_toeval.png,images/cb_toeval.png,0,,,,,,,,,,,,,,,,,,,,,,
,,,,,00101,2023-11-30_08h11.57.486,vbt_B2_day4,2022.2.4,MacIntel,60.0024001,,,,,,down,0,0.2733,,0.204986979,-0.368810764,1,0,0,0,114,114,20,1,site,images/br_site.png,images/cb_site.png,0,,,,,,,,,,,,,,,,,,,,,,
,,,,,00101,2023-11-30_08h11.57.486,vbt_B2_day4,2022.2.4,MacIntel,60.0024001,,,,,,down,0,0.3502,,0.204986979,-0.368810764,1,0,0,0,115,115,52,1,wagon,images/br_wagon.png,images/cb_wagon.png,0,,,,,,,,,,,,,,,,,,,,,,
,,,,,00101,2023-11-30_08h11.57.486,vbt_B2_day4,2022.2.4,MacIntel,60.0024001,,,,,,down,0,1.2084,,0.204986979,-0.368810764,1,0,0,0,116,116,33,1,vlek,images/br_vlek.png,images/cb_vlek.png,0,,,,,,,,,,,,,,,,,,,,,,
,,,,,00101,2023-11-30_08h11.57.486,vbt_B2_day4,2022.2.4,MacIntel,60.0024001,,,,,,down,0,0.718,,0.204986979,-0.368810764,1,0,0,0,117,117,5,1,blad,images/br_blad.png,images/cb_blad.png,0,,,,,,,,,,,,,,,,,,,,,,
,,,,,00101,2023-11-30_08h11.57.486,vbt_B2_day4,2022.2.4,MacIntel,60.0024001,,,,,,down,0,2.534,,0.204986979,-0.368810764,1,0,0,0,118,118,24,1,jurk,images/br_jurk.png,images/cb_jurk.png,1,jurk,,,,,,,,,,,,,,,,,,,,,
,,,,,00101,2023-11-30_08h11.57.486,vbt_B2_day4,2022.2.4,MacIntel,60.0024001,,,,,,down,0,1.1256,,0.204986979,-0.368810764,1,0,0,0,119,119,92,1,geheim,images/br_geheim.png,images/cb_geheim.png,0,,,,,,,,,,,,,,,,,,,,,,
,,,,,00101,2023-11-30_08h11.57.486,vbt_B2_day4,2022.2.4,MacIntel,60.0024001,,,,,,down,0,0.1846,,0.204986979,-0.368810764,1,0,0,0,120,120,63,1,flirt,images/br_flirt.png,images/cb_flirt.png,0,,,,,,,,,,,,,,,,,,,,,,
,,,,,00101,2023-11-30_08h11.57.486,vbt_B2_day4,2022.2.4,MacIntel,60.0024001,,,,,,down,0,0.0714,,0.204986979,-0.368810764,1,0,0,0,121,121,14,1,rijp,images/br_rijp.png,images/cb_rijp.png,0,,,,,,,,,,,,,,,,,,,,,,
,,,,,00101,2023-11-30_08h11.57.486,vbt_B2_day4,2022.2.4,MacIntel,60.0024001,,,,,,down,0,0.5206,,0.204986979,-0.368810764,1,0,0,0,122,122,175,1,heengaan,images/br_heengaan.png,images/cb_heengaan.png,0,,,,,,,,,,,,,,,,,,,,,,
,,,,,00101,2023-11-30_08h11.57.486,vbt_B2_day4,2022.2.4,MacIntel,60.0024001,,,,,,down,0,3.5342,,0.204986979,-0.368810764,1,0,0,0,123,123,104,1,zweven,images/br_zweven.png,images/cb_zweven.png,1,zweven,,,,,,,,,,,,,,,,,,,,,
,,,,,00101,2023-11-30_08h11.57.486,vbt_B2_day4,2022.2.4,MacIntel,60.0024001,,,,,,down,0,0.281,,0.204986979,-0.368810764,1,0,0,0,124,124,49,1,laken,images/br_laken.png,images/cb_laken.png,0,,,,,,,,,,,,,,,,,,,,,,
,,,,,00101,2023-11-30_08h11.57.486,vbt_B2_day4,2022.2.4,MacIntel,60.0024001,,,,,,down,0,0.5349,,0.204986979,-0.368810764,1,0,0,0,125,125,114,1,vullen,images/br_vullen.png,images/cb_vullen.png,0,,,,,,,,,,,,,,,,,,,,,,
,,,,,00101,2023-11-30_08h11.57.486,vbt_B2_day4,2022.2.4,MacIntel,60.0024001,,,,,,down,0,0.8527,,0.204986979,-0.368810764,1,0,0,0,126,126,19,1,geit,images/br_geit.png,images/cb_geit.png,0,,,,,,,,,,,,,,,,,,,,,,
,,,,,00101,2023-11-30_08h11.57.486,vbt_B2_day4,2022.2.4,MacIntel,60.0024001,,,,,,down,0,3.1507,,0.204986979,-0.368810764,1,0,0,0,127,127,8,1,knie,images/br_knie.png,images/cb_knie.png,0,,,,,,,,,,,,,,,,,,,,,,
,,,,,00101,2023-11-30_08h11.57.486,vbt_B2_day4,2022.2.4,MacIntel,60.0024001,,,,,,down,0,0.2027,,0.204986979,-0.368810764,1,0,0,0,128,128,96,1,slagen,images/br_slagen.png,images/cb_slagen.png,0,,,,,,,,,,,,,,,,,,,,,,
,,,,,00101,2023-11-30_08h11.57.486,vbt_B2_day4,2022.2.4,MacIntel,60.0024001,,,,,,down,0,1.1937,,0.204986979,-0.368810764,1,0,0,0,129,129,133,1,seizoen,images/br_seizoen.png,images/cb_seizoen.png,0,,,,,,,,,,,,,,,,,,,,,,
,,,,,00101,2023-11-30_08h11.57.486,vbt_B2_day4,2022.2.4,MacIntel,60.0024001,,,,,,down,0,0.3202,,0.204986979,-0.368810764,1,0,0,0,130,130,159,1,sufferd,images/br_sufferd.png,images/cb_sufferd.png,0,,,,,,,,,,,,,,,,,,,,,,
,,,,,00101,2023-11-30_08h11.57.486,vbt_B2_day4,2022.2.4,MacIntel,60.0024001,,,,,,down,0,0.1597,,0.204986979,-0.368810764,1,0,0,0,131,131,41,1,maken,images/br_maken.png,images/cb_maken.png,0,,,,,,,,,,,,,,,,,,,,,,
,,,,,00101,2023-11-30_08h11.57.486,vbt_B2_day4,2022.2.4,MacIntel,60.0024001,,,,,,down,0,0.3338,,0.204986979,-0.368810764,1,0,0,0,132,132,119,1,liefje,images/br_liefje.png,images/cb_liefje.png,0,,,,,,,,,,,,,,,,,,,,,,
,,,,,00101,2023-11-30_08h11.57.486,vbt_B2_day4,2022.2.4,MacIntel,60.0024001,,,,,,down,0,0.0835,,0.204986979,-0.368810764,1,0,0,0,133,133,22,1,stof,images/br_stof.png,images/cb_stof.png,0,,,,,,,,,,,,,,,,,,,,,,
,,,,,00101,2023-11-30_08h11.57.486,vbt_B2_day4,2022.2.4,MacIntel,60.0024001,,,,,,down,0,2.2146,,0.204986979,-0.368810764,1,0,0,0,134,134,187,1,opkijken,images/br_opkijken.png,images/cb_opkijken.png,1,opkijken,,,,,,,,,,,,,,,,,,,,,
,,,,,00101,2023-11-30_08h11.57.486,vbt_B2_day4,2022.2.4,MacIntel,60.0024001,,,,,,down,0,0.289,,0.204986979,-0.368810764,1,0,0,0,135,135,3,1,mand,images/br_mand.png,images/cb_mand.png,0,,,,,,,,,,,,,,,,,,,,,,
,,,,,00101,2023-11-30_08h11.57.486,vbt_B2_day4,2022.2.4,MacIntel,60.0024001,,,,,,down,0,5.3509,,0.204986979,-0.368810764,1,0,0,0,136,136,60,1,jasje,images/br_jasje.png,images/cb_jasje.png,0,,,,,,,,,,,,,,,,,,,,,,
,,,,,00101,2023-11-30_08h11.57.486,vbt_B2_day4,2022.2.4,MacIntel,60.0024001,,,,,,down,0,5.4155,,0.204986979,-0.368810764,1,0,0,0,137,137,142,1,snuiven,images/br_snuiven.png,images/cb_snuiven.png,0,,,,,,,,,,,,,,,,,,,,,,
,,,,,00101,2023-11-30_08h11.57.486,vbt_B2_day4,2022.2.4,MacIntel,60.0024001,,,,,,down,0,0.637,,0.204986979,-0.368810764,1,0,0,0,138,138,191,1,opheffen,images/br_opheffen.png,images/cb_opheffen.png,0,,,,,,,,,,,,,,,,,,,,,,
,,,,,00101,2023-11-30_08h11.57.486,vbt_B2_day4,2022.2.4,MacIntel,60.0024001,,,,,,down,0,1.236,,0.204986979,-0.368810764,1,0,0,0,139,139,72,1,strak,images/br_strak.png,images/cb_strak.png,0,,,,,,,,,,,,,,,,,,,,,,
,,,,,00101,2023-11-30_08h11.57.486,vbt_B2_day4,2022.2.4,MacIntel,60.0024001,,,,,,down,0,1.2503,,0.204986979,-0.368810764,1,0,0,0,140,140,116,1,besmet,images/br_besmet.png,images/cb_besmet.png,0,,,,,,,,,,,,,,,,,,,,,,
,,,,,00101,2023-11-30_08h11.57.486,vbt_B2_day4,2022.2.4,MacIntel,60.0024001,,,,,,down,0,1.5902,,0.204986979,-0.368810764,1,0,0,0,141,141,147,1,komisch,images/br_komisch.png,images/cb_komisch.png,1,komisch,,,,,,,,,,,,,,,,,,,,,
,,,,,00101,2023-11-30_08h11.57.486,vbt_B2_day4,2022.2.4,MacIntel,60.0024001,,,,,,down,0,1.358,,0.204986979,-0.36983941,1,0,0,0,142,142,94,1,oceaan,images/br_oceaan.png,images/cb_oceaan.png,0,,,,,,,,,,,,,,,,,,,,,,
,,,,,00101,2023-11-30_08h11.57.486,vbt_B2_day4,2022.2.4,MacIntel,60.0024001,,,,,,down,0,3.9539,,0.204986979,-0.36983941,1,0,0,0,143,143,165,1,feestdag,images/br_feestdag.png,images/cb_feestdag.png,0,,,,,,,,,,,,,,,,,,,,,,
,,,,,00101,2023-11-30_08h11.57.486,vbt_B2_day4,2022.2.4,MacIntel,60.0024001,,,,,,down,0,2.9182,,0.204986979,-0.36983941,1,0,0,0,144,144,143,1,hechten,images/br_hechten.png,images/cb_hechten.png,0,,,,,,,,,,,,,,,,,,,,,,
,,,,,00101,2023-11-30_08h11.57.486,vbt_B2_day4,2022.2.4,MacIntel,60.0024001,,,,,,down,0,0.3675,,0.204986979,-0.36983941,1,0,0,0,145,145,46,1,jagen,images/br_jagen.png,images/cb_jagen.png,0,,,,,,,,,,,,,,,,,,,,,,
,,,,,00101,2023-11-30_08h11.57.486,vbt_B2_day4,2022.2.4,MacIntel,60.0024001,,,,,,down,0,1.9927,,0.204986979,-0.36983941,1,0,0,0,146,146,162,1,uitdelen,images/br_uitdelen.png,images/cb_uitdelen.png,0,,,,,,,,,,,,,,,,,,,,,,
,,,,,00101,2023-11-30_08h11.57.486,vbt_B2_day4,2022.2.4,MacIntel,60.0024001,,,,,,down,0,0.9178,,0.204986979,-0.36983941,1,0,0,0,147,147,157,1,uitlaat,images/br_uitlaat.png,images/cb_uitlaat.png,0,,,,,,,,,,,,,,,,,,,,,,
,,,,,00101,2023-11-30_08h11.57.486,vbt_B2_day4,2022.2.4,MacIntel,60.0024001,,,,,,down,0,1.9595,,0.204986979,-0.36983941,1,0,0,0,148,148,181,1,toegeven,images/br_toegeven.png,images/cb_toegeven.png,0,,,,,,,,,,,,,,,,,,,,,,
,,,,,00101,2023-11-30_08h11.57.486,vbt_B2_day4,2022.2.4,MacIntel,60.0024001,,,,,,down,0,0.0331,,0.204986979,-0.36983941,1,0,0,0,149,149,68,1,schat,images/br_schat.png,images/cb_schat.png,0,,,,,,,,,,,,,,,,,,,,,,
,,,,,00101,2023-11-30_08h11.57.486,vbt_B2_day4,2022.2.4,MacIntel,60.0024001,,,,,,down,0,0.3023,,0.204986979,-0.36983941,1,0,0,0,150,150,113,1,koppen,images/br_koppen.png,images/cb_koppen.png,0,,,,,,,,,,,,,,,,,,,,,,
,,,,,00101,2023-11-30_08h11.57.486,vbt_B2_day4,2022.2.4,MacIntel,60.0024001,,,,,,down,0,0.1172,,0.204986979,-0.36983941,1,0,0,0,151,151,148,1,smullen,images/br_smullen.png,images/cb_smullen.png,0,,,,,,,,,,,,,,,,,,,,,,
,,,,,00101,2023-11-30_08h11.57.486,vbt_B2_day4,2022.2.4,MacIntel,60.0024001,,,,,,down,0,0.2662,,0.204986979,-0.36983941,1,0,0,0,152,152,31,1,poes,images/br_poes.png,images/cb_poes.png,0,,,,,,,,,,,,,,,,,,,,,,
,,,,,00101,2023-11-30_08h11.57.486,vbt_B2_day4,2022.2.4,MacIntel,60.0024001,,,,,,down,0,3.4334,,0.204986979,-0.36983941,1,0,0,0,153,153,183,1,getuigen,images/br_getuigen.png,images/cb_getuigen.png,0,,,,,,,,,,,,,,,,,,,,,,
,,,,,00101,2023-11-30_08h11.57.486,vbt_B2_day4,2022.2.4,MacIntel,60.0024001,,,,,,down,0,0.3193,,0.204986979,-0.36983941,1,0,0,0,154,154,179,1,woestijn,images/br_woestijn.png,images/cb_woestijn.png,0,,,,,,,,,,,,,,,,,,,,,,
,,,,,00101,2023-11-30_08h11.57.486,vbt_B2_day4,2022.2.4,MacIntel,60.0024001,,,,,,down,0,2.0821,,0.204986979,-0.36983941,1,0,0,0,155,155,23,1,zout,images/br_zout.png,images/cb_zout.png,0,,,,,,,,,,,,,,,,,,,,,,
,,,,,00101,2023-11-30_08h11.57.486,vbt_B2_day4,2022.2.4,MacIntel,60.0024001,,,,,,down,0,0.2691,,0.204986979,-0.36983941,1,0,0,0,156,156,139,1,stiekem,images/br_stiekem.png,images/cb_stiekem.png,0,,,,,,,,,,,,,,,,,,,,,,
,,,,,00101,2023-11-30_08h11.57.486,vbt_B2_day4,2022.2.4,MacIntel,60.0024001,,,,,,down,0,2.9624,,0.608854167,-0.02328559,1,0,0,0,157,157,55,1,praat,images/br_praat.png,images/cb_praat.png,0,,,,,,,,,,,,,,,,,,,,,,
,,,,,00101,2023-11-30_08h11.57.486,vbt_B2_day4,2022.2.4,MacIntel,60.0024001,,,,,,down,0,0.4676,,0.608854167,-0.02328559,1,0,0,0,158,158,118,1,vinger,images/br_vinger.png,images/cb_vinger.png,0,,,,,,,,,,,,,,,,,,,,,,
,,,,,00101,2023-11-30_08h11.57.486,vbt_B2_day4,2022.2.4,MacIntel,60.0024001,,,,,,down,0,0.3351,,0.608854167,-0.02328559,1,0,0,0,159,159,108,1,excuus,images/br_excuus.png,images/cb_excuus.png,0,,,,,,,,,,,,,,,,,,,,,,
,,,,,00101,2023-11-30_08h11.57.486,vbt_B2_day4,2022.2.4,MacIntel,60.0024001,,,,,,down,0,0.4501,,0.608854167,-0.02328559,1,0,0,0,160,160,38,1,baai,images/br_baai.png,images/cb_baai.png,0,,,,,,,,,,,,,,,,,,,,,,
,,,,,00101,2023-11-30_08h11.57.486,vbt_B2_day4,2022.2.4,MacIntel,60.0024001,,,,,,down,0,4.5676,,0.608854167,-0.023029514,1,0,0,0,161,161,145,1,invloed,images/br_invloed.png,images/cb_invloed.png,1,invloed,,,,,,,,,,,,,,,,,,,,,
,,,,,00101,2023-11-30_08h11.57.486,vbt_B2_day4,2022.2.4,MacIntel,60.0024001,,,,,,down,0,1.0171,,0.608854167,-0.023029514,1,0,0,0,162,162,129,1,verhaal,images/br_verhaal.png,images/cb_verhaal.png,0,,,,,,,,,,,,,,,,,,,,,,
,,,,,00101,2023-11-30_08h11.57.486,vbt_B2_day4,2022.2.4,MacIntel,60.0024001,,,,,,down,0,0.1338,,0.608854167,-0.023029514,1,0,0,0,163,163,1,1,zaal,images/br_zaal.png,images/cb_zaal.png,0,,,,,,,,,,,,,,,,,,,,,,
,,,,,00101,2023-11-30_08h11.57.486,vbt_B2_day4,2022.2.4,MacIntel,60.0024001,,,,,,down,0,0.7413,,0.608854167,-0.023029514,1,0,0,0,164,164,126,1,kasteel,images/br_kasteel.png,images/cb_kasteel.png,0,,,,,,,,,,,,,,,,,,,,,,
,,,,,00101,2023-11-30_08h11.57.486,vbt_B2_day4,2022.2.4,MacIntel,60.0024001,,,,,,down,0,12.0083,,0.608854167,-0.023029514,1,0,0,0,165,165,176,1,techniek,images/br_techniek.png,images/cb_techniek.png,0,,,,,,,,,,,,,,,,,,,,,,
,,,,,00101,2023-11-30_08h11.57.486,vbt_B2_day4,2022.2.4,MacIntel,60.0024001,,,,,,down,0,0.184,,0.608854167,-0.023029514,1,0,0,0,166,166,29,1,baas,images/br_baas.png,images/cb_baas.png,0,,,,,,,,,,,,,,,,,,,,,,
,,,,,00101,2023-11-30_08h11.57.486,vbt_B2_day4,2022.2.4,MacIntel,60.0024001,,,,,,down,0,0.1366,,0.608854167,-0.023029514,1,0,0,0,167,167,166,1,strikken,images/br_strikken.png,images/cb_strikken.png,0,,,,,,,,,,,,,,,,,,,,,,
,,,,,00101,2023-11-30_08h11.57.486,vbt_B2_day4,2022.2.4,MacIntel,60.0024001,,,,,,down,0,0.1654,,0.608854167,-0.023029514,1,0,0,0,168,168,9,1,hier,images/br_hier.png,images/cb_hier.png,0,,,,,,,,,,,,,,,,,,,,,,
,,,,,00101,2023-11-30_08h11.57.486,vbt_B2_day4,2022.2.4,MacIntel,60.0024001,,,,,,down,0,0.2588,,0.608854167,-0.023029514,1,0,0,0,169,169,61,1,groen,images/br_groen.png,images/cb_groen.png,0,,,,,,,,,,,,,,,,,,,,,,
,,,,,00101,2023-11-30_08h11.57.486,vbt_B2_day4,2022.2.4,MacIntel,60.0024001,,,,,,down,0,0.3028,,0.608854167,-0.023029514,1,0,0,0,170,170,43,1,klauw,images/br_klauw.png,images/cb_klauw.png,0,,,,,,,,,,,,,,,,,,,,,,
,,,,,00101,2023-11-30_08h11.57.486,vbt_B2_day4,2022.2.4,MacIntel,60.0024001,,,,,,down,0,0.067,,0.608854167,-0.023029514,1,0,0,0,171,171,76,1,afval,images/br_afval.png,images/cb_afval.png,0,,,,,,,,,,,,,,,,,,,,,,
,,,,,00101,2023-11-30_08h11.57.486,vbt_B2_day4,2022.2.4,MacIntel,60.0024001,,,,,,down,0,0.5849,,0.608854167,-0.023029514,1,0,0,0,172,172,195,1,middelen,images/br_middelen.png,images/cb_middelen.png,0,,,,,,,,,,,,,,,,,,,,,,
,,,,,00101,2023-11-30_08h11.57.486,vbt_B2_day4,2022.2.4,MacIntel,60.0024001,,,,,,down,0,0.5157,,0.608854167,-0.023029514,1,0,0,0,173,173,86,1,woning,images/br_woning.png,images/cb_woning.png,0,,,,,,,,,,,,,,,,,,,,,,
,,,,,00101,2023-11-30_08h11.57.486,vbt_B2_day4,2022.2.4,MacIntel,60.0024001,,,,,,down,0,0.4379,,0.608854167,-0.023029514,1,0,0,0,174,174,137,1,trekker,images/br_trekker.png,images/cb_trekker.png,0,,,,,,,,,,,,,,,,,,,,,,
,,,,,00101,2023-11-30_08h11.57.486,vbt_B2_day4,2022.2.4,MacIntel,60.0024001,,,,,,down,0,0.0005,,0.608854167,-0.023029514,1,0,0,0,175,175,97,1,loyaal,images/br_loyaal.png,images/cb_loyaal.png,0,,,,,,,,,,,,,,,,,,,,,,
,,,,,00101,2023-11-30_08h11.57.486,vbt_B2_day4,2022.2.4,MacIntel,60.0024001,,,,,,down,0,0.0007,,0.608854167,-0.023029514,1,0,0,0,176,176,0,1,slak,images/br_slak.png,images/cb_slak.png,0,,,,,,,,,,,,,,,,,,,,,,
,,,,,00101,2023-11-30_08h11.57.486,vbt_B2_day4,2022.2.4,MacIntel,60.0024001,,,,,,down,0,0.1702,,0.608854167,-0.023029514,1,0,0,0,177,177,35,1,lust,images/br_lust.png,images/cb_lust.png,0,,,,,,,,,,,,,,,,,,,,,,
,,,,,00101,2023-11-30_08h11.57.486,vbt_B2_day4,2022.2.4,MacIntel,60.0024001,,,,,,down,0,5.4274,,0.608854167,-0.023029514,1,0,0,0,178,178,130,1,keihard,images/br_keihard.png,images/cb_keihard.png,0,,,,,,,,,,,,,,,,,,,,,,
,,,,,00101,2023-11-30_08h11.57.486,vbt_B2_day4,2022.2.4,MacIntel,60.0024001,,,,,,down,0,1.3564,,0.608854167,-0.023029514,1,0,0,0,179,179,128,1,prikken,images/br_prikken.png,images/cb_prikken.png,0,,,,,,,,,,,,,,,,,,,,,,
,,,,,00101,2023-11-30_08h11.57.486,vbt_B2_day4,2022.2.4,MacIntel,60.0024001,,,,,,down,0,0.0546,,0.608854167,-0.023029514,1,0,0,0,180,180,45,1,piste,images/br_piste.png,images/cb_piste.png,0,,,,,,,,,,,,,,,,,,,,,,
,,,,,00101,2023-11-30_08h11.57.486,vbt_B2_day4,2022.2.4,MacIntel,60.0024001,,,,,,down,0,0.8398,,0.608854167,-0.023029514,1,0,0,0,181,181,164,1,anarchie,images/br_anarchie.png,images/cb_anarchie.png,0,,,,,,,,,,,,,,,,,,,,,,
,,,,,00101,2023-11-30_08h11.57.486,vbt_B2_day4,2022.2.4,MacIntel,60.0024001,,,,,,down,0,0.3201,,0.608854167,-0.023029514,1,0,0,0,182,182,171,1,aarzelen,images/br_aarzelen.png,images/cb_aarzelen.png,0,,,,,,,,,,,,,,,,,,,,,,
,,,,,00101,2023-11-30_08h11.57.486,vbt_B2_day4,2022.2.4,MacIntel,60.0024001,,,,,,down,0,0.0728,,0.608854167,-0.023029514,1,0,0,0,183,183,39,1,laag,images/br_laag.png,images/cb_laag.png,0,,,,,,,,,,,,,,,,,,,,,,
,,,,,00101,2023-11-30_08h11.57.486,vbt_B2_day4,2022.2.4,MacIntel,60.0024001,,,,,,down,0,3.4254,,0.608854167,-0.023029514,1,0,0,0,184,184,155,1,gerucht,images/br_gerucht.png,images/cb_gerucht.png,0,,,,,,,,,,,,,,,,,,,,,,
,,,,,00101,2023-11-30_08h11.57.486,vbt_B2_day4,2022.2.4,MacIntel,60.0024001,,,,,,down,0,0.2171,,0.608854167,-0.023029514,1,0,0,0,185,185,16,1,ziek,images/br_ziek.png,images/cb_ziek.png,0,,,,,,,,,,,,,,,,,,,,,,
,,,,,00101,2023-11-30_08h11.57.486,vbt_B2_day4,2022.2.4,MacIntel,60.0024001,,,,,,down,0,0.1339,,0.608854167,-0.023029514,1,0,0,0,186,186,10,1,leek,images/br_leek.png,images/cb_leek.png,0,,,,,,,,,,,,,,,,,,,,,,
,,,,,00101,2023-11-30_08h11.57.486,vbt_B2_day4,2022.2.4,MacIntel,60.0024001,,,,,,down,0,0.25,,0.608854167,-0.023029514,1,0,0,0,187,187,17,1,taal,images/br_taal.png,images/cb_taal.png,0,,,,,,,,,,,,,,,,,,,,,,
,,,,,00101,2023-11-30_08h11.57.486,vbt_B2_day4,2022.2.4,MacIntel,60.0024001,,,,,,down,0,3.8066,,0.608854167,-0.023029514,1,0,0,0,188,188,83,1,mening,images/br_mening.png,images/cb_mening.png,0,,,,,,,,,,,,,,,,,,,,,,
,,,,,00101,2023-11-30_08h11.57.486,vbt_B2_day4,2022.2.4,MacIntel,60.0024001,,,,,,down,0,0.0745,,0.608854167,-0.023029514,1,0,0,0,189,189,54,1,gebit,images/br_gebit.png,images/cb_gebit.png,0,,,,,,,,,,,,,,,,,,,,,,
,,,,,00101,2023-11-30_08h11.57.486,vbt_B2_day4,2022.2.4,MacIntel,60.0024001,,,,,,down,0,0.0485,,0.608854167,-0.023029514,1,0,0,0,190,190,47,1,kabel,images/br_kabel.png,images/cb_kabel.png,0,,,,,,,,,,,,,,,,,,,,,,
,,,,,00101,2023-11-30_08h11.57.486,vbt_B2_day4,2022.2.4,MacIntel,60.0024001,,,,,,down,0,0.1144,,0.608854167,-0.023029514,1,0,0,0,191,191,6,1,diep,images/br_diep.png,images/cb_diep.png,0,,,,,,,,,,,,,,,,,,,,,,
,,,,,00101,2023-11-30_08h11.57.486,vbt_B2_day4,2022.2.4,MacIntel,60.0024001,,,,,,down,0,18.2688,,0.608854167,-0.023029514,1,0,0,0,192,192,78,1,leren,images/br_leren.png,images/cb_leren.png,0,,,,,,,,,,,,,,,,,,,,,,
,,,,,00101,2023-11-30_08h11.57.486,vbt_B2_day4,2022.2.4,MacIntel,60.0024001,,,,,,down,0,12.1579,,0.608854167,-0.023029514,1,0,0,0,193,193,161,1,attentie,images/br_attentie.png,images/cb_attentie.png,0,,,,,,,,,,,,,,,,,,,,,,
,,,,,00101,2023-11-30_08h11.57.486,vbt_B2_day4,2022.2.4,MacIntel,60.0024001,,,,,,down,0,12.4032,,0.608854167,-0.023029514,1,0,0,0,194,194,37,1,mijn,images/br_mijn.png,images/cb_mijn.png,0,,,,,,,,,,,,,,,,,,,,,,
,,,,,00101,2023-11-30_08h11.57.486,vbt_B2_day4,2022.2.4,MacIntel,60.0024001,,,,,,down,0,1.0501,,0.608854167,-0.023029514,1,0,0,0,195,195,74,1,graaf,images/br_graaf.png,images/cb_graaf.png,0,,,,,,,,,,,,,,,,,,,,,,
,,,,,00101,2023-11-30_08h11.57.486,vbt_B2_day4,2022.2.4,MacIntel,60.0024001,,,,,,down,0,3.0845,,0.608854167,-0.023029514,1,0,0,0,196,196,106,1,zingen,images/br_zingen.png,images/cb_zingen.png,1,zingen,,,,,,,,,,,,,,,,,,,,,
,,,,,00101,2023-11-30_08h11.57.486,vbt_B2_day4,2022.2.4,MacIntel,60.0024001,,,,,,down,0,12.6213,,0.608854167,-0.023029514,1,0,0,0,197,197,69,1,waken,images/br_waken.png,images/cb_waken.png,0,,,,,,,,,,,,,,,,,,,,,,
,,,,,00101,2023-11-30_08h11.57.486,vbt_B2_day4,2022.2.4,MacIntel,60.0024001,,,,,,down,0,4.0367,,0.608854167,-0.023029514,1,0,0,0,198,198,144,1,eetlust,images/br_eetlust.png,images/cb_eetlust.png,1,eetlust,,,,,,,,,,,,,,,,,,,,,
,,,,,00101,2023-11-30_08h11.57.486,vbt_B2_day4,2022.2.4,MacIntel,60.0024001,,,,,,down,0,6.3332,,0.608854167,-0.023029514,1,0,0,0,199,199,124,1,bloeien,images/br_bloeien.png,images/cb_bloeien.png,0,,,,,,,,,,,,,,,,,,,,,,
,,,,,00101,2023-11-30_08h11.57.486,vbt_B2_day4,2022.2.4,MacIntel,60.0024001,,,,,,,,,,,,,,,,,,,,,,,,,0.608854167,-0.023029514,1,0,0,,,,,,,,,,,,,,,,
,,,,,00101,2023-11-30_08h11.57.486,vbt_B2_day4,2022.2.4,MacIntel,60.0024001,,,,,,,,,,,,,,,,,,,,,,,,,,,,,,0.608854167,-0.023029514,1,0,0,,,,,,,,,,,
,,,,,00101,2023-11-30_08h11.57.486,vbt_B2_day4,2022.2.4,MacIntel,60.0024001,,,,,,,,,,,,,,,,,,,,gedicht,images/br_gedicht.png,images/cb_gedicht.png,,gedicht,,,,,,,,,,,0.608854167,-0.023029514,1,0,0,gedicht,0,0,0,15,1
,,,,,00101,2023-11-30_08h11.57.486,vbt_B2_day4,2022.2.4,MacIntel,60.0024001,,,,,,,,,,,,,,,,,,,,soda,images/br_soda.png,images/cb_soda.png,,soda,,,,,,,,,,,0.608854167,-0.023029514,1,0,0,soda,0,1,1,3,1
,,,,,00101,2023-11-30_08h11.57.486,vbt_B2_day4,2022.2.4,MacIntel,60.0024001,,,,,,,,,,,,,,,,,,,,seizoen,images/br_seizoen.png,images/cb_seizoen.png,,seizoen,,,,,,,,,,,0.608854167,-0.023029514,1,0,0,seizoen,0,2,2,13,1
,,,,,00101,2023-11-30_08h11.57.486,vbt_B2_day4,2022.2.4,MacIntel,60.0024001,,,,,,,,,,,,,,,,,,,,weigeren,images/br_weigeren.png,images/cb_weigeren.png,,weigeren,,,,,,,,,,,0.608854167,-0.023029514,1,0,0,weigeren,0,3,3,16,1
,,,,,00101,2023-11-30_08h11.57.486,vbt_B2_day4,2022.2.4,MacIntel,60.0024001,,,,,,,,,,,,,,,,,,,,schenden,images/br_schenden.png,images/cb_schenden.png,,schenden,,,,,,,,,,,0.608854167,-0.023029514,1,0,0,schenden,0,4,4,57,1
,,,,,00101,2023-11-30_08h11.57.486,vbt_B2_day4,2022.2.4,MacIntel,60.0024001,,,,,,,,,,,,,,,,,,,,zaalrijk,images/br_zaalrijk.png,images/cb_zaalrijk.png,,zaaltijd,,,,,,,,,,,0.608854167,-0.023029514,1,0,0,zaaltijd,0,5,5,37,1
,,,,,00101,2023-11-30_08h11.57.486,vbt_B2_day4,2022.2.4,MacIntel,60.0024001,,,,,,,,,,,,,,,,,,,,schotel,images/br_schotel.png,images/cb_schotel.png,,schotel,,,,,,,,,,,0.608854167,-0.023029514,1,0,0,schotel,0,6,6,52,1
,,,,,00101,2023-11-30_08h11.57.486,vbt_B2_day4,2022.2.4,MacIntel,60.0024001,,,,,,,,,,,,,,,,,,,,steen,images/br_steen.png,images/cb_steen.png,,steen,,,,,,,,,,,0.608854167,-0.023029514,1,0,0,steen,0,7,7,44,1
,,,,,00101,2023-11-30_08h11.57.486,vbt_B2_day4,2022.2.4,MacIntel,60.0024001,,,,,,,,,,,,,,,,,,,,paalbaak,images/br_paalbaak.png,images/cb_paalbaak.png,,paalbak,,,,,,,,,,,0.608854167,-0.023029514,1,0,0,paalbak,0,8,8,39,1
,,,,,00101,2023-11-30_08h11.57.486,vbt_B2_day4,2022.2.4,MacIntel,60.0024001,,,,,,,,,,,,,,,,,,,,vreten,images/br_vreten.png,images/cb_vreten.png,,vreten,,,,,,,,,,,0.608854167,-0.023029514,1,0,0,vreten,0,9,9,11,1
,,,,,00101,2023-11-30_08h11.57.486,vbt_B2_day4,2022.2.4,MacIntel,60.0024001,,,,,,,,,,,,,,,,,,,,broodje,images/br_broodje.png,images/cb_broodje.png,,broodje,,,,,,,,,,,0.608854167,-0.023029514,1,0,0,broodje,0,10,10,55,1
,,,,,00101,2023-11-30_08h11.57.486,vbt_B2_day4,2022.2.4,MacIntel,60.0024001,,,,,,,,,,,,,,,,,,,,oceaan,images/br_oceaan.png,images/cb_oceaan.png,,oceaan,,,,,,,,,,,0.608854167,-0.023029514,1,0,0,oceaan,0,11,11,10,1
,,,,,00101,2023-11-30_08h11.57.486,vbt_B2_day4,2022.2.4,MacIntel,60.0024001,,,,,,,,,,,,,,,,,,,,geheim,images/br_geheim.png,images/cb_geheim.png,,geheim,,,,,,,,,,,0.608854167,-0.023029514,1,0,0,geheim,0,12,12,8,1
,,,,,00101,2023-11-30_08h11.57.486,vbt_B2_day4,2022.2.4,MacIntel,60.0024001,,,,,,,,,,,,,,,,,,,,eerst,images/br_eerst.png,images/cb_eerst.png,,eerst,,,,,,,,,,,0.608854167,-0.023029514,1,0,0,eerst,0,13,13,47,1
,,,,,00101,2023-11-30_08h11.57.486,vbt_B2_day4,2022.2.4,MacIntel,60.0024001,,,,,,,,,,,,,,,,,,,,dalen,images/br_dalen.png,images/cb_dalen.png,,dalen,,,,,,,,,,,0.608854167,-0.023029514,1,0,0,dalen,0,14,14,46,1
,,,,,00101,2023-11-30_08h11.57.486,vbt_B2_day4,2022.2.4,MacIntel,60.0024001,,,,,,,,,,,,,,,,,,,,kaal,images/br_kaal.png,images/cb_kaal.png,,kaal,,,,,,,,,,,0.608854167,-0.023029514,1,0,0,kaal,0,15,15,1,1
,,,,,00101,2023-11-30_08h11.57.486,vbt_B2_day4,2022.2.4,MacIntel,60.0024001,,,,,,,,,,,,,,,,,,,,wagon,images/br_wagon.png,images/cb_wagon.png,,wagon,,,,,,,,,,,0.608854167,-0.023029514,1,0,0,wagon,0,16,16,4,1
,,,,,00101,2023-11-30_08h11.57.486,vbt_B2_day4,2022.2.4,MacIntel,60.0024001,,,,,,,,,,,,,,,,,,,,sulbon,images/br_sulbon.png,images/cb_sulbon.png,,sulbon,,,,,,,,,,,0.608854167,-0.023029514,1,0,0,sulbon,0,17,17,31,1
,,,,,00101,2023-11-30_08h11.57.486,vbt_B2_day4,2022.2.4,MacIntel,60.0024001,,,,,,,,,,,,,,,,,,,,pijnlijk,images/br_pijnlijk.png,images/cb_pijnlijk.png,,pijnlijk,,,,,,,,,,,0.608854167,-0.023029514,1,0,0,pijnlijk,0,18,18,58,1
,,,,,00101,2023-11-30_08h11.57.486,vbt_B2_day4,2022.2.4,MacIntel,60.0024001,,,,,,,,,,,,,,,,,,,,heengaan,images/br_heengaan.png,images/cb_heengaan.png,,heengaan,,,,,,,,,,,0.608854167,-0.023029514,1,0,0,heengaan,0,19,19,19,1
,,,,,00101,2023-11-30_08h11.57.486,vbt_B2_day4,2022.2.4,MacIntel,60.0024001,,,,,,,,,,,,,,,,,,,,seizoon,images/br_seizoon.png,images/cb_seizoon.png,,seizoen,,,,,,,,,,,0.608854167,-0.023029514,1,0,0,seizoen,0,20,20,33,1
,,,,,00101,2023-11-30_08h11.57.486,vbt_B2_day4,2022.2.4,MacIntel,60.0024001,,,,,,,,,,,,,,,,,,,,ezel,images/br_ezel.png,images/cb_ezel.png,,ezel,,,,,,,,,,,0.608854167,-0.023029514,1,0,0,ezel,0,21,21,42,1
,,,,,00101,2023-11-30_08h11.57.486,vbt_B2_day4,2022.2.4,MacIntel,60.0024001,,,,,,,,,,,,,,,,,,,,pittig,images/br_pittig.png,images/cb_pittig.png,,pittig,,,,,,,,,,,0.608854167,-0.023029514,1,0,0,pittig,0,22,22,51,1
,,,,,00101,2023-11-30_08h11.57.486,vbt_B2_day4,2022.2.4,MacIntel,60.0024001,,,,,,,,,,,,,,,,,,,,rijp,images/br_rijp.png,images/cb_rijp.png,,rijp,,,,,,,,,,,0.608854167,-0.023029514,1,0,0,rijp,0,23,23,2,1
,,,,,00101,2023-11-30_08h11.57.486,vbt_B2_day4,2022.2.4,MacIntel,60.0024001,,,,,,,,,,,,,,,,,,,,toevol,images/br_toevol.png,images/cb_toevol.png,,toeval,,,,,,,,,,,0.608854167,-0.023029514,1,0,0,toeval,0,24,24,29,1
,,,,,00101,2023-11-30_08h11.57.486,vbt_B2_day4,2022.2.4,MacIntel,60.0024001,,,,,,,,,,,,,,,,,,,,stemming,images/br_stemming.png,images/cb_stemming.png,,stemming,,,,,,,,,,,0.608854167,-0.023029514,1,0,0,stemming,0,25,25,18,1
,,,,,00101,2023-11-30_08h11.57.486,vbt_B2_day4,2022.2.4,MacIntel,60.0024001,,,,,,,,,,,,,,,,,,,,lappen,images/br_lappen.png,images/cb_lappen.png,,lappen,,,,,,,,,,,0.608854167,-0.023029514,1,0,0,lappen,0,26,26,49,1
,,,,,00101,2023-11-30_08h11.57.486,vbt_B2_day4,2022.2.4,MacIntel,60.0024001,,,,,,,,,,,,,,,,,,,,strok,images/br_strok.png,images/cb_strok.png,,strok,,,,,,,,,,,0.608854167,-0.023029514,1,0,0,strok,0,27,27,25,1
,,,,,00101,2023-11-30_08h11.57.486,vbt_B2_day4,2022.2.4,MacIntel,60.0024001,,,,,,,,,,,,,,,,,,,,midden,images/br_midden.png,images/cb_midden.png,,midden,,,,,,,,,,,0.608854167,-0.023029514,1,0,0,midden,0,28,28,50,1
,,,,,00101,2023-11-30_08h11.57.486,vbt_B2_day4,2022.2.4,MacIntel,60.0024001,,,,,,,,,,,,,,,,,,,,mekst,images/br_mekst.png,images/cb_mekst.png,,mekst,,,,,,,,,,,0.608854167,-0.023029514,1,0,0,mekst,0,29,29,27,1
,,,,,00101,2023-11-30_08h11.57.486,vbt_B2_day4,2022.2.4,MacIntel,60.0024001,,,,,,,,,,,,,,,,,,,,aanzwaag,images/br_aanzwaag.png,images/cb_aanzwaag.png,,aanz.aag,,,,,,,,,,,0.608854167,-0.023029514,1,0,0,aanz.aag,0,30,30,38,1
,,,,,00101,2023-11-30_08h11.57.486,vbt_B2_day4,2022.2.4,MacIntel,60.0024001,,,,,,,,,,,,,,,,,,,,opkicht,images/br_opkicht.png,images/cb_opkicht.png,,opkocht,,,,,,,,,,,0.608854167,-0.023029514,1,0,0,opkocht,0,31,31,34,1
,,,,,00101,2023-11-30_08h11.57.486,vbt_B2_day4,2022.2.4,MacIntel,60.0024001,,,,,,,,,,,,,,,,,,,,wozing,images/br_wozing.png,images/cb_wozing.png,,wozing,,,,,,,,,,,0.608854167,-0.023029514,1,0,0,wozing,0,32,32,28,1
,,,,,00101,2023-11-30_08h11.57.486,vbt_B2_day4,2022.2.4,MacIntel,60.0024001,,,,,,,,,,,,,,,,,,,,waarop,images/br_waarop.png,images/cb_waarop.png,,waarop,,,,,,,,,,,0.608854167,-0.023029514,1,0,0,waarop,0,33,33,9,1
,,,,,00101,2023-11-30_08h11.57.486,vbt_B2_day4,2022.2.4,MacIntel,60.0024001,,,,,,,,,,,,,,,,,,,,bruin,images/br_bruin.png,images/cb_bruin.png,,bruin,,,,,,,,,,,0.608854167,-0.023029514,1,0,0,bruin,0,34,34,45,1
,,,,,00101,2023-11-30_08h11.57.486,vbt_B2_day4,2022.2.4,MacIntel,60.0024001,,,,,,,,,,,,,,,,,,,,geliefd,images/br_geliefd.png,images/cb_geliefd.png,,geliefd,,,,,,,,,,,0.608854167,-0.023029514,1,0,0,geliefd,0,35,35,14,1
,,,,,00101,2023-11-30_08h11.57.486,vbt_B2_day4,2022.2.4,MacIntel,60.0024001,,,,,,,,,,,,,,,,,,,,snee,images/br_snee.png,images/cb_snee.png,,snee,,,,,,,,,,,0.608854167,-0.023029514,1,0,0,snee,0,36,36,40,1
,,,,,00101,2023-11-30_08h11.57.486,vbt_B2_day4,2022.2.4,MacIntel,60.0024001,,,,,,,,,,,,,,,,,,,,opruimen,images/br_opruimen.png,images/cb_opruimen.png,,opruimen,,,,,,,,,,,0.608854167,-0.023029514,1,0,0,opruimen,0,37,37,59,1
,,,,,00101,2023-11-30_08h11.57.486,vbt_B2_day4,2022.2.4,MacIntel,60.0024001,,,,,,,,,,,,,,,,,,,,gebog,images/br_gebog.png,images/cb_gebog.png,,gebog,,,,,,,,,,,0.608854167,-0.023029514,1,0,0,gebog,0,38,38,24,1
,,,,,00101,2023-11-30_08h11.57.486,vbt_B2_day4,2022.2.4,MacIntel,60.0024001,,,,,,,,,,,,,,,,,,,,drooien,images/br_drooien.png,images/cb_drooien.png,,drooien,,,,,,,,,,,0.608854167,-0.023029514,1,0,0,drooien,0,39,39,32,1
,,,,,00101,2023-11-30_08h11.57.486,vbt_B2_day4,2022.2.4,MacIntel,60.0024001,,,,,,,,,,,,,,,,,,,,warel,images/br_warel.png,images/cb_warel.png,,warel,,,,,,,,,,,0.608854167,-0.023029514,1,0,0,warel,0,40,40,26,1
,,,,,00101,2023-11-30_08h11.57.486,vbt_B2_day4,2022.2.4,MacIntel,60.0024001,,,,,,,,,,,,,,,,,,,,gebit,images/br_gebit.png,images/cb_gebit.png,,gebit,,,,,,,,,,,0.608854167,-0.023029514,1,0,0,gebit,0,41,41,6,1
,,,,,00101,2023-11-30_08h11.57.486,vbt_B2_day4,2022.2.4,MacIntel,60.0024001,,,,,,,,,,,,,,,,,,,,zwek,images/br_zwek.png,images/cb_zwek.png,,zwek,,,,,,,,,,,0.608854167,-0.023029514,1,0,0,zwek,0,42,42,20,1
,,,,,00101,2023-11-30_08h11.57.486,vbt_B2_day4,2022.2.4,MacIntel,60.0024001,,,,,,,,,,,,,,,,,,,,praat,images/br_praat.png,images/cb_praat.png,,praat,,,,,,,,,,,0.608854167,-0.023029514,1,0,0,praat,0,43,43,7,1
,,,,,00101,2023-11-30_08h11.57.486,vbt_B2_day4,2022.2.4,MacIntel,60.0024001,,,,,,,,,,,,,,,,,,,,getucht,images/br_getucht.png,images/cb_getucht.png,,getucht,,,,,,,,,,,0.608854167,-0.023029514,1,0,0,getucht,0,44,44,35,1
,,,,,00101,2023-11-30_08h11.57.486,vbt_B2_day4,2022.2.4,MacIntel,60.0024001,,,,,,,,,,,,,,,,,,,,noodzaak,images/br_noodzaak.png,images/cb_noodzaak.png,,naadzaal,,,,,,,,,,,0.608854167,-0.023029514,1,0,0,naadzaal,0,45,45,56,1
,,,,,00101,2023-11-30_08h11.57.486,vbt_B2_day4,2022.2.4,MacIntel,60.0024001,,,,,,,,,,,,,,,,,,,,baron,images/br_baron.png,images/cb_baron.png,,baron,,,,,,,,,,,0.608854167,-0.023029514,1,0,0,baron,0,46,46,5,1
,,,,,00101,2023-11-30_08h11.57.486,vbt_B2_day4,2022.2.4,MacIntel,60.0024001,,,,,,,,,,,,,,,,,,,,gijf,images/br_gijf.png,images/cb_gijf.png,,gijf,,,,,,,,,,,0.608854167,-0.023029514,1,0,0,gijf,0,47,47,23,1
,,,,,00101,2023-11-30_08h11.57.486,vbt_B2_day4,2022.2.4,MacIntel,60.0024001,,,,,,,,,,,,,,,,,,,,apparaat,images/br_apparaat.png,images/cb_apparaat.png,,apparaat,,,,,,,,,,,0.608854167,-0.023029514,1,0,0,apparaat,0,48,48,17,1
,,,,,00101,2023-11-30_08h11.57.486,vbt_B2_day4,2022.2.4,MacIntel,60.0024001,,,,,,,,,,,,,,,,,,,,tucket,images/br_tucket.png,images/cb_tucket.png,,....et,,,,,,,,,,,0.608854167,-0.023029514,1,0,0,....et,0,49,49,30,1
,,,,,00101,2023-11-30_08h11.57.486,vbt_B2_day4,2022.2.4,MacIntel,60.0024001,,,,,,,,,,,,,,,,,,,,bisschap,images/br_bisschap.png,images/cb_bisschap.png,,bisschop,,,,,,,,,,,0.608854167,-0.023029514,1,0,0,bisschop,0,50,50,36,1
,,,,,00101,2023-11-30_08h11.57.486,vbt_B2_day4,2022.2.4,MacIntel,60.0024001,,,,,,,,,,,,,,,,,,,,kust,images/br_kust.png,images/cb_kust.png,,kust,,,,,,,,,,,0.608854167,-0.023029514,1,0,0,kust,0,51,51,0,1
,,,,,00101,2023-11-30_08h11.57.486,vbt_B2_day4,2022.2.4,MacIntel,60.0024001,,,,,,,,,,,,,,,,,,,,fran,images/br_fran.png,images/cb_fran.png,,bran,,,,,,,,,,,0.608854167,-0.023029514,1,0,0,bran,0,52,52,22,1
,,,,,00101,2023-11-30_08h11.57.486,vbt_B2_day4,2022.2.4,MacIntel,60.0024001,,,,,,,,,,,,,,,,,,,,flippen,images/br_flippen.png,images/cb_flippen.png,,flippen,,,,,,,,,,,0.608854167,-0.023029514,1,0,0,flippen,0,53,53,54,1
,,,,,00101,2023-11-30_08h11.57.486,vbt_B2_day4,2022.2.4,MacIntel,60.0024001,,,,,,,,,,,,,,,,,,,,dozijn,images/br_dozijn.png,images/cb_dozijn.png,,dozijn,,,,,,,,,,,0.608854167,-0.023029514,1,0,0,dozijn,0,54,54,48,1
,,,,,00101,2023-11-30_08h11.57.486,vbt_B2_day4,2022.2.4,MacIntel,60.0024001,,,,,,,,,,,,,,,,,,,,drummer,images/br_drummer.png,images/cb_drummer.png,,drummer,,,,,,,,,,,0.610130208,-0.023793403,1,0,0,drummer,0,55,55,53,1
,,,,,00101,2023-11-30_08h11.57.486,vbt_B2_day4,2022.2.4,MacIntel,60.0024001,,,,,,,,,,,,,,,,,,,,gaaf,images/br_gaaf.png,images/cb_gaaf.png,,gaaf,,,,,,,,,,,0.605711806,-0.022074653,1,0,0,gaaf,0,56,56,43,1
,,,,,00101,2023-11-30_08h11.57.486,vbt_B2_day4,2022.2.4,MacIntel,60.0024001,,,,,,,,,,,,,,,,,,,,haza,images/br_haza.png,images/cb_haza.png,,haza,,,,,,,,,,,0.605711806,-0.022074653,1,0,0,haza,0,57,57,21,1
,,,,,00101,2023-11-30_08h11.57.486,vbt_B2_day4,2022.2.4,MacIntel,60.0024001,,,,,,,,,,,,,,,,,,,,grappen,images/br_grappen.png,images/cb_grappen.png,,grappen,,,,,,,,,,,0.605711806,-0.022074653,1,0,0,grappen,0,58,58,12,1
,,,,,00101,2023-11-30_08h11.57.486,vbt_B2_day4,2022.2.4,MacIntel,60.0024001,,,,,,,,,,,,,,,,,,,,gaan,images/br_gaan.png,images/cb_gaan.png,,gaan,,,,,,,,,,,0.607243924,-0.022582465,1,0,0,gaan,0,59,59,41,1
,,,,,00101,2023-11-30_08h11.57.486,vbt_B2_day4,2022.2.4,MacIntel,60.0024001,,,,,,,,,,,,,,,,,,,,,,,,,,,,,,,,,,,,,,,,,,,,,
