welcome_mouse.x,welcome_mouse.y,welcome_mouse.leftButton,welcome_mouse.midButton,welcome_mouse.rightButton,"ID",date,expName,psychopyVersion,OS,frameRate,trainInstr_mouse.x,trainInstr_mouse.y,trainInstr_mouse.leftButton,trainInstr_mouse.midButton,trainInstr_mouse.rightButton,translation_key.keys,translation_key.corr,translation_key.rt,word_rsp.text,trWrd_mouse.x,trWrd_mouse.y,trWrd_mouse.leftButton,trWrd_mouse.midButton,trWrd_mouse.rightButton,train_loop.thisRepN,train_loop.thisTrialN,train_loop.thisN,train_loop.thisIndex,train_loop.ran,nlWrd,brWrd,cbWrd,test,testResp,mouse.x,mouse.y,mouse.leftButton,mouse.midButton,mouse.rightButton,testInstr_mouse.x,testInstr_mouse.y,testInstr_mouse.leftButton,testInstr_mouse.midButton,testInstr_mouse.rightButton,test_mouse.x,test_mouse.y,test_mouse.leftButton,test_mouse.midButton,test_mouse.rightButton,test_response.text,test_loop.thisRepN,test_loop.thisTrialN,test_loop.thisN,test_loop.thisIndex,test_loop.ran
-0.167018229,-0.134982639,1,0,0,00047,2023-10-20_19h47.53.997,vbt_B2_day4,2022.2.4,MacIntel,59.99880002,,,,,,,,,,,,,,,,,,,,,,,,,,,,,,,,,,,,,,,,,,,,,
,,,,,00047,2023-10-20_19h47.53.997,vbt_B2_day4,2022.2.4,MacIntel,59.99880002,-0.498372396,-0.040421007,1,0,0,,,,,,,,,,,,,,,,,,,,,,,,,,,,,,,,,,,,,,,,
,,,,,00047,2023-10-20_19h47.53.997,vbt_B2_day4,2022.2.4,MacIntel,59.99880002,,,,,,down,0,5.4152,,-0.498372396,-0.040421007,1,0,0,0,0,0,198,1,bedoelen,images/br_bedoelen.png,images/cb_bedoelen.png,0,,,,,,,,,,,,,,,,,,,,,,
,,,,,00047,2023-10-20_19h47.53.997,vbt_B2_day4,2022.2.4,MacIntel,59.99880002,,,,,,down,0,0.2589,,-0.498372396,-0.040421007,1,0,0,0,1,1,138,1,akkoord,images/br_akkoord.png,images/cb_akkoord.png,0,,,,,,,,,,,,,,,,,,,,,,
,,,,,00047,2023-10-20_19h47.53.997,vbt_B2_day4,2022.2.4,MacIntel,59.99880002,,,,,,down,0,1.2507,,-0.498372396,-0.040421007,1,0,0,0,2,2,161,1,attentie,images/br_attentie.png,images/cb_attentie.png,0,,,,,,,,,,,,,,,,,,,,,,
,,,,,00047,2023-10-20_19h47.53.997,vbt_B2_day4,2022.2.4,MacIntel,59.99880002,,,,,,down,0,0.2181,,-0.498372396,-0.040421007,1,0,0,0,3,3,55,1,praat,images/br_praat.png,images/cb_praat.png,0,,,,,,,,,,,,,,,,,,,,,,
,,,,,00047,2023-10-20_19h47.53.997,vbt_B2_day4,2022.2.4,MacIntel,59.99880002,,,,,,down,0,0.2517,,-0.498372396,-0.040421007,1,0,0,0,4,4,32,1,palm,images/br_palm.png,images/cb_palm.png,0,,,,,,,,,,,,,,,,,,,,,,
,,,,,00047,2023-10-20_19h47.53.997,vbt_B2_day4,2022.2.4,MacIntel,59.99880002,,,,,,down,0,10.5226,,-0.520212674,-0.077695313,1,0,0,0,5,5,104,1,zweven,images/br_zweven.png,images/cb_zweven.png,1,zweven,,,,,,,,,,,,,,,,,,,,,
,,,,,00047,2023-10-20_19h47.53.997,vbt_B2_day4,2022.2.4,MacIntel,59.99880002,,,,,,down,0,3.0095,,-0.520212674,-0.077695313,1,0,0,0,6,6,175,1,heengaan,images/br_heengaan.png,images/cb_heengaan.png,0,,,,,,,,,,,,,,,,,,,,,,
,,,,,00047,2023-10-20_19h47.53.997,vbt_B2_day4,2022.2.4,MacIntel,59.99880002,,,,,,down,0,2.9665,,-0.520212674,-0.077695313,1,0,0,0,7,7,58,1,tekst,images/br_tekst.png,images/cb_tekst.png,0,,,,,,,,,,,,,,,,,,,,,,
,,,,,00047,2023-10-20_19h47.53.997,vbt_B2_day4,2022.2.4,MacIntel,59.99880002,,,,,,down,0,0.2359,,-0.520212674,-0.077695313,1,0,0,0,8,8,150,1,gegeven,images/br_gegeven.png,images/cb_gegeven.png,0,,,,,,,,,,,,,,,,,,,,,,
,,,,,00047,2023-10-20_19h47.53.997,vbt_B2_day4,2022.2.4,MacIntel,59.99880002,,,,,,down,0,1.06,,-0.520212674,-0.077695313,1,0,0,0,9,9,18,1,blik,images/br_blik.png,images/cb_blik.png,0,,,,,,,,,,,,,,,,,,,,,,
,,,,,00047,2023-10-20_19h47.53.997,vbt_B2_day4,2022.2.4,MacIntel,59.99880002,,,,,,down,0,2.2492,,-0.520212674,-0.077695313,1,0,0,0,10,10,142,1,snuiven,images/br_snuiven.png,images/cb_snuiven.png,0,,,,,,,,,,,,,,,,,,,,,,
,,,,,00047,2023-10-20_19h47.53.997,vbt_B2_day4,2022.2.4,MacIntel,59.99880002,,,,,,down,0,11.4269,,-0.517460937,-0.102712674,1,0,0,0,11,11,21,1,mist,images/br_mist.png,images/cb_mist.png,0,,,,,,,,,,,,,,,,,,,,,,
,,,,,00047,2023-10-20_19h47.53.997,vbt_B2_day4,2022.2.4,MacIntel,59.99880002,,,,,,down,0,4.8337,,-0.517460937,-0.102712674,1,0,0,0,12,12,190,1,goedkoop,images/br_goedkoop.png,images/cb_goedkoop.png,0,,,,,,,,,,,,,,,,,,,,,,
,,,,,00047,2023-10-20_19h47.53.997,vbt_B2_day4,2022.2.4,MacIntel,59.99880002,,,,,,down,0,1.7174,,-0.517460937,-0.102712674,1,0,0,0,13,13,125,1,aanzien,images/br_aanzien.png,images/cb_aanzien.png,0,,,,,,,,,,,,,,,,,,,,,,
,,,,,00047,2023-10-20_19h47.53.997,vbt_B2_day4,2022.2.4,MacIntel,59.99880002,,,,,,down,0,0.7536,,-0.517460937,-0.102712674,1,0,0,0,14,14,4,1,moes,images/br_moes.png,images/cb_moes.png,0,,,,,,,,,,,,,,,,,,,,,,
,,,,,00047,2023-10-20_19h47.53.997,vbt_B2_day4,2022.2.4,MacIntel,59.99880002,,,,,,down,0,12.9676,,-0.498980035,-0.060273437,1,0,0,0,15,15,26,1,leuk,images/br_leuk.png,images/cb_leuk.png,1,leuk,,,,,,,,,,,,,,,,,,,,,
,,,,,00047,2023-10-20_19h47.53.997,vbt_B2_day4,2022.2.4,MacIntel,59.99880002,,,,,,down,0,4.8674,,-0.498980035,-0.060273437,1,0,0,0,16,16,123,1,hiervan,images/br_hiervan.png,images/cb_hiervan.png,0,,,,,,,,,,,,,,,,,,,,,,
,,,,,00047,2023-10-20_19h47.53.997,vbt_B2_day4,2022.2.4,MacIntel,59.99880002,,,,,,down,0,1.3675,,-0.498980035,-0.060273437,1,0,0,0,17,17,22,1,stof,images/br_stof.png,images/cb_stof.png,0,,,,,,,,,,,,,,,,,,,,,,
,,,,,00047,2023-10-20_19h47.53.997,vbt_B2_day4,2022.2.4,MacIntel,59.99880002,,,,,,down,0,34.0656,,-0.498980035,-0.060273437,1,0,0,0,18,18,140,1,blijven,images/br_blijven.png,images/cb_blijven.png,0,,,,,,,,,,,,,,,,,,,,,,
,,,,,00047,2023-10-20_19h47.53.997,vbt_B2_day4,2022.2.4,MacIntel,59.99880002,,,,,,down,0,37.0025,,-0.499123264,-0.115928819,1,0,0,0,19,19,191,1,opheffen,images/br_opheffen.png,images/cb_opheffen.png,0,,,,,,,,,,,,,,,,,,,,,,
,,,,,00047,2023-10-20_19h47.53.997,vbt_B2_day4,2022.2.4,MacIntel,59.99880002,,,,,,down,0,19.3232,,-0.499123264,-0.115928819,1,0,0,0,20,20,0,1,slak,images/br_slak.png,images/cb_slak.png,0,,,,,,,,,,,,,,,,,,,,,,
,,,,,00047,2023-10-20_19h47.53.997,vbt_B2_day4,2022.2.4,MacIntel,59.99880002,,,,,,down,0,0.7538,,-0.131054687,0.020585937,1,0,0,0,21,21,13,1,kaal,images/br_kaal.png,images/cb_kaal.png,0,,,,,,,,,,,,,,,,,,,,,,
,,,,,00047,2023-10-20_19h47.53.997,vbt_B2_day4,2022.2.4,MacIntel,59.99880002,,,,,,down,0,2.6415,,-0.071740451,0.114557292,1,0,0,0,22,22,27,1,dans,images/br_dans.png,images/cb_dans.png,1,dans,,,,,,,,,,,,,,,,,,,,,
,,,,,00047,2023-10-20_19h47.53.997,vbt_B2_day4,2022.2.4,MacIntel,59.99880002,,,,,,down,0,1.0913,,-0.071740451,0.114557292,1,0,0,0,23,23,128,1,prikken,images/br_prikken.png,images/cb_prikken.png,0,,,,,,,,,,,,,,,,,,,,,,
,,,,,00047,2023-10-20_19h47.53.997,vbt_B2_day4,2022.2.4,MacIntel,59.99880002,,,,,,down,0,40.6774,,-0.071740451,0.114557292,1,0,0,0,24,24,64,1,wegen,images/br_wegen.png,images/cb_wegen.png,1,,,,,,,,,,,,,,,,,,,,,,
,,,,,00047,2023-10-20_19h47.53.997,vbt_B2_day4,2022.2.4,MacIntel,59.99880002,,,,,,down,0,2.2052,,-0.071740451,0.114557292,1,0,0,0,25,25,164,1,anarchie,images/br_anarchie.png,images/cb_anarchie.png,0,,,,,,,,,,,,,,,,,,,,,,
,,,,,00047,2023-10-20_19h47.53.997,vbt_B2_day4,2022.2.4,MacIntel,59.99880002,,,,,,down,0,1.617,,-0.071740451,0.111132812,1,0,0,0,26,26,66,1,lever,images/br_lever.png,images/cb_lever.png,1,lever,,,,,,,,,,,,,,,,,,,,,
,,,,,00047,2023-10-20_19h47.53.997,vbt_B2_day4,2022.2.4,MacIntel,59.99880002,,,,,,down,0,1.0231,,-0.071740451,0.111132812,1,0,0,0,27,27,76,1,afval,images/br_afval.png,images/cb_afval.png,0,,,,,,,,,,,,,,,,,,,,,,
,,,,,00047,2023-10-20_19h47.53.997,vbt_B2_day4,2022.2.4,MacIntel,59.99880002,,,,,,down,0,0.2009,,-0.070581597,0.108298611,1,0,0,0,28,28,89,1,slapen,images/br_slapen.png,images/cb_slapen.png,0,,,,,,,,,,,,,,,,,,,,,,
,,,,,00047,2023-10-20_19h47.53.997,vbt_B2_day4,2022.2.4,MacIntel,59.99880002,,,,,,down,0,5.3006,,-0.070581597,0.108298611,1,0,0,0,29,29,179,1,woestijn,images/br_woestijn.png,images/cb_woestijn.png,0,,,,,,,,,,,,,,,,,,,,,,
,,,,,00047,2023-10-20_19h47.53.997,vbt_B2_day4,2022.2.4,MacIntel,59.99880002,,,,,,down,0,7.0664,,-0.070581597,0.108298611,1,0,0,0,30,30,122,1,waarvan,images/br_waarvan.png,images/cb_waarvan.png,0,,,,,,,,,,,,,,,,,,,,,,
,,,,,00047,2023-10-20_19h47.53.997,vbt_B2_day4,2022.2.4,MacIntel,59.99880002,,,,,,down,0,2.1001,,-0.512760417,0.05640625,1,0,0,0,31,31,160,1,daarheen,images/br_daarheen.png,images/cb_daarheen.png,0,,,,,,,,,,,,,,,,,,,,,,
,,,,,00047,2023-10-20_19h47.53.997,vbt_B2_day4,2022.2.4,MacIntel,59.99880002,,,,,,down,0,24.8509,,-0.512760417,0.05640625,1,0,0,0,32,32,189,1,aanraden,images/br_aanraden.png,images/cb_aanraden.png,0,,,,,,,,,,,,,,,,,,,,,,
,,,,,00047,2023-10-20_19h47.53.997,vbt_B2_day4,2022.2.4,MacIntel,59.99880002,,,,,,down,0,2.1662,,-0.512760417,0.05640625,1,0,0,0,33,33,114,1,vullen,images/br_vullen.png,images/cb_vullen.png,0,,,,,,,,,,,,,,,,,,,,,,
,,,,,00047,2023-10-20_19h47.53.997,vbt_B2_day4,2022.2.4,MacIntel,59.99880002,,,,,,down,0,0.3515,,-0.512760417,0.05640625,1,0,0,0,34,34,41,1,maken,images/br_maken.png,images/cb_maken.png,0,,,,,,,,,,,,,,,,,,,,,,
,,,,,00047,2023-10-20_19h47.53.997,vbt_B2_day4,2022.2.4,MacIntel,59.99880002,,,,,,down,0,8.817,,-0.512760417,0.05640625,1,0,0,0,35,35,98,1,kreeft,images/br_kreeft.png,images/cb_kreeft.png,0,,,,,,,,,,,,,,,,,,,,,,
,,,,,00047,2023-10-20_19h47.53.997,vbt_B2_day4,2022.2.4,MacIntel,59.99880002,,,,,,down,0,8.1728,,-0.512760417,0.05640625,1,0,0,0,36,36,74,1,graaf,images/br_graaf.png,images/cb_graaf.png,0,,,,,,,,,,,,,,,,,,,,,,
,,,,,00047,2023-10-20_19h47.53.997,vbt_B2_day4,2022.2.4,MacIntel,59.99880002,,,,,,down,0,5.6381,,-0.512760417,0.05640625,1,0,0,0,37,37,80,1,kanjer,images/br_kanjer.png,images/cb_kanjer.png,0,,,,,,,,,,,,,,,,,,,,,,
,,,,,00047,2023-10-20_19h47.53.997,vbt_B2_day4,2022.2.4,MacIntel,59.99880002,,,,,,down,0,3.5175,,-0.512760417,0.05640625,1,0,0,0,38,38,165,1,feestdag,images/br_feestdag.png,images/cb_feestdag.png,0,,,,,,,,,,,,,,,,,,,,,,
,,,,,00047,2023-10-20_19h47.53.997,vbt_B2_day4,2022.2.4,MacIntel,59.99880002,,,,,,down,0,4.6926,,-0.512760417,0.05640625,1,0,0,0,39,39,130,1,keihard,images/br_keihard.png,images/cb_keihard.png,0,,,,,,,,,,,,,,,,,,,,,,
,,,,,00047,2023-10-20_19h47.53.997,vbt_B2_day4,2022.2.4,MacIntel,59.99880002,,,,,,down,0,0.6731,,-0.512760417,0.05640625,1,0,0,0,40,40,63,1,flirt,images/br_flirt.png,images/cb_flirt.png,0,,,,,,,,,,,,,,,,,,,,,,
,,,,,00047,2023-10-20_19h47.53.997,vbt_B2_day4,2022.2.4,MacIntel,59.99880002,,,,,,down,0,12.6679,,-0.512760417,0.05640625,1,0,0,0,41,41,92,1,geheim,images/br_geheim.png,images/cb_geheim.png,0,,,,,,,,,,,,,,,,,,,,,,
,,,,,00047,2023-10-20_19h47.53.997,vbt_B2_day4,2022.2.4,MacIntel,59.99880002,,,,,,down,0,4.0673,,-0.512760417,0.05640625,1,0,0,0,42,42,77,1,woede,images/br_woede.png,images/cb_woede.png,0,,,,,,,,,,,,,,,,,,,,,,
,,,,,00047,2023-10-20_19h47.53.997,vbt_B2_day4,2022.2.4,MacIntel,59.99880002,,,,,,down,0,7.8265,,-0.512760417,0.05640625,1,0,0,0,43,43,162,1,uitdelen,images/br_uitdelen.png,images/cb_uitdelen.png,0,,,,,,,,,,,,,,,,,,,,,,
,,,,,00047,2023-10-20_19h47.53.997,vbt_B2_day4,2022.2.4,MacIntel,59.99880002,,,,,,down,0,1.9428,,-0.512760417,0.05640625,1,0,0,0,44,44,73,1,volop,images/br_volop.png,images/cb_volop.png,0,,,,,,,,,,,,,,,,,,,,,,
,,,,,00047,2023-10-20_19h47.53.997,vbt_B2_day4,2022.2.4,MacIntel,59.99880002,,,,,,down,0,6.8839,,-0.512760417,0.05640625,1,0,0,0,45,45,127,1,doodmoe,images/br_doodmoe.png,images/cb_doodmoe.png,0,,,,,,,,,,,,,,,,,,,,,,
,,,,,00047,2023-10-20_19h47.53.997,vbt_B2_day4,2022.2.4,MacIntel,59.99880002,,,,,,down,0,4.8839,,-0.491770833,0.198029514,1,0,0,0,46,46,144,1,eetlust,images/br_eetlust.png,images/cb_eetlust.png,1,eetlust,,,,,,,,,,,,,,,,,,,,,
,,,,,00047,2023-10-20_19h47.53.997,vbt_B2_day4,2022.2.4,MacIntel,59.99880002,,,,,,down,0,2.6336,,-0.491770833,0.198029514,1,0,0,0,47,47,174,1,stemming,images/br_stemming.png,images/cb_stemming.png,0,,,,,,,,,,,,,,,,,,,,,,
,,,,,00047,2023-10-20_19h47.53.997,vbt_B2_day4,2022.2.4,MacIntel,59.99880002,,,,,,down,0,0.1739,,-0.491770833,0.198029514,1,0,0,0,48,48,36,1,vuur,images/br_vuur.png,images/cb_vuur.png,0,,,,,,,,,,,,,,,,,,,,,,
,,,,,00047,2023-10-20_19h47.53.997,vbt_B2_day4,2022.2.4,MacIntel,59.99880002,,,,,,down,0,0.8171,,-0.491770833,0.198029514,1,0,0,0,49,49,81,1,dubbel,images/br_dubbel.png,images/cb_dubbel.png,0,,,,,,,,,,,,,,,,,,,,,,
,,,,,00047,2023-10-20_19h47.53.997,vbt_B2_day4,2022.2.4,MacIntel,59.99880002,,,,,,down,0,5.8899,,-0.531710069,0.185590278,1,0,0,0,50,50,145,1,invloed,images/br_invloed.png,images/cb_invloed.png,1,invloed,,,,,,,,,,,,,,,,,,,,,
,,,,,00047,2023-10-20_19h47.53.997,vbt_B2_day4,2022.2.4,MacIntel,59.99880002,,,,,,down,0,0.2859,,-0.474205729,0.099908854,1,0,0,0,51,51,10,1,leek,images/br_leek.png,images/cb_leek.png,0,,,,,,,,,,,,,,,,,,,,,,
,,,,,00047,2023-10-20_19h47.53.997,vbt_B2_day4,2022.2.4,MacIntel,59.99880002,,,,,,down,0,21.1383,,-0.474257812,0.094813368,1,0,0,0,52,52,24,1,jurk,images/br_jurk.png,images/cb_jurk.png,1,,,,,,,,,,,,,,,,,,,,,,
,,,,,00047,2023-10-20_19h47.53.997,vbt_B2_day4,2022.2.4,MacIntel,59.99880002,,,,,,down,0,0.8841,,-0.474257812,0.094813368,1,0,0,0,53,53,38,1,baai,images/br_baai.png,images/cb_baai.png,0,,,,,,,,,,,,,,,,,,,,,,
,,,,,00047,2023-10-20_19h47.53.997,vbt_B2_day4,2022.2.4,MacIntel,59.99880002,,,,,,down,0,19.4902,,-0.474257812,0.101015625,1,0,0,0,54,54,166,1,strikken,images/br_strikken.png,images/cb_strikken.png,0,,,,,,,,,,,,,,,,,,,,,,
,,,,,00047,2023-10-20_19h47.53.997,vbt_B2_day4,2022.2.4,MacIntel,59.99880002,,,,,,down,0,17.2239,,-0.474257812,0.101015625,1,0,0,0,55,55,115,1,kleren,images/br_kleren.png,images/cb_kleren.png,0,,,,,,,,,,,,,,,,,,,,,,
,,,,,00047,2023-10-20_19h47.53.997,vbt_B2_day4,2022.2.4,MacIntel,59.99880002,,,,,,down,0,0.9031,,-0.474257812,0.101015625,1,0,0,0,56,56,139,1,stiekem,images/br_stiekem.png,images/cb_stiekem.png,0,,,,,,,,,,,,,,,,,,,,,,
,,,,,00047,2023-10-20_19h47.53.997,vbt_B2_day4,2022.2.4,MacIntel,59.99880002,,,,,,down,0,2.5337,,-0.474257812,0.101015625,1,0,0,0,57,57,124,1,bloeien,images/br_bloeien.png,images/cb_bloeien.png,0,,,,,,,,,,,,,,,,,,,,,,
,,,,,00047,2023-10-20_19h47.53.997,vbt_B2_day4,2022.2.4,MacIntel,59.99880002,,,,,,down,0,26.5723,,-0.474257812,0.101015625,1,0,0,0,58,58,197,1,spanning,images/br_spanning.png,images/cb_spanning.png,0,,,,,,,,,,,,,,,,,,,,,,
,,,,,00047,2023-10-20_19h47.53.997,vbt_B2_day4,2022.2.4,MacIntel,59.99880002,,,,,,down,0,3.3484,,-0.474257812,0.101015625,1,0,0,0,59,59,79,1,nodig,images/br_nodig.png,images/cb_nodig.png,0,,,,,,,,,,,,,,,,,,,,,,
,,,,,00047,2023-10-20_19h47.53.997,vbt_B2_day4,2022.2.4,MacIntel,59.99880002,,,,,,down,0,10.4027,,-0.474257812,0.101015625,1,0,0,0,60,60,14,1,rijp,images/br_rijp.png,images/cb_rijp.png,0,,,,,,,,,,,,,,,,,,,,,,
,,,,,00047,2023-10-20_19h47.53.997,vbt_B2_day4,2022.2.4,MacIntel,59.99880002,,,,,,down,0,3.6416,,-0.474257812,0.101015625,1,0,0,0,61,61,82,1,muziek,images/br_muziek.png,images/cb_muziek.png,0,,,,,,,,,,,,,,,,,,,,,,
,,,,,00047,2023-10-20_19h47.53.997,vbt_B2_day4,2022.2.4,MacIntel,59.99880002,,,,,,down,0,27.6689,,-0.474257812,0.101015625,1,0,0,0,62,62,129,1,verhaal,images/br_verhaal.png,images/cb_verhaal.png,0,,,,,,,,,,,,,,,,,,,,,,
,,,,,00047,2023-10-20_19h47.53.997,vbt_B2_day4,2022.2.4,MacIntel,59.99880002,,,,,,down,0,1.7178,,-0.474257812,0.101015625,1,0,0,0,63,63,53,1,baron,images/br_baron.png,images/cb_baron.png,0,,,,,,,,,,,,,,,,,,,,,,
,,,,,00047,2023-10-20_19h47.53.997,vbt_B2_day4,2022.2.4,MacIntel,59.99880002,,,,,,down,0,11.6188,,-0.474257812,0.101015625,1,0,0,0,64,64,136,1,waarbij,images/br_waarbij.png,images/cb_waarbij.png,0,,,,,,,,,,,,,,,,,,,,,,
,,,,,00047,2023-10-20_19h47.53.997,vbt_B2_day4,2022.2.4,MacIntel,59.99880002,,,,,,down,0,6.3129,,-0.50562066,0.045690104,1,0,0,0,65,65,106,1,zingen,images/br_zingen.png,images/cb_zingen.png,1,zingen,,,,,,,,,,,,,,,,,,,,,
,,,,,00047,2023-10-20_19h47.53.997,vbt_B2_day4,2022.2.4,MacIntel,59.99880002,,,,,,down,0,3.0339,,-0.50562066,0.045690104,1,0,0,0,66,66,159,1,sufferd,images/br_sufferd.png,images/cb_sufferd.png,0,,,,,,,,,,,,,,,,,,,,,,
,,,,,00047,2023-10-20_19h47.53.997,vbt_B2_day4,2022.2.4,MacIntel,59.99880002,,,,,,down,0,17.2804,,-0.438867187,-0.132009549,1,0,0,0,67,67,184,1,aandelen,images/br_aandelen.png,images/cb_aandelen.png,1,aandelen,,,,,,,,,,,,,,,,,,,,,
,,,,,00047,2023-10-20_19h47.53.997,vbt_B2_day4,2022.2.4,MacIntel,59.99880002,,,,,,down,0,8.1743,,-0.438867187,-0.132009549,1,0,0,0,68,68,12,1,kust,images/br_kust.png,images/cb_kust.png,0,,,,,,,,,,,,,,,,,,,,,,
,,,,,00047,2023-10-20_19h47.53.997,vbt_B2_day4,2022.2.4,MacIntel,59.99880002,,,,,,down,0,6.9834,,-0.438867187,-0.132009549,1,0,0,0,69,69,95,1,vreten,images/br_vreten.png,images/cb_vreten.png,0,,,,,,,,,,,,,,,,,,,,,,
,,,,,00047,2023-10-20_19h47.53.997,vbt_B2_day4,2022.2.4,MacIntel,59.99880002,,,,,,down,0,0.7935,,-0.441775174,-0.141514757,1,0,0,0,70,70,103,1,joggen,images/br_joggen.png,images/cb_joggen.png,0,,,,,,,,,,,,,,,,,,,,,,
,,,,,00047,2023-10-20_19h47.53.997,vbt_B2_day4,2022.2.4,MacIntel,59.99880002,,,,,,down,0,0.3885,,-0.444570313,-0.145164931,1,0,0,0,71,71,35,1,lust,images/br_lust.png,images/cb_lust.png,0,,,,,,,,,,,,,,,,,,,,,,
,,,,,00047,2023-10-20_19h47.53.997,vbt_B2_day4,2022.2.4,MacIntel,59.99880002,,,,,,down,0,5.7841,,-0.482213542,-0.157118056,1,0,0,0,72,72,187,1,opkijken,images/br_opkijken.png,images/cb_opkijken.png,1,opkijken,,,,,,,,,,,,,,,,,,,,,
,,,,,00047,2023-10-20_19h47.53.997,vbt_B2_day4,2022.2.4,MacIntel,59.99880002,,,,,,down,0,0.418,,-0.429887153,-0.165555556,1,0,0,0,73,73,102,1,legaal,images/br_legaal.png,images/cb_legaal.png,0,,,,,,,,,,,,,,,,,,,,,,
,,,,,00047,2023-10-20_19h47.53.997,vbt_B2_day4,2022.2.4,MacIntel,59.99880002,,,,,,down,0,18.1678,,-0.429887153,-0.165555556,1,0,0,0,74,74,60,1,jasje,images/br_jasje.png,images/cb_jasje.png,0,,,,,,,,,,,,,,,,,,,,,,
,,,,,00047,2023-10-20_19h47.53.997,vbt_B2_day4,2022.2.4,MacIntel,59.99880002,,,,,,down,0,0.5239,,-0.429887153,-0.165555556,1,0,0,0,75,75,68,1,schat,images/br_schat.png,images/cb_schat.png,0,,,,,,,,,,,,,,,,,,,,,,
,,,,,00047,2023-10-20_19h47.53.997,vbt_B2_day4,2022.2.4,MacIntel,59.99880002,,,,,,down,0,7.9261,,-0.429887153,-0.165555556,1,0,0,0,76,76,168,1,bisschop,images/br_bisschop.png,images/cb_bisschop.png,0,,,,,,,,,,,,,,,,,,,,,,
,,,,,00047,2023-10-20_19h47.53.997,vbt_B2_day4,2022.2.4,MacIntel,59.99880002,,,,,,down,0,0.123,,-0.429887153,-0.165555556,1,0,0,0,77,77,19,1,geit,images/br_geit.png,images/cb_geit.png,0,,,,,,,,,,,,,,,,,,,,,,
,,,,,00047,2023-10-20_19h47.53.997,vbt_B2_day4,2022.2.4,MacIntel,59.99880002,,,,,,down,0,0.8347,,-0.429887153,-0.165555556,1,0,0,0,78,78,133,1,seizoen,images/br_seizoen.png,images/cb_seizoen.png,0,,,,,,,,,,,,,,,,,,,,,,
,,,,,00047,2023-10-20_19h47.53.997,vbt_B2_day4,2022.2.4,MacIntel,59.99880002,,,,,,down,0,5.1333,,-0.419244792,-0.122638889,1,0,0,0,79,79,147,1,komisch,images/br_komisch.png,images/cb_komisch.png,1,komisch,,,,,,,,,,,,,,,,,,,,,
,,,,,00047,2023-10-20_19h47.53.997,vbt_B2_day4,2022.2.4,MacIntel,59.99880002,,,,,,down,0,2.3868,,-0.42953559,-0.064730903,1,0,0,0,80,80,51,1,samen,images/br_samen.png,images/cb_samen.png,0,,,,,,,,,,,,,,,,,,,,,,
,,,,,00047,2023-10-20_19h47.53.997,vbt_B2_day4,2022.2.4,MacIntel,59.99880002,,,,,,down,0,105.3936,,-0.42953559,-0.064730903,1,0,0,0,81,81,188,1,strekken,images/br_strekken.png,images/cb_strekken.png,0,,,,,,,,,,,,,,,,,,,,,,
,,,,,00047,2023-10-20_19h47.53.997,vbt_B2_day4,2022.2.4,MacIntel,59.99880002,,,,,,down,0,2.9536,,-0.429791667,-0.064982639,1,0,0,0,82,82,109,1,totaal,images/br_totaal.png,images/cb_totaal.png,0,,,,,,,,,,,,,,,,,,,,,,
,,,,,00047,2023-10-20_19h47.53.997,vbt_B2_day4,2022.2.4,MacIntel,59.99880002,,,,,,down,0,19.5836,,-0.434739583,-0.066302083,1,0,0,0,83,83,43,1,klauw,images/br_klauw.png,images/cb_klauw.png,0,,,,,,,,,,,,,,,,,,,,,,
,,,,,00047,2023-10-20_19h47.53.997,vbt_B2_day4,2022.2.4,MacIntel,59.99880002,,,,,,down,0,1.468,,-0.434739583,-0.066302083,1,0,0,0,84,84,126,1,kasteel,images/br_kasteel.png,images/cb_kasteel.png,0,,,,,,,,,,,,,,,,,,,,,,
,,,,,00047,2023-10-20_19h47.53.997,vbt_B2_day4,2022.2.4,MacIntel,59.99880002,,,,,,down,0,5.6326,,-0.435763889,-0.065277778,1,0,0,0,85,85,87,1,toeval,images/br_toeval.png,images/cb_toeval.png,0,,,,,,,,,,,,,,,,,,,,,,
,,,,,00047,2023-10-20_19h47.53.997,vbt_B2_day4,2022.2.4,MacIntel,59.99880002,,,,,,down,0,1.3365,,-0.435763889,-0.069709201,1,0,0,0,86,86,47,1,kabel,images/br_kabel.png,images/cb_kabel.png,0,,,,,,,,,,,,,,,,,,,,,,
,,,,,00047,2023-10-20_19h47.53.997,vbt_B2_day4,2022.2.4,MacIntel,59.99880002,,,,,,down,0,3.9064,,-0.435763889,-0.069709201,1,0,0,0,87,87,54,1,gebit,images/br_gebit.png,images/cb_gebit.png,0,,,,,,,,,,,,,,,,,,,,,,
,,,,,00047,2023-10-20_19h47.53.997,vbt_B2_day4,2022.2.4,MacIntel,59.99880002,,,,,,down,0,0.6326,,-0.435763889,-0.069709201,1,0,0,0,88,88,157,1,uitlaat,images/br_uitlaat.png,images/cb_uitlaat.png,0,,,,,,,,,,,,,,,,,,,,,,
,,,,,00047,2023-10-20_19h47.53.997,vbt_B2_day4,2022.2.4,MacIntel,59.99880002,,,,,,down,0,0.2841,,-0.432196181,-0.064826389,1,0,0,0,89,89,17,1,taal,images/br_taal.png,images/cb_taal.png,0,,,,,,,,,,,,,,,,,,,,,,
,,,,,00047,2023-10-20_19h47.53.997,vbt_B2_day4,2022.2.4,MacIntel,59.99880002,,,,,,down,0,12.9997,,-0.432990451,-0.066128472,1,0,0,0,90,90,155,1,gerucht,images/br_gerucht.png,images/cb_gerucht.png,0,,,,,,,,,,,,,,,,,,,,,,
,,,,,00047,2023-10-20_19h47.53.997,vbt_B2_day4,2022.2.4,MacIntel,59.99880002,,,,,,down,0,46.7037,,-0.432990451,-0.063880208,1,0,0,0,91,91,93,1,waarop,images/br_waarop.png,images/cb_waarop.png,0,,,,,,,,,,,,,,,,,,,,,,
,,,,,00047,2023-10-20_19h47.53.997,vbt_B2_day4,2022.2.4,MacIntel,59.99880002,,,,,,down,0,3.8584,,-0.445802951,-0.066440972,1,0,0,0,92,92,65,1,parel,images/br_parel.png,images/cb_parel.png,1,parel,,,,,,,,,,,,,,,,,,,,,
,,,,,00047,2023-10-20_19h47.53.997,vbt_B2_day4,2022.2.4,MacIntel,59.99880002,,,,,,down,0,0.0168,,-0.445802951,-0.066440972,1,0,0,0,93,93,171,1,aarzelen,images/br_aarzelen.png,images/cb_aarzelen.png,0,,,,,,,,,,,,,,,,,,,,,,
,,,,,00047,2023-10-20_19h47.53.997,vbt_B2_day4,2022.2.4,MacIntel,59.99880002,,,,,,down,0,0.5683,,-0.445802951,-0.066440972,1,0,0,0,94,94,177,1,maaltijd,images/br_maaltijd.png,images/cb_maaltijd.png,0,,,,,,,,,,,,,,,,,,,,,,
,,,,,00047,2023-10-20_19h47.53.997,vbt_B2_day4,2022.2.4,MacIntel,59.99880002,,,,,,down,0,0.7841,,-0.445802951,-0.066440972,1,0,0,0,95,95,28,1,stal,images/br_stal.png,images/cb_stal.png,0,,,,,,,,,,,,,,,,,,,,,,
,,,,,00047,2023-10-20_19h47.53.997,vbt_B2_day4,2022.2.4,MacIntel,59.99880002,,,,,,down,0,3.8939,,-0.445802951,-0.066440972,1,0,0,0,96,96,116,1,besmet,images/br_besmet.png,images/cb_besmet.png,0,,,,,,,,,,,,,,,,,,,,,,
,,,,,00047,2023-10-20_19h47.53.997,vbt_B2_day4,2022.2.4,MacIntel,59.99880002,,,,,,down,0,0.4198,,-0.445802951,-0.066440972,1,0,0,0,97,97,44,1,flits,images/br_flits.png,images/cb_flits.png,0,,,,,,,,,,,,,,,,,,,,,,
,,,,,00047,2023-10-20_19h47.53.997,vbt_B2_day4,2022.2.4,MacIntel,59.99880002,,,,,,down,0,0.1926,,-0.445802951,-0.066440972,1,0,0,0,98,98,23,1,zout,images/br_zout.png,images/cb_zout.png,0,,,,,,,,,,,,,,,,,,,,,,
,,,,,00047,2023-10-20_19h47.53.997,vbt_B2_day4,2022.2.4,MacIntel,59.99880002,,,,,,down,0,11.8378,,-0.445802951,-0.066440972,1,0,0,0,99,99,107,1,maling,images/br_maling.png,images/cb_maling.png,1,maling,,,,,,,,,,,,,,,,,,,,,
,,,,,00047,2023-10-20_19h47.53.997,vbt_B2_day4,2022.2.4,MacIntel,59.99880002,,,,,,down,0,3.2782,,-0.445802951,-0.066440972,1,0,0,0,100,100,169,1,oprotten,images/br_oprotten.png,images/cb_oprotten.png,0,,,,,,,,,,,,,,,,,,,,,,
,,,,,00047,2023-10-20_19h47.53.997,vbt_B2_day4,2022.2.4,MacIntel,59.99880002,,,,,,down,0,13.2572,,-0.445802951,-0.066440972,1,0,0,0,101,101,78,1,leren,images/br_leren.png,images/cb_leren.png,0,,,,,,,,,,,,,,,,,,,,,,
,,,,,00047,2023-10-20_19h47.53.997,vbt_B2_day4,2022.2.4,MacIntel,59.99880002,,,,,,down,0,1.1742,,-0.445802951,-0.066440972,1,0,0,0,102,102,62,1,knaap,images/br_knaap.png,images/cb_knaap.png,0,,,,,,,,,,,,,,,,,,,,,,
,,,,,00047,2023-10-20_19h47.53.997,vbt_B2_day4,2022.2.4,MacIntel,59.99880002,,,,,,down,0,0.5036,,-0.445802951,-0.066440972,1,0,0,0,103,103,49,1,laken,images/br_laken.png,images/cb_laken.png,0,,,,,,,,,,,,,,,,,,,,,,
,,,,,00047,2023-10-20_19h47.53.997,vbt_B2_day4,2022.2.4,MacIntel,59.99880002,,,,,,down,0,0.6189,,-0.445802951,-0.066440972,1,0,0,0,104,104,29,1,baas,images/br_baas.png,images/cb_baas.png,0,,,,,,,,,,,,,,,,,,,,,,
,,,,,00047,2023-10-20_19h47.53.997,vbt_B2_day4,2022.2.4,MacIntel,59.99880002,,,,,,down,0,0.3424,,-0.445802951,-0.066440972,1,0,0,0,105,105,172,1,weigeren,images/br_weigeren.png,images/cb_weigeren.png,0,,,,,,,,,,,,,,,,,,,,,,
,,,,,00047,2023-10-20_19h47.53.997,vbt_B2_day4,2022.2.4,MacIntel,59.99880002,,,,,,down,0,0.3503,,-0.445802951,-0.066440972,1,0,0,0,106,106,84,1,lokken,images/br_lokken.png,images/cb_lokken.png,0,,,,,,,,,,,,,,,,,,,,,,
,,,,,00047,2023-10-20_19h47.53.997,vbt_B2_day4,2022.2.4,MacIntel,59.99880002,,,,,,down,0,11.7362,,-0.445802951,-0.066440972,1,0,0,0,107,107,193,1,weeshuis,images/br_weeshuis.png,images/cb_weeshuis.png,0,,,,,,,,,,,,,,,,,,,,,,
,,,,,00047,2023-10-20_19h47.53.997,vbt_B2_day4,2022.2.4,MacIntel,59.99880002,,,,,,down,0,103.9192,,-0.445190972,-0.070638021,1,0,0,0,108,108,20,1,site,images/br_site.png,images/cb_site.png,0,,,,,,,,,,,,,,,,,,,,,,
,,,,,00047,2023-10-20_19h47.53.997,vbt_B2_day4,2022.2.4,MacIntel,59.99880002,,,,,,down,0,38.1338,,-0.445190972,-0.070638021,1,0,0,0,109,109,45,1,piste,images/br_piste.png,images/cb_piste.png,0,,,,,,,,,,,,,,,,,,,,,,
,,,,,00047,2023-10-20_19h47.53.997,vbt_B2_day4,2022.2.4,MacIntel,59.99880002,,,,,,down,0,0.3722,,-0.445190972,-0.070638021,1,0,0,0,110,110,2,1,jaar,images/br_jaar.png,images/cb_jaar.png,0,,,,,,,,,,,,,,,,,,,,,,
,,,,,00047,2023-10-20_19h47.53.997,vbt_B2_day4,2022.2.4,MacIntel,59.99880002,,,,,,down,0,0.1686,,-0.445190972,-0.070638021,1,0,0,0,111,111,151,1,aanzoek,images/br_aanzoek.png,images/cb_aanzoek.png,0,,,,,,,,,,,,,,,,,,,,,,
,,,,,00047,2023-10-20_19h47.53.997,vbt_B2_day4,2022.2.4,MacIntel,59.99880002,,,,,,down,0,0.4694,,-0.445190972,-0.070638021,1,0,0,0,112,112,71,1,bever,images/br_bever.png,images/cb_bever.png,0,,,,,,,,,,,,,,,,,,,,,,
,,,,,00047,2023-10-20_19h47.53.997,vbt_B2_day4,2022.2.4,MacIntel,59.99880002,,,,,,down,0,0.454,,-0.445190972,-0.070638021,1,0,0,0,113,113,46,1,jagen,images/br_jagen.png,images/cb_jagen.png,0,,,,,,,,,,,,,,,,,,,,,,
,,,,,00047,2023-10-20_19h47.53.997,vbt_B2_day4,2022.2.4,MacIntel,59.99880002,,,,,,down,0,1.2793,,-0.445190972,-0.070638021,1,0,0,0,114,114,137,1,trekker,images/br_trekker.png,images/cb_trekker.png,0,,,,,,,,,,,,,,,,,,,,,,
,,,,,00047,2023-10-20_19h47.53.997,vbt_B2_day4,2022.2.4,MacIntel,59.99880002,,,,,,down,0,1.0508,,-0.445190972,-0.070638021,1,0,0,0,115,115,132,1,grappen,images/br_grappen.png,images/cb_grappen.png,0,,,,,,,,,,,,,,,,,,,,,,
,,,,,00047,2023-10-20_19h47.53.997,vbt_B2_day4,2022.2.4,MacIntel,59.99880002,,,,,,down,0,19.4506,,-0.445190972,-0.070638021,1,0,0,0,116,116,121,1,twijfel,images/br_twijfel.png,images/cb_twijfel.png,0,,,,,,,,,,,,,,,,,,,,,,
,,,,,00047,2023-10-20_19h47.53.997,vbt_B2_day4,2022.2.4,MacIntel,59.99880002,,,,,,down,0,17.9021,,-0.445190972,-0.070638021,1,0,0,0,117,117,131,1,opzicht,images/br_opzicht.png,images/cb_opzicht.png,0,,,,,,,,,,,,,,,,,,,,,,
,,,,,00047,2023-10-20_19h47.53.997,vbt_B2_day4,2022.2.4,MacIntel,59.99880002,,,,,,down,0,6.4797,,-0.445190972,-0.070638021,1,0,0,0,118,118,153,1,vervoer,images/br_vervoer.png,images/cb_vervoer.png,0,,,,,,,,,,,,,,,,,,,,,,
,,,,,00047,2023-10-20_19h47.53.997,vbt_B2_day4,2022.2.4,MacIntel,59.99880002,,,,,,down,0,2.4173,,-0.445724826,-0.070638021,1,0,0,0,119,119,72,1,strak,images/br_strak.png,images/cb_strak.png,0,,,,,,,,,,,,,,,,,,,,,,
,,,,,00047,2023-10-20_19h47.53.997,vbt_B2_day4,2022.2.4,MacIntel,59.99880002,,,,,,down,0,3.6059,,-0.44624566,-0.072408854,1,0,0,0,120,120,15,1,soda,images/br_soda.png,images/cb_soda.png,0,,,,,,,,,,,,,,,,,,,,,,
,,,,,00047,2023-10-20_19h47.53.997,vbt_B2_day4,2022.2.4,MacIntel,59.99880002,,,,,,down,0,14.3666,,-0.44624566,-0.074361979,1,0,0,0,121,121,7,1,geld,images/br_geld.png,images/cb_geld.png,0,,,,,,,,,,,,,,,,,,,,,,
,,,,,00047,2023-10-20_19h47.53.997,vbt_B2_day4,2022.2.4,MacIntel,59.99880002,,,,,,down,0,2.0157,,-0.44624566,-0.074874132,1,0,0,0,122,122,183,1,getuigen,images/br_getuigen.png,images/cb_getuigen.png,0,,,,,,,,,,,,,,,,,,,,,,
,,,,,00047,2023-10-20_19h47.53.997,vbt_B2_day4,2022.2.4,MacIntel,59.99880002,,,,,,down,0,0.7584,,-0.44624566,-0.075390625,1,0,0,0,123,123,120,1,klimmen,images/br_klimmen.png,images/cb_klimmen.png,0,,,,,,,,,,,,,,,,,,,,,,
,,,,,00047,2023-10-20_19h47.53.997,vbt_B2_day4,2022.2.4,MacIntel,59.99880002,,,,,,down,0,4.3018,,-0.44624566,-0.078637153,1,0,0,0,124,124,83,1,mening,images/br_mening.png,images/cb_mening.png,0,,,,,,,,,,,,,,,,,,,,,,
,,,,,00047,2023-10-20_19h47.53.997,vbt_B2_day4,2022.2.4,MacIntel,59.99880002,,,,,,down,0,0.0171,,-0.446779514,-0.077074653,1,0,0,0,125,125,173,1,apparaat,images/br_apparaat.png,images/cb_apparaat.png,0,,,,,,,,,,,,,,,,,,,,,,
,,,,,00047,2023-10-20_19h47.53.997,vbt_B2_day4,2022.2.4,MacIntel,59.99880002,,,,,,down,0,2.7066,,-0.446779514,-0.075850694,1,0,0,0,126,126,33,1,vlek,images/br_vlek.png,images/cb_vlek.png,0,,,,,,,,,,,,,,,,,,,,,,
,,,,,00047,2023-10-20_19h47.53.997,vbt_B2_day4,2022.2.4,MacIntel,59.99880002,,,,,,down,0,3.2675,,-0.446779514,-0.076944444,1,0,0,0,127,127,195,1,middelen,images/br_middelen.png,images/cb_middelen.png,0,,,,,,,,,,,,,,,,,,,,,,
,,,,,00047,2023-10-20_19h47.53.997,vbt_B2_day4,2022.2.4,MacIntel,59.99880002,,,,,,down,0,2.3841,,-0.447039931,-0.077196181,1,0,0,0,128,128,59,1,kring,images/br_kring.png,images/cb_kring.png,0,,,,,,,,,,,,,,,,,,,,,,
,,,,,00047,2023-10-20_19h47.53.997,vbt_B2_day4,2022.2.4,MacIntel,59.99880002,,,,,,down,0,9.022,,-0.447039931,-0.078554687,1,0,0,0,129,129,96,1,slagen,images/br_slagen.png,images/cb_slagen.png,0,,,,,,,,,,,,,,,,,,,,,,
,,,,,00047,2023-10-20_19h47.53.997,vbt_B2_day4,2022.2.4,MacIntel,59.99880002,,,,,,down,0,5.5182,,-0.447039931,-0.078554687,1,0,0,0,130,130,5,1,blad,images/br_blad.png,images/cb_blad.png,0,,,,,,,,,,,,,,,,,,,,,,
,,,,,00047,2023-10-20_19h47.53.997,vbt_B2_day4,2022.2.4,MacIntel,59.99880002,,,,,,down,0,7.1846,,-0.444908854,-0.098962674,1,0,0,0,131,131,67,1,zwart,images/br_zwart.png,images/cb_zwart.png,1,zwart,,,,,,,,,,,,,,,,,,,,,
,,,,,00047,2023-10-20_19h47.53.997,vbt_B2_day4,2022.2.4,MacIntel,59.99880002,,,,,,down,0,1.6179,,-0.444908854,-0.098962674,1,0,0,0,132,132,199,1,beseffen,images/br_beseffen.png,images/cb_beseffen.png,0,,,,,,,,,,,,,,,,,,,,,,
,,,,,00047,2023-10-20_19h47.53.997,vbt_B2_day4,2022.2.4,MacIntel,59.99880002,,,,,,down,0,5.3067,,-0.444908854,-0.098962674,1,0,0,0,133,133,182,1,bijkomen,images/br_bijkomen.png,images/cb_bijkomen.png,0,,,,,,,,,,,,,,,,,,,,,,
,,,,,00047,2023-10-20_19h47.53.997,vbt_B2_day4,2022.2.4,MacIntel,59.99880002,,,,,,down,0,0.0203,,-0.444908854,-0.098962674,1,0,0,0,134,134,97,1,loyaal,images/br_loyaal.png,images/cb_loyaal.png,0,,,,,,,,,,,,,,,,,,,,,,
,,,,,00047,2023-10-20_19h47.53.997,vbt_B2_day4,2022.2.4,MacIntel,59.99880002,,,,,,down,0,1.1499,,-0.444908854,-0.098962674,1,0,0,0,135,135,31,1,poes,images/br_poes.png,images/cb_poes.png,0,,,,,,,,,,,,,,,,,,,,,,
,,,,,00047,2023-10-20_19h47.53.997,vbt_B2_day4,2022.2.4,MacIntel,59.99880002,,,,,,down,0,0.6462,,-0.444908854,-0.098962674,1,0,0,0,136,136,56,1,traag,images/br_traag.png,images/cb_traag.png,0,,,,,,,,,,,,,,,,,,,,,,
,,,,,00047,2023-10-20_19h47.53.997,vbt_B2_day4,2022.2.4,MacIntel,59.99880002,,,,,,down,0,0.3008,,-0.444908854,-0.098962674,1,0,0,0,137,137,39,1,laag,images/br_laag.png,images/cb_laag.png,0,,,,,,,,,,,,,,,,,,,,,,
,,,,,00047,2023-10-20_19h47.53.997,vbt_B2_day4,2022.2.4,MacIntel,59.99880002,,,,,,down,0,1.5476,,-0.444908854,-0.098962674,1,0,0,0,138,138,61,1,groen,images/br_groen.png,images/cb_groen.png,0,,,,,,,,,,,,,,,,,,,,,,
,,,,,00047,2023-10-20_19h47.53.997,vbt_B2_day4,2022.2.4,MacIntel,59.99880002,,,,,,down,0,9.3502,,-0.444908854,-0.098962674,1,0,0,0,139,139,185,1,mijnheer,images/br_mijnheer.png,images/cb_mijnheer.png,1,mijnheer,,,,,,,,,,,,,,,,,,,,,
,,,,,00047,2023-10-20_19h47.53.997,vbt_B2_day4,2022.2.4,MacIntel,59.99880002,,,,,,down,0,3.7829,,-0.444908854,-0.098962674,1,0,0,0,140,140,158,1,innemen,images/br_innemen.png,images/cb_innemen.png,0,,,,,,,,,,,,,,,,,,,,,,
,,,,,00047,2023-10-20_19h47.53.997,vbt_B2_day4,2022.2.4,MacIntel,59.99880002,,,,,,down,0,2.5484,,-0.444908854,-0.098962674,1,0,0,0,141,141,167,1,eenhoorn,images/br_eenhoorn.png,images/cb_eenhoorn.png,0,,,,,,,,,,,,,,,,,,,,,,
,,,,,00047,2023-10-20_19h47.53.997,vbt_B2_day4,2022.2.4,MacIntel,59.99880002,,,,,,down,0,2.3867,,-0.444908854,-0.098962674,1,0,0,0,142,142,170,1,schatten,images/br_schatten.png,images/cb_schatten.png,0,,,,,,,,,,,,,,,,,,,,,,
,,,,,00047,2023-10-20_19h47.53.997,vbt_B2_day4,2022.2.4,MacIntel,59.99880002,,,,,,down,0,10.9392,,-0.444908854,-0.098962674,1,0,0,0,143,143,37,1,mijn,images/br_mijn.png,images/cb_mijn.png,0,,,,,,,,,,,,,,,,,,,,,,
,,,,,00047,2023-10-20_19h47.53.997,vbt_B2_day4,2022.2.4,MacIntel,59.99880002,,,,,,down,0,12.7227,,-0.444908854,-0.098962674,1,0,0,0,144,144,143,1,hechten,images/br_hechten.png,images/cb_hechten.png,0,,,,,,,,,,,,,,,,,,,,,,
,,,,,00047,2023-10-20_19h47.53.997,vbt_B2_day4,2022.2.4,MacIntel,59.99880002,,,,,,down,0,3.2046,,-0.444908854,-0.098962674,1,0,0,0,145,145,69,1,waken,images/br_waken.png,images/cb_waken.png,0,,,,,,,,,,,,,,,,,,,,,,
,,,,,00047,2023-10-20_19h47.53.997,vbt_B2_day4,2022.2.4,MacIntel,59.99880002,,,,,,down,0,8.5695,,-0.44875434,-0.097356771,1,0,0,0,146,146,118,1,vinger,images/br_vinger.png,images/cb_vinger.png,0,,,,,,,,,,,,,,,,,,,,,,
,,,,,00047,2023-10-20_19h47.53.997,vbt_B2_day4,2022.2.4,MacIntel,59.99880002,,,,,,down,0,1.4931,,-0.44875434,-0.097899306,1,0,0,0,147,147,42,1,bleek,images/br_bleek.png,images/cb_bleek.png,0,,,,,,,,,,,,,,,,,,,,,,
,,,,,00047,2023-10-20_19h47.53.997,vbt_B2_day4,2022.2.4,MacIntel,59.99880002,,,,,,down,0,46.2522,,-0.453424479,-0.097135417,1,0,0,0,148,148,156,1,rechten,images/br_rechten.png,images/cb_rechten.png,0,,,,,,,,,,,,,,,,,,,,,,
,,,,,00047,2023-10-20_19h47.53.997,vbt_B2_day4,2022.2.4,MacIntel,59.99880002,,,,,,down,0,1.4999,,-0.455412326,-0.094891493,1,0,0,0,149,149,85,1,heilig,images/br_heilig.png,images/cb_heilig.png,0,,,,,,,,,,,,,,,,,,,,,,
,,,,,00047,2023-10-20_19h47.53.997,vbt_B2_day4,2022.2.4,MacIntel,59.99880002,,,,,,down,0,1.5154,,-0.457074653,-0.094110243,1,0,0,0,150,150,117,1,kennis,images/br_kennis.png,images/cb_kennis.png,0,,,,,,,,,,,,,,,,,,,,,,
,,,,,00047,2023-10-20_19h47.53.997,vbt_B2_day4,2022.2.4,MacIntel,59.99880002,,,,,,down,0,0.8672,,-0.459375,-0.093854167,1,0,0,0,151,151,52,1,wagon,images/br_wagon.png,images/cb_wagon.png,0,,,,,,,,,,,,,,,,,,,,,,
,,,,,00047,2023-10-20_19h47.53.997,vbt_B2_day4,2022.2.4,MacIntel,59.99880002,,,,,,down,0,0.3332,,-0.460750868,-0.088641493,1,0,0,0,152,152,8,1,knie,images/br_knie.png,images/cb_knie.png,0,,,,,,,,,,,,,,,,,,,,,,
,,,,,00047,2023-10-20_19h47.53.997,vbt_B2_day4,2022.2.4,MacIntel,59.99880002,,,,,,down,0,3.9204,,-0.462990451,-0.089153646,1,0,0,0,153,153,88,1,boeien,images/br_boeien.png,images/cb_boeien.png,0,,,,,,,,,,,,,,,,,,,,,,
,,,,,00047,2023-10-20_19h47.53.997,vbt_B2_day4,2022.2.4,MacIntel,59.99880002,,,,,,down,0,2.3351,,-0.464913194,-0.088828125,1,0,0,0,154,154,135,1,gedicht,images/br_gedicht.png,images/cb_gedicht.png,0,,,,,,,,,,,,,,,,,,,,,,
,,,,,00047,2023-10-20_19h47.53.997,vbt_B2_day4,2022.2.4,MacIntel,59.99880002,,,,,,down,0,6.2482,,-0.467452257,-0.086996528,1,0,0,0,155,155,112,1,lukken,images/br_lukken.png,images/cb_lukken.png,0,,,,,,,,,,,,,,,,,,,,,,
,,,,,00047,2023-10-20_19h47.53.997,vbt_B2_day4,2022.2.4,MacIntel,59.99880002,,,,,,down,0,3.9176,,-0.470920139,-0.087695312,1,0,0,0,156,156,110,1,zuster,images/br_zuster.png,images/cb_zuster.png,0,,,,,,,,,,,,,,,,,,,,,,
,,,,,00047,2023-10-20_19h47.53.997,vbt_B2_day4,2022.2.4,MacIntel,59.99880002,,,,,,down,0,5.601,,-0.469518229,-0.087695312,1,0,0,0,157,157,146,1,opkomen,images/br_opkomen.png,images/cb_opkomen.png,1,opkomen,,,,,,,,,,,,,,,,,,,,,
,,,,,00047,2023-10-20_19h47.53.997,vbt_B2_day4,2022.2.4,MacIntel,59.99880002,,,,,,down,0,1.8724,,-0.469518229,-0.087695312,1,0,0,0,158,158,108,1,excuus,images/br_excuus.png,images/cb_excuus.png,0,,,,,,,,,,,,,,,,,,,,,,
,,,,,00047,2023-10-20_19h47.53.997,vbt_B2_day4,2022.2.4,MacIntel,59.99880002,,,,,,down,0,6.254,,-0.469518229,-0.087695312,1,0,0,0,159,159,119,1,liefje,images/br_liefje.png,images/cb_liefje.png,0,,,,,,,,,,,,,,,,,,,,,,
,,,,,00047,2023-10-20_19h47.53.997,vbt_B2_day4,2022.2.4,MacIntel,59.99880002,,,,,,down,0,2.016,,-0.469518229,-0.087695312,1,0,0,0,160,160,30,1,uien,images/br_uien.png,images/cb_uien.png,0,,,,,,,,,,,,,,,,,,,,,,
,,,,,00047,2023-10-20_19h47.53.997,vbt_B2_day4,2022.2.4,MacIntel,59.99880002,,,,,,down,0,50.368,,-0.474197049,-0.087695312,1,0,0,0,161,161,196,1,nakijken,images/br_nakijken.png,images/cb_nakijken.png,0,,,,,,,,,,,,,,,,,,,,,,
,,,,,00047,2023-10-20_19h47.53.997,vbt_B2_day4,2022.2.4,MacIntel,59.99880002,,,,,,down,0,0.3342,,-0.474197049,-0.087695312,1,0,0,0,162,162,86,1,woning,images/br_woning.png,images/cb_woning.png,0,,,,,,,,,,,,,,,,,,,,,,
,,,,,00047,2023-10-20_19h47.53.997,vbt_B2_day4,2022.2.4,MacIntel,59.99880002,,,,,,down,0,6.5021,,-0.474197049,-0.087695312,1,0,0,0,163,163,94,1,oceaan,images/br_oceaan.png,images/cb_oceaan.png,0,,,,,,,,,,,,,,,,,,,,,,
,,,,,00047,2023-10-20_19h47.53.997,vbt_B2_day4,2022.2.4,MacIntel,59.99880002,,,,,,down,0,8.1604,,-0.474197049,-0.087695312,1,0,0,0,164,164,141,1,knielen,images/br_knielen.png,images/cb_knielen.png,0,,,,,,,,,,,,,,,,,,,,,,
,,,,,00047,2023-10-20_19h47.53.997,vbt_B2_day4,2022.2.4,MacIntel,59.99880002,,,,,,down,0,1.6885,,-0.474197049,-0.087695312,1,0,0,0,165,165,25,1,plek,images/br_plek.png,images/cb_plek.png,1,plek,,,,,,,,,,,,,,,,,,,,,
,,,,,00047,2023-10-20_19h47.53.997,vbt_B2_day4,2022.2.4,MacIntel,59.99880002,,,,,,down,0,2.8381,,-0.474197049,-0.087695312,1,0,0,0,166,166,9,1,hier,images/br_hier.png,images/cb_hier.png,0,,,,,,,,,,,,,,,,,,,,,,
,,,,,00047,2023-10-20_19h47.53.997,vbt_B2_day4,2022.2.4,MacIntel,59.99880002,,,,,,down,0,0.3237,,-0.47500434,-0.08796441,1,0,0,0,167,167,6,1,diep,images/br_diep.png,images/cb_diep.png,0,,,,,,,,,,,,,,,,,,,,,,
,,,,,00047,2023-10-20_19h47.53.997,vbt_B2_day4,2022.2.4,MacIntel,59.99880002,,,,,,down,0,0.3839,,-0.476102431,-0.08796441,1,0,0,0,168,168,148,1,smullen,images/br_smullen.png,images/cb_smullen.png,0,,,,,,,,,,,,,,,,,,,,,,
,,,,,00047,2023-10-20_19h47.53.997,vbt_B2_day4,2022.2.4,MacIntel,59.99880002,,,,,,down,0,2.2369,,-0.476636285,-0.08796441,1,0,0,0,169,169,40,1,schep,images/br_schep.png,images/cb_schep.png,0,,,,,,,,,,,,,,,,,,,,,,
,,,,,00047,2023-10-20_19h47.53.997,vbt_B2_day4,2022.2.4,MacIntel,59.99880002,,,,,,down,0,4.1016,,-0.477456597,-0.08796441,1,0,0,0,170,170,113,1,koppen,images/br_koppen.png,images/cb_koppen.png,0,,,,,,,,,,,,,,,,,,,,,,
,,,,,00047,2023-10-20_19h47.53.997,vbt_B2_day4,2022.2.4,MacIntel,59.99880002,,,,,,down,0,3.0831,,-0.479453125,-0.088823785,1,0,0,0,171,171,194,1,driemaal,images/br_driemaal.png,images/cb_driemaal.png,0,,,,,,,,,,,,,,,,,,,,,,
,,,,,00047,2023-10-20_19h47.53.997,vbt_B2_day4,2022.2.4,MacIntel,59.99880002,,,,,,down,0,6.5504,,-0.553914931,-0.004982639,1,0,0,0,172,172,105,1,wijlen,images/br_wijlen.png,images/cb_wijlen.png,1,wijlen,,,,,,,,,,,,,,,,,,,,,
,,,,,00047,2023-10-20_19h47.53.997,vbt_B2_day4,2022.2.4,MacIntel,59.99880002,,,,,,down,0,4.1161,,-0.553914931,-0.004201389,1,0,0,0,173,173,181,1,toegeven,images/br_toegeven.png,images/cb_toegeven.png,0,,,,,,,,,,,,,,,,,,,,,,
,,,,,00047,2023-10-20_19h47.53.997,vbt_B2_day4,2022.2.4,MacIntel,59.99880002,,,,,,down,0,21.2231,,-0.553914931,-0.004201389,1,0,0,0,174,174,111,1,ticket,images/br_ticket.png,images/cb_ticket.png,0,,,,,,,,,,,,,,,,,,,,,,
,,,,,00047,2023-10-20_19h47.53.997,vbt_B2_day4,2022.2.4,MacIntel,59.99880002,,,,,,down,0,3.2752,,-0.553914931,-0.004201389,1,0,0,0,175,175,99,1,koffie,images/br_koffie.png,images/cb_koffie.png,0,,,,,,,,,,,,,,,,,,,,,,
,,,,,00047,2023-10-20_19h47.53.997,vbt_B2_day4,2022.2.4,MacIntel,59.99880002,,,,,,down,0,2.5609,,-0.553914931,-0.004201389,1,0,0,0,176,176,34,1,vorm,images/br_vorm.png,images/cb_vorm.png,0,,,,,,,,,,,,,,,,,,,,,,
,,,,,00047,2023-10-20_19h47.53.997,vbt_B2_day4,2022.2.4,MacIntel,59.99880002,,,,,,down,0,2.6002,,-0.553914931,-0.004201389,1,0,0,0,177,177,50,1,stoom,images/br_stoom.png,images/cb_stoom.png,0,,,,,,,,,,,,,,,,,,,,,,
,,,,,00047,2023-10-20_19h47.53.997,vbt_B2_day4,2022.2.4,MacIntel,59.99880002,,,,,,down,0,13.1429,,-0.553914931,-0.004201389,1,0,0,0,178,178,149,1,redding,images/br_redding.png,images/cb_redding.png,0,,,,,,,,,,,,,,,,,,,,,,
,,,,,00047,2023-10-20_19h47.53.997,vbt_B2_day4,2022.2.4,MacIntel,59.99880002,,,,,,down,0,1.2855,,-0.553914931,-0.004201389,1,0,0,0,179,179,152,1,afnemen,images/br_afnemen.png,images/cb_afnemen.png,0,,,,,,,,,,,,,,,,,,,,,,
,,,,,00047,2023-10-20_19h47.53.997,vbt_B2_day4,2022.2.4,MacIntel,59.99880002,,,,,,down,0,1.0006,,-0.553914931,-0.004201389,1,0,0,0,180,180,75,1,snoep,images/br_snoep.png,images/cb_snoep.png,0,,,,,,,,,,,,,,,,,,,,,,
,,,,,00047,2023-10-20_19h47.53.997,vbt_B2_day4,2022.2.4,MacIntel,59.99880002,,,,,,down,0,0.2726,,-0.553914931,-0.004201389,1,0,0,0,181,181,11,1,mode,images/br_mode.png,images/cb_mode.png,0,,,,,,,,,,,,,,,,,,,,,,
,,,,,00047,2023-10-20_19h47.53.997,vbt_B2_day4,2022.2.4,MacIntel,59.99880002,,,,,,down,0,0.0506,,-0.553914931,-0.004201389,1,0,0,0,182,182,57,1,steek,images/br_steek.png,images/cb_steek.png,0,,,,,,,,,,,,,,,,,,,,,,
,,,,,00047,2023-10-20_19h47.53.997,vbt_B2_day4,2022.2.4,MacIntel,59.99880002,,,,,,down,0,3.8806,,-0.553914931,-0.004201389,1,0,0,0,183,183,154,1,aflopen,images/br_aflopen.png,images/cb_aflopen.png,0,,,,,,,,,,,,,,,,,,,,,,
,,,,,00047,2023-10-20_19h47.53.997,vbt_B2_day4,2022.2.4,MacIntel,59.99880002,,,,,,down,0,15.051,,-0.553914931,-0.004201389,1,0,0,0,184,184,163,1,schuilen,images/br_schuilen.png,images/cb_schuilen.png,0,,,,,,,,,,,,,,,,,,,,,,
,,,,,00047,2023-10-20_19h47.53.997,vbt_B2_day4,2022.2.4,MacIntel,59.99880002,,,,,,down,0,0.5243,,-0.553914931,-0.004201389,1,0,0,0,185,185,3,1,mand,images/br_mand.png,images/cb_mand.png,0,,,,,,,,,,,,,,,,,,,,,,
,,,,,00047,2023-10-20_19h47.53.997,vbt_B2_day4,2022.2.4,MacIntel,59.99880002,,,,,,down,0,1.909,,-0.553914931,-0.004201389,1,0,0,0,186,186,70,1,ijdel,images/br_ijdel.png,images/cb_ijdel.png,0,,,,,,,,,,,,,,,,,,,,,,
,,,,,00047,2023-10-20_19h47.53.997,vbt_B2_day4,2022.2.4,MacIntel,59.99880002,,,,,,down,0,1.7048,,-0.553914931,-0.004201389,1,0,0,0,187,187,100,1,geduld,images/br_geduld.png,images/cb_geduld.png,0,,,,,,,,,,,,,,,,,,,,,,
,,,,,00047,2023-10-20_19h47.53.997,vbt_B2_day4,2022.2.4,MacIntel,59.99880002,,,,,,down,0,22.2014,,-0.553914931,-0.004201389,1,0,0,0,188,188,176,1,techniek,images/br_techniek.png,images/cb_techniek.png,0,,,,,,,,,,,,,,,,,,,,,,
,,,,,00047,2023-10-20_19h47.53.997,vbt_B2_day4,2022.2.4,MacIntel,59.99880002,,,,,,down,0,0.5224,,-0.553914931,-0.004201389,1,0,0,0,189,189,90,1,geluid,images/br_geluid.png,images/cb_geluid.png,0,,,,,,,,,,,,,,,,,,,,,,
,,,,,00047,2023-10-20_19h47.53.997,vbt_B2_day4,2022.2.4,MacIntel,59.99880002,,,,,,down,0,2.0693,,-0.553914931,-0.004201389,1,0,0,0,190,190,134,1,geliefd,images/br_geliefd.png,images/cb_geliefd.png,0,,,,,,,,,,,,,,,,,,,,,,
,,,,,00047,2023-10-20_19h47.53.997,vbt_B2_day4,2022.2.4,MacIntel,59.99880002,,,,,,down,0,3.4217,,-0.553914931,-0.004201389,0,0,1,0,191,191,178,1,huisdier,images/br_huisdier.png,images/cb_huisdier.png,0,,,,,,,,,,,,,,,,,,,,,,
,,,,,00047,2023-10-20_19h47.53.997,vbt_B2_day4,2022.2.4,MacIntel,59.99880002,,,,,,down,0,15.1185,,-0.079635417,0.192291667,1,0,1,0,192,192,48,1,steel,images/br_steel.png,images/cb_steel.png,0,,,,,,,,,,,,,,,,,,,,,,
,,,,,00047,2023-10-20_19h47.53.997,vbt_B2_day4,2022.2.4,MacIntel,59.99880002,,,,,,down,0,4.2656,,-0.079635417,0.192291667,1,0,1,0,193,193,180,1,openbaar,images/br_openbaar.png,images/cb_openbaar.png,0,,,,,,,,,,,,,,,,,,,,,,
,,,,,00047,2023-10-20_19h47.53.997,vbt_B2_day4,2022.2.4,MacIntel,59.99880002,,,,,,down,0,6.4681,,-0.079635417,0.192291667,1,0,1,0,194,194,16,1,ziek,images/br_ziek.png,images/cb_ziek.png,0,,,,,,,,,,,,,,,,,,,,,,
,,,,,00047,2023-10-20_19h47.53.997,vbt_B2_day4,2022.2.4,MacIntel,59.99880002,,,,,,down,0,5.0351,,-0.079635417,0.192291667,1,0,1,0,195,195,91,1,gezond,images/br_gezond.png,images/cb_gezond.png,0,,,,,,,,,,,,,,,,,,,,,,
,,,,,00047,2023-10-20_19h47.53.997,vbt_B2_day4,2022.2.4,MacIntel,59.99880002,,,,,,down,0,2.6901,,-0.079635417,0.192291667,1,0,1,0,196,196,101,1,staren,images/br_staren.png,images/cb_staren.png,0,,,,,,,,,,,,,,,,,,,,,,
,,,,,00047,2023-10-20_19h47.53.997,vbt_B2_day4,2022.2.4,MacIntel,59.99880002,,,,,,down,0,1.4164,,-0.079635417,0.192291667,1,0,1,0,197,197,192,1,schaamte,images/br_schaamte.png,images/cb_schaamte.png,0,,,,,,,,,,,,,,,,,,,,,,
,,,,,00047,2023-10-20_19h47.53.997,vbt_B2_day4,2022.2.4,MacIntel,59.99880002,,,,,,down,0,5.3876,,-0.079635417,0.192291667,1,0,1,0,198,198,186,1,voorraad,images/br_voorraad.png,images/cb_voorraad.png,1,voorraad,,,,,,,,,,,,,,,,,,,,,
,,,,,00047,2023-10-20_19h47.53.997,vbt_B2_day4,2022.2.4,MacIntel,59.99880002,,,,,,down,0,0.1599,,-0.079635417,0.192291667,1,0,1,0,199,199,1,1,zaal,images/br_zaal.png,images/cb_zaal.png,0,,,,,,,,,,,,,,,,,,,,,,
,,,,,00047,2023-10-20_19h47.53.997,vbt_B2_day4,2022.2.4,MacIntel,59.99880002,,,,,,,,,,,,,,,,,,,,,,,,,-0.079635417,0.192291667,0,0,1,,,,,,,,,,,,,,,,
,,,,,00047,2023-10-20_19h47.53.997,vbt_B2_day4,2022.2.4,MacIntel,59.99880002,,,,,,,,,,,,,,,,,,,,,,,,,,,,,,-0.078684896,-0.013958333,1,0,1,,,,,,,,,,,
,,,,,00047,2023-10-20_19h47.53.997,vbt_B2_day4,2022.2.4,MacIntel,59.99880002,,,,,,,,,,,,,,,,,,,,sulbon,images/br_sulbon.png,images/cb_sulbon.png,,sulbon,,,,,,,,,,,-0.061137153,-0.077721354,1,0,1,sulbon,0,0,0,31,1
,,,,,00047,2023-10-20_19h47.53.997,vbt_B2_day4,2022.2.4,MacIntel,59.99880002,,,,,,,,,,,,,,,,,,,,gaaf,images/br_gaaf.png,images/cb_gaaf.png,,gaaf,,,,,,,,,,,-0.071788194,-0.013307292,1,0,1,gaaf,0,1,1,43,1
,,,,,00047,2023-10-20_19h47.53.997,vbt_B2_day4,2022.2.4,MacIntel,59.99880002,,,,,,,,,,,,,,,,,,,,tucket,images/br_tucket.png,images/cb_tucket.png,,ticket,,,,,,,,,,,-0.082855903,0.030989583,1,0,1,ticket,0,2,2,30,1
,,,,,00047,2023-10-20_19h47.53.997,vbt_B2_day4,2022.2.4,MacIntel,59.99880002,,,,,,,,,,,,,,,,,,,,gebit,images/br_gebit.png,images/cb_gebit.png,,gebit,,,,,,,,,,,-0.127204861,-0.023298611,1,0,1,gebit,0,3,3,6,1
,,,,,00047,2023-10-20_19h47.53.997,vbt_B2_day4,2022.2.4,MacIntel,59.99880002,,,,,,,,,,,,,,,,,,,,kaal,images/br_kaal.png,images/cb_kaal.png,,kaal,,,,,,,,,,,0.14078559,0.100230035,1,0,0,kaal,0,4,4,1,1
,,,,,00047,2023-10-20_19h47.53.997,vbt_B2_day4,2022.2.4,MacIntel,59.99880002,,,,,,,,,,,,,,,,,,,,wozing,images/br_wozing.png,images/cb_wozing.png,,wozing,,,,,,,,,,,0.002174479,-0.198845486,1,0,0,wozing,0,5,5,28,1
,,,,,00047,2023-10-20_19h47.53.997,vbt_B2_day4,2022.2.4,MacIntel,59.99880002,,,,,,,,,,,,,,,,,,,,dozijn,images/br_dozijn.png,images/cb_dozijn.png,,doz,,,,,,,,,,,-0.068567708,-0.108038194,1,0,0,doz,0,6,6,48,1
,,,,,00047,2023-10-20_19h47.53.997,vbt_B2_day4,2022.2.4,MacIntel,59.99880002,,,,,,,,,,,,,,,,,,,,baron,images/br_baron.png,images/cb_baron.png,,baron,,,,,,,,,,,-0.064027778,-0.056519097,1,0,0,baron,0,7,7,5,1
,,,,,00047,2023-10-20_19h47.53.997,vbt_B2_day4,2022.2.4,MacIntel,59.99880002,,,,,,,,,,,,,,,,,,,,opruimen,images/br_opruimen.png,images/cb_opruimen.png,,opruimen,,,,,,,,,,,-0.078606771,-0.107469618,1,0,0,opruimen,0,8,8,59,1
,,,,,00047,2023-10-20_19h47.53.997,vbt_B2_day4,2022.2.4,MacIntel,59.99880002,,,,,,,,,,,,,,,,,,,,noodzaak,images/br_noodzaak.png,images/cb_noodzaak.png,,noodzaak,,,,,,,,,,,-0.073025174,-0.085477431,1,0,0,noodzaak,0,9,9,56,1
,,,,,00047,2023-10-20_19h47.53.997,vbt_B2_day4,2022.2.4,MacIntel,59.99880002,,,,,,,,,,,,,,,,,,,,drooien,images/br_drooien.png,images/cb_drooien.png,,drooien,,,,,,,,,,,-0.062634549,-0.111063368,1,0,0,drooien,0,10,10,32,1
,,,,,00047,2023-10-20_19h47.53.997,vbt_B2_day4,2022.2.4,MacIntel,59.99880002,,,,,,,,,,,,,,,,,,,,getucht,images/br_getucht.png,images/cb_getucht.png,,getucht,,,,,,,,,,,-0.076740451,-0.093094618,1,0,0,getucht,0,11,11,35,1
,,,,,00047,2023-10-20_19h47.53.997,vbt_B2_day4,2022.2.4,MacIntel,59.99880002,,,,,,,,,,,,,,,,,,,,gijf,images/br_gijf.png,images/cb_gijf.png,,geif,,,,,,,,,,,-0.085998264,-0.059032118,1,0,0,geif,0,12,12,23,1
,,,,,00047,2023-10-20_19h47.53.997,vbt_B2_day4,2022.2.4,MacIntel,59.99880002,,,,,,,,,,,,,,,,,,,,opkicht,images/br_opkicht.png,images/cb_opkicht.png,,opkicht,,,,,,,,,,,-0.14234375,-0.07875,1,0,0,opkicht,0,13,13,34,1
,,,,,00047,2023-10-20_19h47.53.997,vbt_B2_day4,2022.2.4,MacIntel,59.99880002,,,,,,,,,,,,,,,,,,,,waarop,images/br_waarop.png,images/cb_waarop.png,,waarop,,,,,,,,,,,-0.156467014,-0.105733507,1,0,0,waarop,0,14,14,9,1
,,,,,00047,2023-10-20_19h47.53.997,vbt_B2_day4,2022.2.4,MacIntel,59.99880002,,,,,,,,,,,,,,,,,,,,toevol,images/br_toevol.png,images/cb_toevol.png,,toeval,,,,,,,,,,,-0.124448785,-0.077717014,1,0,0,toeval,0,15,15,29,1
,,,,,00047,2023-10-20_19h47.53.997,vbt_B2_day4,2022.2.4,MacIntel,59.99880002,,,,,,,,,,,,,,,,,,,,midden,images/br_midden.png,images/cb_midden.png,,midden,,,,,,,,,,,-0.11125,-0.04749566,1,0,0,midden,0,16,16,50,1
,,,,,00047,2023-10-20_19h47.53.997,vbt_B2_day4,2022.2.4,MacIntel,59.99880002,,,,,,,,,,,,,,,,,,,,oceaan,images/br_oceaan.png,images/cb_oceaan.png,,oceaan,,,,,,,,,,,-0.048511285,-0.051462674,1,0,0,oceaan,0,17,17,10,1
,,,,,00047,2023-10-20_19h47.53.997,vbt_B2_day4,2022.2.4,MacIntel,59.99880002,,,,,,,,,,,,,,,,,,,,grappen,images/br_grappen.png,images/cb_grappen.png,,grappen,,,,,,,,,,,-0.066111111,-0.081692708,1,0,0,grappen,0,18,18,12,1
,,,,,00047,2023-10-20_19h47.53.997,vbt_B2_day4,2022.2.4,MacIntel,59.99880002,,,,,,,,,,,,,,,,,,,,flippen,images/br_flippen.png,images/cb_flippen.png,,flippen,,,,,,,,,,,-0.052786458,-0.082282986,1,0,0,flippen,0,19,19,54,1
,,,,,00047,2023-10-20_19h47.53.997,vbt_B2_day4,2022.2.4,MacIntel,59.99880002,,,,,,,,,,,,,,,,,,,,broodje,images/br_broodje.png,images/cb_broodje.png,,broodje,,,,,,,,,,,-0.069822049,-0.081727431,1,0,0,broodje,0,20,20,55,1
,,,,,00047,2023-10-20_19h47.53.997,vbt_B2_day4,2022.2.4,MacIntel,59.99880002,,,,,,,,,,,,,,,,,,,,weigeren,images/br_weigeren.png,images/cb_weigeren.png,,weigeren,,,,,,,,,,,-0.099635417,-0.089800347,1,0,0,weigeren,0,21,21,16,1
,,,,,00047,2023-10-20_19h47.53.997,vbt_B2_day4,2022.2.4,MacIntel,59.99880002,,,,,,,,,,,,,,,,,,,,steen,images/br_steen.png,images/cb_steen.png,,steen,,,,,,,,,,,-0.09640191,-0.053524306,1,0,0,steen,0,22,22,44,1
,,,,,00047,2023-10-20_19h47.53.997,vbt_B2_day4,2022.2.4,MacIntel,59.99880002,,,,,,,,,,,,,,,,,,,,gaan,images/br_gaan.png,images/cb_gaan.png,,gaan,,,,,,,,,,,-0.114023438,-0.086992187,1,0,0,gaan,0,23,23,41,1
,,,,,00047,2023-10-20_19h47.53.997,vbt_B2_day4,2022.2.4,MacIntel,59.99880002,,,,,,,,,,,,,,,,,,,,vreten,images/br_vreten.png,images/cb_vreten.png,,vreten,,,,,,,,,,,-0.107877604,-0.070907118,1,0,0,vreten,0,24,24,11,1
,,,,,00047,2023-10-20_19h47.53.997,vbt_B2_day4,2022.2.4,MacIntel,59.99880002,,,,,,,,,,,,,,,,,,,,soda,images/br_soda.png,images/cb_soda.png,,soda,,,,,,,,,,,-0.113615451,-0.076076389,1,0,0,soda,0,25,25,3,1
,,,,,00047,2023-10-20_19h47.53.997,vbt_B2_day4,2022.2.4,MacIntel,59.99880002,,,,,,,,,,,,,,,,,,,,mekst,images/br_mekst.png,images/cb_mekst.png,,mekst,,,,,,,,,,,-0.136757812,-0.111983507,1,0,0,mekst,0,26,26,27,1
,,,,,00047,2023-10-20_19h47.53.997,vbt_B2_day4,2022.2.4,MacIntel,59.99880002,,,,,,,,,,,,,,,,,,,,zaalrijk,images/br_zaalrijk.png,images/cb_zaalrijk.png,,zaalrijk,,,,,,,,,,,-0.141692708,-0.108424479,1,0,0,zaalrijk,0,27,27,37,1
,,,,,00047,2023-10-20_19h47.53.997,vbt_B2_day4,2022.2.4,MacIntel,59.99880002,,,,,,,,,,,,,,,,,,,,bruin,images/br_bruin.png,images/cb_bruin.png,,bruin,,,,,,,,,,,-0.151011285,-0.023784722,1,0,0,bruin,0,28,28,45,1
,,,,,00047,2023-10-20_19h47.53.997,vbt_B2_day4,2022.2.4,MacIntel,59.99880002,,,,,,,,,,,,,,,,,,,,schotel,images/br_schotel.png,images/cb_schotel.png,,schotel,,,,,,,,,,,-0.043085937,-0.013446181,1,0,0,schotel,0,29,29,52,1
,,,,,00047,2023-10-20_19h47.53.997,vbt_B2_day4,2022.2.4,MacIntel,59.99880002,,,,,,,,,,,,,,,,,,,,drummer,images/br_drummer.png,images/cb_drummer.png,,drummer,,,,,,,,,,,-0.053246528,-0.092508681,1,0,0,drummer,0,30,30,53,1
,,,,,00047,2023-10-20_19h47.53.997,vbt_B2_day4,2022.2.4,MacIntel,59.99880002,,,,,,,,,,,,,,,,,,,,stemming,images/br_stemming.png,images/cb_stemming.png,,stemming,,,,,,,,,,,-0.044322917,-0.095855035,1,0,0,stemming,0,31,31,18,1
,,,,,00047,2023-10-20_19h47.53.997,vbt_B2_day4,2022.2.4,MacIntel,59.99880002,,,,,,,,,,,,,,,,,,,,geliefd,images/br_geliefd.png,images/cb_geliefd.png,,geliefd,,,,,,,,,,,-0.070264757,-0.022860243,1,0,0,geliefd,0,32,32,14,1
,,,,,00047,2023-10-20_19h47.53.997,vbt_B2_day4,2022.2.4,MacIntel,59.99880002,,,,,,,,,,,,,,,,,,,,gedicht,images/br_gedicht.png,images/cb_gedicht.png,,gedicht,,,,,,,,,,,-0.131506076,-0.028480903,1,0,0,gedicht,0,33,33,15,1
,,,,,00047,2023-10-20_19h47.53.997,vbt_B2_day4,2022.2.4,MacIntel,59.99880002,,,,,,,,,,,,,,,,,,,,pijnlijk,images/br_pijnlijk.png,images/cb_pijnlijk.png,,pijnlijk,,,,,,,,,,,-0.152335069,-0.055824653,1,0,0,pijnlijk,0,34,34,58,1
,,,,,00047,2023-10-20_19h47.53.997,vbt_B2_day4,2022.2.4,MacIntel,59.99880002,,,,,,,,,,,,,,,,,,,,kust,images/br_kust.png,images/cb_kust.png,,kust,,,,,,,,,,,-0.076553819,-0.06233941,1,0,0,kust,0,35,35,0,1
,,,,,00047,2023-10-20_19h47.53.997,vbt_B2_day4,2022.2.4,MacIntel,59.99880002,,,,,,,,,,,,,,,,,,,,seizoen,images/br_seizoen.png,images/cb_seizoen.png,,seizoen,,,,,,,,,,,-0.148780382,-0.094904514,1,0,0,seizoen,0,36,36,13,1
,,,,,00047,2023-10-20_19h47.53.997,vbt_B2_day4,2022.2.4,MacIntel,59.99880002,,,,,,,,,,,,,,,,,,,,paalbaak,images/br_paalbaak.png,images/cb_paalbaak.png,,paalbaak,,,,,,,,,,,-0.176067708,-0.095846354,1,0,0,paalbaak,0,37,37,39,1
,,,,,00047,2023-10-20_19h47.53.997,vbt_B2_day4,2022.2.4,MacIntel,59.99880002,,,,,,,,,,,,,,,,,,,,bisschap,images/br_bisschap.png,images/cb_bisschap.png,,bisschop,,,,,,,,,,,-0.18015625,-0.050603299,1,0,0,bisschop,0,38,38,36,1
,,,,,00047,2023-10-20_19h47.53.997,vbt_B2_day4,2022.2.4,MacIntel,59.99880002,,,,,,,,,,,,,,,,,,,,pittig,images/br_pittig.png,images/cb_pittig.png,,pittig,,,,,,,,,,,-0.192105035,-0.031966146,1,0,0,pittig,0,39,39,51,1
,,,,,00047,2023-10-20_19h47.53.997,vbt_B2_day4,2022.2.4,MacIntel,59.99880002,,,,,,,,,,,,,,,,,,,,wagon,images/br_wagon.png,images/cb_wagon.png,,wagon,,,,,,,,,,,-0.060889757,0.051940104,1,0,0,wagon,0,40,40,4,1
,,,,,00047,2023-10-20_19h47.53.997,vbt_B2_day4,2022.2.4,MacIntel,59.99880002,,,,,,,,,,,,,,,,,,,,haza,images/br_haza.png,images/cb_haza.png,,haza,,,,,,,,,,,0.01375,0.055733507,1,0,0,haza,0,41,41,21,1
,,,,,00047,2023-10-20_19h47.53.997,vbt_B2_day4,2022.2.4,MacIntel,59.99880002,,,,,,,,,,,,,,,,,,,,apparaat,images/br_apparaat.png,images/cb_apparaat.png,,apparaat,,,,,,,,,,,-0.106046007,-0.017048611,1,0,0,apparaat,0,42,42,17,1
,,,,,00047,2023-10-20_19h47.53.997,vbt_B2_day4,2022.2.4,MacIntel,59.99880002,,,,,,,,,,,,,,,,,,,,fran,images/br_fran.png,images/cb_fran.png,,fran,,,,,,,,,,,-0.11203559,-0.063116319,1,0,0,fran,0,43,43,22,1
,,,,,00047,2023-10-20_19h47.53.997,vbt_B2_day4,2022.2.4,MacIntel,59.99880002,,,,,,,,,,,,,,,,,,,,lappen,images/br_lappen.png,images/cb_lappen.png,,lappen,,,,,,,,,,,-0.177248264,-0.028806424,1,0,0,lappen,0,44,44,49,1
,,,,,00047,2023-10-20_19h47.53.997,vbt_B2_day4,2022.2.4,MacIntel,59.99880002,,,,,,,,,,,,,,,,,,,,geheim,images/br_geheim.png,images/cb_geheim.png,,geheim,,,,,,,,,,,-0.149665799,-0.06265625,1,0,0,geheim,0,45,45,8,1
,,,,,00047,2023-10-20_19h47.53.997,vbt_B2_day4,2022.2.4,MacIntel,59.99880002,,,,,,,,,,,,,,,,,,,,gebog,images/br_gebog.png,images/cb_gebog.png,,gebog,,,,,,,,,,,-0.143802083,-0.026597222,1,0,0,gebog,0,46,46,24,1
,,,,,00047,2023-10-20_19h47.53.997,vbt_B2_day4,2022.2.4,MacIntel,59.99880002,,,,,,,,,,,,,,,,,,,,zwek,images/br_zwek.png,images/cb_zwek.png,,zwek,,,,,,,,,,,-0.117382813,-0.098506944,1,0,0,zwek,0,47,47,20,1
,,,,,00047,2023-10-20_19h47.53.997,vbt_B2_day4,2022.2.4,MacIntel,59.99880002,,,,,,,,,,,,,,,,,,,,praat,images/br_praat.png,images/cb_praat.png,,praat,,,,,,,,,,,-0.136614583,-0.030967882,1,0,0,praat,0,48,48,7,1
,,,,,00047,2023-10-20_19h47.53.997,vbt_B2_day4,2022.2.4,MacIntel,59.99880002,,,,,,,,,,,,,,,,,,,,ezel,images/br_ezel.png,images/cb_ezel.png,,ezel,,,,,,,,,,,-0.125889757,0.02484809,1,0,0,ezel,0,49,49,42,1
,,,,,00047,2023-10-20_19h47.53.997,vbt_B2_day4,2022.2.4,MacIntel,59.99880002,,,,,,,,,,,,,,,,,,,,snee,images/br_snee.png,images/cb_snee.png,,snee,,,,,,,,,,,-0.101649306,-0.023077257,1,0,0,snee,0,50,50,40,1
,,,,,00047,2023-10-20_19h47.53.997,vbt_B2_day4,2022.2.4,MacIntel,59.99880002,,,,,,,,,,,,,,,,,,,,strok,images/br_strok.png,images/cb_strok.png,,strok,,,,,,,,,,,-0.121896701,-0.094127604,1,0,0,strok,0,51,51,25,1
,,,,,00047,2023-10-20_19h47.53.997,vbt_B2_day4,2022.2.4,MacIntel,59.99880002,,,,,,,,,,,,,,,,,,,,heengaan,images/br_heengaan.png,images/cb_heengaan.png,,heengaan,,,,,,,,,,,-0.120173611,-0.314253472,1,0,0,heengaan,0,52,52,19,1
,,,,,00047,2023-10-20_19h47.53.997,vbt_B2_day4,2022.2.4,MacIntel,59.99880002,,,,,,,,,,,,,,,,,,,,warel,images/br_warel.png,images/cb_warel.png,,warel,,,,,,,,,,,-0.101527778,-0.094097222,1,0,0,warel,0,53,53,26,1
,,,,,00047,2023-10-20_19h47.53.997,vbt_B2_day4,2022.2.4,MacIntel,59.99880002,,,,,,,,,,,,,,,,,,,,aanzwaag,images/br_aanzwaag.png,images/cb_aanzwaag.png,,aanzwaag,,,,,,,,,,,-0.10937066,-0.038919271,1,0,0,aanzwaag,0,54,54,38,1
,,,,,00047,2023-10-20_19h47.53.997,vbt_B2_day4,2022.2.4,MacIntel,59.99880002,,,,,,,,,,,,,,,,,,,,eerst,images/br_eerst.png,images/cb_eerst.png,,eerst,,,,,,,,,,,-0.162521701,-0.083559028,1,0,0,eerst,0,55,55,47,1
,,,,,00047,2023-10-20_19h47.53.997,vbt_B2_day4,2022.2.4,MacIntel,59.99880002,,,,,,,,,,,,,,,,,,,,rijp,images/br_rijp.png,images/cb_rijp.png,,aij.,,,,,,,,,,,-0.123537326,-0.068962674,1,0,0,aij.,0,56,56,2,1
,,,,,00047,2023-10-20_19h47.53.997,vbt_B2_day4,2022.2.4,MacIntel,59.99880002,,,,,,,,,,,,,,,,,,,,schenden,images/br_schenden.png,images/cb_schenden.png,,schending,,,,,,,,,,,-0.14328125,-0.072317708,1,0,0,schending,0,57,57,57,1
,,,,,00047,2023-10-20_19h47.53.997,vbt_B2_day4,2022.2.4,MacIntel,59.99880002,,,,,,,,,,,,,,,,,,,,dalen,images/br_dalen.png,images/cb_dalen.png,,dalen,,,,,,,,,,,-0.134787326,0.007400174,1,0,0,dalen,0,58,58,46,1
,,,,,00047,2023-10-20_19h47.53.997,vbt_B2_day4,2022.2.4,MacIntel,59.99880002,,,,,,,,,,,,,,,,,,,,seizoon,images/br_seizoon.png,images/cb_seizoon.png,,seizoon,,,,,,,,,,,-0.167009549,-0.072916667,1,0,0,seizoon,0,59,59,33,1
,,,,,00047,2023-10-20_19h47.53.997,vbt_B2_day4,2022.2.4,MacIntel,59.99880002,,,,,,,,,,,,,,,,,,,,,,,,,,,,,,,,,,,,,,,,,,,,,
