welcome_mouse.x,welcome_mouse.y,welcome_mouse.leftButton,welcome_mouse.midButton,welcome_mouse.rightButton,"ID",date,expName,psychopyVersion,OS,frameRate,trainInstr_mouse.x,trainInstr_mouse.y,trainInstr_mouse.leftButton,trainInstr_mouse.midButton,trainInstr_mouse.rightButton,translation_key.keys,translation_key.corr,translation_key.rt,word_rsp.text,trWrd_mouse.x,trWrd_mouse.y,trWrd_mouse.leftButton,trWrd_mouse.midButton,trWrd_mouse.rightButton,train_loop.thisRepN,train_loop.thisTrialN,train_loop.thisN,train_loop.thisIndex,train_loop.ran,nlWrd,brWrd,cbWrd,test,testResp,mouse.x,mouse.y,mouse.leftButton,mouse.midButton,mouse.rightButton,testInstr_mouse.x,testInstr_mouse.y,testInstr_mouse.leftButton,testInstr_mouse.midButton,testInstr_mouse.rightButton,test_mouse.x,test_mouse.y,test_mouse.leftButton,test_mouse.midButton,test_mouse.rightButton,test_response.text,test_loop.thisRepN,test_loop.thisTrialN,test_loop.thisN,test_loop.thisIndex,test_loop.ran
-0.199074046,-0.275925954,1,0,0,00095,2023-11-24_22h43.50.458,vbt_B2_day4,2022.2.4,Win32,59.9268892,,,,,,,,,,,,,,,,,,,,,,,,,,,,,,,,,,,,,,,,,,,,,
,,,,,00095,2023-11-24_22h43.50.458,vbt_B2_day4,2022.2.4,Win32,59.9268892,-0.199074046,-0.275925954,1,0,0,,,,,,,,,,,,,,,,,,,,,,,,,,,,,,,,,,,,,,,,
,,,,,00095,2023-11-24_22h43.50.458,vbt_B2_day4,2022.2.4,Win32,59.9268892,,,,,,down,0,0.852299999,,-0.199074046,-0.275925954,1,0,0,0,0,0,191,1,opheffen,images/br_opheffen.png,images/cb_opheffen.png,0,,,,,,,,,,,,,,,,,,,,,,
,,,,,00095,2023-11-24_22h43.50.458,vbt_B2_day4,2022.2.4,Win32,59.9268892,,,,,,down,0,0.5725,,-0.199074046,-0.275925954,1,0,0,0,1,1,33,1,vlek,images/br_vlek.png,images/cb_vlek.png,0,,,,,,,,,,,,,,,,,,,,,,
,,,,,00095,2023-11-24_22h43.50.458,vbt_B2_day4,2022.2.4,Win32,59.9268892,,,,,,down,0,0.017200001,,-0.199074046,-0.275925954,1,0,0,0,2,2,22,1,stof,images/br_stof.png,images/cb_stof.png,0,,,,,,,,,,,,,,,,,,,,,,
,,,,,00095,2023-11-24_22h43.50.458,vbt_B2_day4,2022.2.4,Win32,59.9268892,,,,,,down,0,0.9985,,-0.199074046,-0.275925954,1,0,0,0,3,3,69,1,waken,images/br_waken.png,images/cb_waken.png,0,,,,,,,,,,,,,,,,,,,,,,
,,,,,00095,2023-11-24_22h43.50.458,vbt_B2_day4,2022.2.4,Win32,59.9268892,,,,,,down,0,0.8195,,-0.199074046,-0.275925954,1,0,0,0,4,4,139,1,stiekem,images/br_stiekem.png,images/cb_stiekem.png,0,,,,,,,,,,,,,,,,,,,,,,
,,,,,00095,2023-11-24_22h43.50.458,vbt_B2_day4,2022.2.4,Win32,59.9268892,,,,,,down,0,0.002,,-0.199074046,-0.275925954,1,0,0,0,5,5,83,1,mening,images/br_mening.png,images/cb_mening.png,0,,,,,,,,,,,,,,,,,,,,,,
,,,,,00095,2023-11-24_22h43.50.458,vbt_B2_day4,2022.2.4,Win32,59.9268892,,,,,,down,0,1.198699997,,-0.199074046,-0.275925954,1,0,0,0,6,6,175,1,heengaan,images/br_heengaan.png,images/cb_heengaan.png,0,,,,,,,,,,,,,,,,,,,,,,
,,,,,00095,2023-11-24_22h43.50.458,vbt_B2_day4,2022.2.4,Win32,59.9268892,,,,,,down,0,0.150799999,,-0.199074046,-0.275925954,1,0,0,0,7,7,98,1,kreeft,images/br_kreeft.png,images/cb_kreeft.png,0,,,,,,,,,,,,,,,,,,,,,,
,,,,,00095,2023-11-24_22h43.50.458,vbt_B2_day4,2022.2.4,Win32,59.9268892,,,,,,down,0,0.846299999,,-0.199074046,-0.275925954,1,0,0,0,8,8,198,1,bedoelen,images/br_bedoelen.png,images/cb_bedoelen.png,0,,,,,,,,,,,,,,,,,,,,,,
,,,,,00095,2023-11-24_22h43.50.458,vbt_B2_day4,2022.2.4,Win32,59.9268892,,,,,,down,0,0.218900002,,-0.199074046,-0.275925954,1,0,0,0,9,9,43,1,klauw,images/br_klauw.png,images/cb_klauw.png,0,,,,,,,,,,,,,,,,,,,,,,
,,,,,00095,2023-11-24_22h43.50.458,vbt_B2_day4,2022.2.4,Win32,59.9268892,,,,,,down,0,0.519600002,,-0.199074046,-0.275925954,1,0,0,0,10,10,86,1,woning,images/br_woning.png,images/cb_woning.png,0,,,,,,,,,,,,,,,,,,,,,,
,,,,,00095,2023-11-24_22h43.50.458,vbt_B2_day4,2022.2.4,Win32,59.9268892,,,,,,down,0,1.406200001,,-0.199074046,-0.275925954,1,0,0,0,11,11,135,1,gedicht,images/br_gedicht.png,images/cb_gedicht.png,0,,,,,,,,,,,,,,,,,,,,,,
,,,,,00095,2023-11-24_22h43.50.458,vbt_B2_day4,2022.2.4,Win32,59.9268892,,,,,,down,0,1.267599998,,-0.199074046,-0.275925954,1,0,0,0,12,12,36,1,vuur,images/br_vuur.png,images/cb_vuur.png,0,,,,,,,,,,,,,,,,,,,,,,
,,,,,00095,2023-11-24_22h43.50.458,vbt_B2_day4,2022.2.4,Win32,59.9268892,,,,,,down,0,2.864899998,,-0.199074046,-0.275925954,1,0,0,0,13,13,80,1,kanjer,images/br_kanjer.png,images/cb_kanjer.png,0,,,,,,,,,,,,,,,,,,,,,,
,,,,,00095,2023-11-24_22h43.50.458,vbt_B2_day4,2022.2.4,Win32,59.9268892,,,,,,down,0,10.0497,,-0.199074046,-0.275925954,1,0,0,0,14,14,164,1,anarchie,images/br_anarchie.png,images/cb_anarchie.png,0,,,,,,,,,,,,,,,,,,,,,,
,,,,,00095,2023-11-24_22h43.50.458,vbt_B2_day4,2022.2.4,Win32,59.9268892,,,,,,down,0,0.896599998,,-0.199074046,-0.275925954,1,0,0,0,15,15,42,1,bleek,images/br_bleek.png,images/cb_bleek.png,0,,,,,,,,,,,,,,,,,,,,,,
,,,,,00095,2023-11-24_22h43.50.458,vbt_B2_day4,2022.2.4,Win32,59.9268892,,,,,,down,0,1.2205,,-0.199074046,-0.275925954,1,0,0,0,16,16,14,1,rijp,images/br_rijp.png,images/cb_rijp.png,0,,,,,,,,,,,,,,,,,,,,,,
,,,,,00095,2023-11-24_22h43.50.458,vbt_B2_day4,2022.2.4,Win32,59.9268892,,,,,,down,0,0.068399998,,-0.199074046,-0.275925954,1,0,0,0,17,17,171,1,aarzelen,images/br_aarzelen.png,images/cb_aarzelen.png,0,,,,,,,,,,,,,,,,,,,,,,
,,,,,00095,2023-11-24_22h43.50.458,vbt_B2_day4,2022.2.4,Win32,59.9268892,,,,,,down,0,7.559700001,,-0.199074046,-0.275925954,1,0,0,0,18,18,168,1,bisschop,images/br_bisschop.png,images/cb_bisschop.png,0,,,,,,,,,,,,,,,,,,,,,,
,,,,,00095,2023-11-24_22h43.50.458,vbt_B2_day4,2022.2.4,Win32,59.9268892,,,,,,down,0,2.859200001,,-0.199074046,-0.275925954,1,0,0,0,19,19,105,1,wijlen,images/br_wijlen.png,images/cb_wijlen.png,1,wijlen,,,,,,,,,,,,,,,,,,,,,
,,,,,00095,2023-11-24_22h43.50.458,vbt_B2_day4,2022.2.4,Win32,59.9268892,,,,,,down,0,0.201700001,,-0.199074046,-0.275925954,1,0,0,0,20,20,61,1,groen,images/br_groen.png,images/cb_groen.png,0,,,,,,,,,,,,,,,,,,,,,,
,,,,,00095,2023-11-24_22h43.50.458,vbt_B2_day4,2022.2.4,Win32,59.9268892,,,,,,down,0,1.724399998,,-0.199074046,-0.275925954,1,0,0,0,21,21,185,1,mijnheer,images/br_mijnheer.png,images/cb_mijnheer.png,1,mijnheer,,,,,,,,,,,,,,,,,,,,,
,,,,,00095,2023-11-24_22h43.50.458,vbt_B2_day4,2022.2.4,Win32,59.9268892,,,,,,down,0,0.402599998,,-0.199074046,-0.275925954,1,0,0,0,22,22,112,1,lukken,images/br_lukken.png,images/cb_lukken.png,0,,,,,,,,,,,,,,,,,,,,,,
,,,,,00095,2023-11-24_22h43.50.458,vbt_B2_day4,2022.2.4,Win32,59.9268892,,,,,,down,0,1.8515,,-0.199074046,-0.275925954,1,0,0,0,23,23,62,1,knaap,images/br_knaap.png,images/cb_knaap.png,0,,,,,,,,,,,,,,,,,,,,,,
,,,,,00095,2023-11-24_22h43.50.458,vbt_B2_day4,2022.2.4,Win32,59.9268892,,,,,,down,0,0.826700001,,-0.199074046,-0.275925954,1,0,0,0,24,24,67,1,zwart,images/br_zwart.png,images/cb_zwart.png,1,zwart,,,,,,,,,,,,,,,,,,,,,
,,,,,00095,2023-11-24_22h43.50.458,vbt_B2_day4,2022.2.4,Win32,59.9268892,,,,,,down,0,0.100299999,,-0.199074046,-0.275925954,1,0,0,0,25,25,6,1,diep,images/br_diep.png,images/cb_diep.png,0,,,,,,,,,,,,,,,,,,,,,,
,,,,,00095,2023-11-24_22h43.50.458,vbt_B2_day4,2022.2.4,Win32,59.9268892,,,,,,down,0,1.172899998,,-0.199074046,-0.275925954,1,0,0,0,26,26,177,1,maaltijd,images/br_maaltijd.png,images/cb_maaltijd.png,0,,,,,,,,,,,,,,,,,,,,,,
,,,,,00095,2023-11-24_22h43.50.458,vbt_B2_day4,2022.2.4,Win32,59.9268892,,,,,,down,0,5.379900002,,-0.199074046,-0.275925954,1,0,0,0,27,27,85,1,heilig,images/br_heilig.png,images/cb_heilig.png,0,,,,,,,,,,,,,,,,,,,,,,
,,,,,00095,2023-11-24_22h43.50.458,vbt_B2_day4,2022.2.4,Win32,59.9268892,,,,,,down,0,0.305099998,,-0.199074046,-0.275925954,1,0,0,0,28,28,41,1,maken,images/br_maken.png,images/cb_maken.png,0,,,,,,,,,,,,,,,,,,,,,,
,,,,,00095,2023-11-24_22h43.50.458,vbt_B2_day4,2022.2.4,Win32,59.9268892,,,,,,down,0,0.227799999,,-0.199074046,-0.275925954,1,0,0,0,29,29,25,1,plek,images/br_plek.png,images/cb_plek.png,1,plek,,,,,,,,,,,,,,,,,,,,,
,,,,,00095,2023-11-24_22h43.50.458,vbt_B2_day4,2022.2.4,Win32,59.9268892,,,,,,down,0,0.117900002,,-0.199074046,-0.275925954,1,0,0,0,30,30,37,1,mijn,images/br_mijn.png,images/cb_mijn.png,0,,,,,,,,,,,,,,,,,,,,,,
,,,,,00095,2023-11-24_22h43.50.458,vbt_B2_day4,2022.2.4,Win32,59.9268892,,,,,,down,0,2.377,,-0.199074046,-0.275925954,1,0,0,0,31,31,179,1,woestijn,images/br_woestijn.png,images/cb_woestijn.png,0,,,,,,,,,,,,,,,,,,,,,,
,,,,,00095,2023-11-24_22h43.50.458,vbt_B2_day4,2022.2.4,Win32,59.9268892,,,,,,down,0,0.154800003,,-0.199074046,-0.275925954,1,0,0,0,32,32,176,1,techniek,images/br_techniek.png,images/cb_techniek.png,0,,,,,,,,,,,,,,,,,,,,,,
,,,,,00095,2023-11-24_22h43.50.458,vbt_B2_day4,2022.2.4,Win32,59.9268892,,,,,,down,0,0.702700001,,-0.199074046,-0.275925954,1,0,0,0,33,33,31,1,poes,images/br_poes.png,images/cb_poes.png,0,,,,,,,,,,,,,,,,,,,,,,
,,,,,00095,2023-11-24_22h43.50.458,vbt_B2_day4,2022.2.4,Win32,59.9268892,,,,,,down,0,7.432200001,,-0.199074046,-0.275925954,1,0,0,0,34,34,16,1,ziek,images/br_ziek.png,images/cb_ziek.png,0,,,,,,,,,,,,,,,,,,,,,,
,,,,,00095,2023-11-24_22h43.50.458,vbt_B2_day4,2022.2.4,Win32,59.9268892,,,,,,down,0,1.528,,-0.199074046,-0.275925954,1,0,0,0,35,35,20,1,site,images/br_site.png,images/cb_site.png,0,,,,,,,,,,,,,,,,,,,,,,
,,,,,00095,2023-11-24_22h43.50.458,vbt_B2_day4,2022.2.4,Win32,59.9268892,,,,,,down,0,1.966599998,,-0.199074046,-0.275925954,1,0,0,0,36,36,104,1,zweven,images/br_zweven.png,images/cb_zweven.png,1,zweven,,,,,,,,,,,,,,,,,,,,,
,,,,,00095,2023-11-24_22h43.50.458,vbt_B2_day4,2022.2.4,Win32,59.9268892,,,,,,down,0,2.2035,,-0.199074046,-0.275925954,1,0,0,0,37,37,178,1,huisdier,images/br_huisdier.png,images/cb_huisdier.png,0,,,,,,,,,,,,,,,,,,,,,,
,,,,,00095,2023-11-24_22h43.50.458,vbt_B2_day4,2022.2.4,Win32,59.9268892,,,,,,down,0,0.238799999,,-0.199074046,-0.275925954,1,0,0,0,38,38,70,1,ijdel,images/br_ijdel.png,images/cb_ijdel.png,0,,,,,,,,,,,,,,,,,,,,,,
,,,,,00095,2023-11-24_22h43.50.458,vbt_B2_day4,2022.2.4,Win32,59.9268892,,,,,,down,0,0.079799999,,-0.199074046,-0.275925954,1,0,0,0,39,39,32,1,palm,images/br_palm.png,images/cb_palm.png,0,,,,,,,,,,,,,,,,,,,,,,
,,,,,00095,2023-11-24_22h43.50.458,vbt_B2_day4,2022.2.4,Win32,59.9268892,,,,,,down,0,0.405,,-0.199074046,-0.275925954,1,0,0,0,40,40,47,1,kabel,images/br_kabel.png,images/cb_kabel.png,0,,,,,,,,,,,,,,,,,,,,,,
,,,,,00095,2023-11-24_22h43.50.458,vbt_B2_day4,2022.2.4,Win32,59.9268892,,,,,,down,0,0.284399998,,-0.199074046,-0.275925954,1,0,0,0,41,41,50,1,stoom,images/br_stoom.png,images/cb_stoom.png,0,,,,,,,,,,,,,,,,,,,,,,
,,,,,00095,2023-11-24_22h43.50.458,vbt_B2_day4,2022.2.4,Win32,59.9268892,,,,,,down,0,0.203299999,,-0.199074046,-0.275925954,1,0,0,0,42,42,52,1,wagon,images/br_wagon.png,images/cb_wagon.png,0,,,,,,,,,,,,,,,,,,,,,,
,,,,,00095,2023-11-24_22h43.50.458,vbt_B2_day4,2022.2.4,Win32,59.9268892,,,,,,down,0,0.688400002,,-0.199074046,-0.275925954,1,0,0,0,43,43,18,1,blik,images/br_blik.png,images/cb_blik.png,0,,,,,,,,,,,,,,,,,,,,,,
,,,,,00095,2023-11-24_22h43.50.458,vbt_B2_day4,2022.2.4,Win32,59.9268892,,,,,,down,0,2.520599998,,-0.199074046,-0.275925954,1,0,0,0,44,44,189,1,aanraden,images/br_aanraden.png,images/cb_aanraden.png,0,,,,,,,,,,,,,,,,,,,,,,
,,,,,00095,2023-11-24_22h43.50.458,vbt_B2_day4,2022.2.4,Win32,59.9268892,,,,,,down,0,1.499899998,,-0.199074046,-0.275925954,1,0,0,0,45,45,34,1,vorm,images/br_vorm.png,images/cb_vorm.png,0,,,,,,,,,,,,,,,,,,,,,,
,,,,,00095,2023-11-24_22h43.50.458,vbt_B2_day4,2022.2.4,Win32,59.9268892,,,,,,down,0,0.32,,-0.199074046,-0.275925954,1,0,0,0,46,46,90,1,geluid,images/br_geluid.png,images/cb_geluid.png,0,,,,,,,,,,,,,,,,,,,,,,
,,,,,00095,2023-11-24_22h43.50.458,vbt_B2_day4,2022.2.4,Win32,59.9268892,,,,,,down,0,9.529199997,,-0.199074046,-0.275925954,1,0,0,0,47,47,65,1,parel,images/br_parel.png,images/cb_parel.png,1,parel,,,,,,,,,,,,,,,,,,,,,
,,,,,00095,2023-11-24_22h43.50.458,vbt_B2_day4,2022.2.4,Win32,59.9268892,,,,,,down,0,0.6435,,-0.199074046,-0.275925954,1,0,0,0,48,48,7,1,geld,images/br_geld.png,images/cb_geld.png,0,,,,,,,,,,,,,,,,,,,,,,
,,,,,00095,2023-11-24_22h43.50.458,vbt_B2_day4,2022.2.4,Win32,59.9268892,,,,,,down,0,0.313,,-0.199074046,-0.275925954,1,0,0,0,49,49,1,1,zaal,images/br_zaal.png,images/cb_zaal.png,0,,,,,,,,,,,,,,,,,,,,,,
,,,,,00095,2023-11-24_22h43.50.458,vbt_B2_day4,2022.2.4,Win32,59.9268892,,,,,,down,0,0.116299999,,-0.199074046,-0.275925954,1,0,0,0,50,50,101,1,staren,images/br_staren.png,images/cb_staren.png,0,,,,,,,,,,,,,,,,,,,,,,
,,,,,00095,2023-11-24_22h43.50.458,vbt_B2_day4,2022.2.4,Win32,59.9268892,,,,,,down,0,0.175299999,,-0.199074046,-0.275925954,1,0,0,0,51,51,140,1,blijven,images/br_blijven.png,images/cb_blijven.png,0,,,,,,,,,,,,,,,,,,,,,,
,,,,,00095,2023-11-24_22h43.50.458,vbt_B2_day4,2022.2.4,Win32,59.9268892,,,,,,down,0,0.301799999,,-0.199074046,-0.275925954,1,0,0,0,52,52,15,1,soda,images/br_soda.png,images/cb_soda.png,0,,,,,,,,,,,,,,,,,,,,,,
,,,,,00095,2023-11-24_22h43.50.458,vbt_B2_day4,2022.2.4,Win32,59.9268892,,,,,,down,0,0.753599998,,-0.199074046,-0.275925954,1,0,0,0,53,53,26,1,leuk,images/br_leuk.png,images/cb_leuk.png,1,leuk,,,,,,,,,,,,,,,,,,,,,
,,,,,00095,2023-11-24_22h43.50.458,vbt_B2_day4,2022.2.4,Win32,59.9268892,,,,,,down,0,0.184899998,,-0.199074046,-0.275925954,1,0,0,0,54,54,77,1,woede,images/br_woede.png,images/cb_woede.png,0,,,,,,,,,,,,,,,,,,,,,,
,,,,,00095,2023-11-24_22h43.50.458,vbt_B2_day4,2022.2.4,Win32,59.9268892,,,,,,down,0,0.132700001,,-0.199074046,-0.275925954,1,0,0,0,55,55,114,1,vullen,images/br_vullen.png,images/cb_vullen.png,0,,,,,,,,,,,,,,,,,,,,,,
,,,,,00095,2023-11-24_22h43.50.458,vbt_B2_day4,2022.2.4,Win32,59.9268892,,,,,,down,0,7.679200001,,-0.199074046,-0.275925954,1,0,0,0,56,56,122,1,waarvan,images/br_waarvan.png,images/cb_waarvan.png,0,,,,,,,,,,,,,,,,,,,,,,
,,,,,00095,2023-11-24_22h43.50.458,vbt_B2_day4,2022.2.4,Win32,59.9268892,,,,,,down,0,1.239,,-0.199074046,-0.275925954,1,0,0,0,57,57,128,1,prikken,images/br_prikken.png,images/cb_prikken.png,0,,,,,,,,,,,,,,,,,,,,,,
,,,,,00095,2023-11-24_22h43.50.458,vbt_B2_day4,2022.2.4,Win32,59.9268892,,,,,,down,0,0.342900002,,-0.199074046,-0.275925954,1,0,0,0,58,58,121,1,twijfel,images/br_twijfel.png,images/cb_twijfel.png,0,,,,,,,,,,,,,,,,,,,,,,
,,,,,00095,2023-11-24_22h43.50.458,vbt_B2_day4,2022.2.4,Win32,59.9268892,,,,,,down,0,0.234,,-0.199074046,-0.275925954,1,0,0,0,59,59,57,1,steek,images/br_steek.png,images/cb_steek.png,0,,,,,,,,,,,,,,,,,,,,,,
,,,,,00095,2023-11-24_22h43.50.458,vbt_B2_day4,2022.2.4,Win32,59.9268892,,,,,,down,0,0.022299999,,-0.199074046,-0.275925954,1,0,0,0,60,60,72,1,strak,images/br_strak.png,images/cb_strak.png,0,,,,,,,,,,,,,,,,,,,,,,
,,,,,00095,2023-11-24_22h43.50.458,vbt_B2_day4,2022.2.4,Win32,59.9268892,,,,,,down,0,0.389700001,,-0.199074046,-0.275925954,1,0,0,0,61,61,5,1,blad,images/br_blad.png,images/cb_blad.png,0,,,,,,,,,,,,,,,,,,,,,,
,,,,,00095,2023-11-24_22h43.50.458,vbt_B2_day4,2022.2.4,Win32,59.9268892,,,,,,down,0,0.151299999,,-0.199074046,-0.275925954,1,0,0,0,62,62,8,1,knie,images/br_knie.png,images/cb_knie.png,0,,,,,,,,,,,,,,,,,,,,,,
,,,,,00095,2023-11-24_22h43.50.458,vbt_B2_day4,2022.2.4,Win32,59.9268892,,,,,,down,0,0.1015,,-0.199074046,-0.275925954,1,0,0,0,63,63,40,1,schep,images/br_schep.png,images/cb_schep.png,0,,,,,,,,,,,,,,,,,,,,,,
,,,,,00095,2023-11-24_22h43.50.458,vbt_B2_day4,2022.2.4,Win32,59.9268892,,,,,,down,0,0.689,,-0.199074046,-0.275925954,1,0,0,0,64,64,160,1,daarheen,images/br_daarheen.png,images/cb_daarheen.png,0,,,,,,,,,,,,,,,,,,,,,,
,,,,,00095,2023-11-24_22h43.50.458,vbt_B2_day4,2022.2.4,Win32,59.9268892,,,,,,down,0,0.141699997,,-0.199074046,-0.275925954,1,0,0,0,65,65,3,1,mand,images/br_mand.png,images/cb_mand.png,0,,,,,,,,,,,,,,,,,,,,,,
,,,,,00095,2023-11-24_22h43.50.458,vbt_B2_day4,2022.2.4,Win32,59.9268892,,,,,,down,0,0.383900002,,-0.199074046,-0.275925954,1,0,0,0,66,66,113,1,koppen,images/br_koppen.png,images/cb_koppen.png,0,,,,,,,,,,,,,,,,,,,,,,
,,,,,00095,2023-11-24_22h43.50.458,vbt_B2_day4,2022.2.4,Win32,59.9268892,,,,,,down,0,0.632900002,,-0.199074046,-0.275925954,1,0,0,0,67,67,11,1,mode,images/br_mode.png,images/cb_mode.png,0,,,,,,,,,,,,,,,,,,,,,,
,,,,,00095,2023-11-24_22h43.50.458,vbt_B2_day4,2022.2.4,Win32,59.9268892,,,,,,down,0,0.685900002,,-0.199074046,-0.275925954,1,0,0,0,68,68,194,1,driemaal,images/br_driemaal.png,images/cb_driemaal.png,0,,,,,,,,,,,,,,,,,,,,,,
,,,,,00095,2023-11-24_22h43.50.458,vbt_B2_day4,2022.2.4,Win32,59.9268892,,,,,,down,0,0.083,,-0.199074046,-0.275925954,1,0,0,0,69,69,127,1,doodmoe,images/br_doodmoe.png,images/cb_doodmoe.png,0,,,,,,,,,,,,,,,,,,,,,,
,,,,,00095,2023-11-24_22h43.50.458,vbt_B2_day4,2022.2.4,Win32,59.9268892,,,,,,down,0,0.001700001,,-0.199074046,-0.275925954,1,0,0,0,70,70,197,1,spanning,images/br_spanning.png,images/cb_spanning.png,0,,,,,,,,,,,,,,,,,,,,,,
,,,,,00095,2023-11-24_22h43.50.458,vbt_B2_day4,2022.2.4,Win32,59.9268892,,,,,,down,0,0.1,,-0.199074046,-0.275925954,1,0,0,0,71,71,141,1,knielen,images/br_knielen.png,images/cb_knielen.png,0,,,,,,,,,,,,,,,,,,,,,,
,,,,,00095,2023-11-24_22h43.50.458,vbt_B2_day4,2022.2.4,Win32,59.9268892,,,,,,down,0,0.127400002,,-0.199074046,-0.275925954,1,0,0,0,72,72,73,1,volop,images/br_volop.png,images/cb_volop.png,0,,,,,,,,,,,,,,,,,,,,,,
,,,,,00095,2023-11-24_22h43.50.458,vbt_B2_day4,2022.2.4,Win32,59.9268892,,,,,,down,0,0.402599998,,-0.199074046,-0.275925954,1,0,0,0,73,73,110,1,zuster,images/br_zuster.png,images/cb_zuster.png,0,,,,,,,,,,,,,,,,,,,,,,
,,,,,00095,2023-11-24_22h43.50.458,vbt_B2_day4,2022.2.4,Win32,59.9268892,,,,,,down,0,0.8875,,-0.199074046,-0.275925954,1,0,0,0,74,74,123,1,hiervan,images/br_hiervan.png,images/cb_hiervan.png,0,,,,,,,,,,,,,,,,,,,,,,
,,,,,00095,2023-11-24_22h43.50.458,vbt_B2_day4,2022.2.4,Win32,59.9268892,,,,,,down,0,0.934400002,,-0.199074046,-0.275925954,1,0,0,0,75,75,126,1,kasteel,images/br_kasteel.png,images/cb_kasteel.png,0,,,,,,,,,,,,,,,,,,,,,,
,,,,,00095,2023-11-24_22h43.50.458,vbt_B2_day4,2022.2.4,Win32,59.9268892,,,,,,down,0,0.738900002,,-0.199074046,-0.275925954,1,0,0,0,76,76,170,1,schatten,images/br_schatten.png,images/cb_schatten.png,0,,,,,,,,,,,,,,,,,,,,,,
,,,,,00095,2023-11-24_22h43.50.458,vbt_B2_day4,2022.2.4,Win32,59.9268892,,,,,,down,0,1.037200001,,-0.199074046,-0.275925954,1,0,0,0,77,77,158,1,innemen,images/br_innemen.png,images/cb_innemen.png,0,,,,,,,,,,,,,,,,,,,,,,
,,,,,00095,2023-11-24_22h43.50.458,vbt_B2_day4,2022.2.4,Win32,59.9268892,,,,,,down,0,0.334299999,,-0.199074046,-0.275925954,1,0,0,0,78,78,192,1,schaamte,images/br_schaamte.png,images/cb_schaamte.png,0,,,,,,,,,,,,,,,,,,,,,,
,,,,,00095,2023-11-24_22h43.50.458,vbt_B2_day4,2022.2.4,Win32,59.9268892,,,,,,down,0,0.510600002,,-0.199074046,-0.275925954,1,0,0,0,79,79,59,1,kring,images/br_kring.png,images/cb_kring.png,0,,,,,,,,,,,,,,,,,,,,,,
,,,,,00095,2023-11-24_22h43.50.458,vbt_B2_day4,2022.2.4,Win32,59.9268892,,,,,,down,0,0.034099998,,-0.199074046,-0.275925954,1,0,0,0,80,80,133,1,seizoen,images/br_seizoen.png,images/cb_seizoen.png,0,,,,,,,,,,,,,,,,,,,,,,
,,,,,00095,2023-11-24_22h43.50.458,vbt_B2_day4,2022.2.4,Win32,59.9268892,,,,,,down,0,2.3495,,-0.199074046,-0.275925954,1,0,0,0,81,81,183,1,getuigen,images/br_getuigen.png,images/cb_getuigen.png,0,,,,,,,,,,,,,,,,,,,,,,
,,,,,00095,2023-11-24_22h43.50.458,vbt_B2_day4,2022.2.4,Win32,59.9268892,,,,,,down,0,2.423799999,,-0.199074046,-0.275925954,1,0,0,0,82,82,145,1,invloed,images/br_invloed.png,images/cb_invloed.png,1,invloed,,,,,,,,,,,,,,,,,,,,,
,,,,,00095,2023-11-24_22h43.50.458,vbt_B2_day4,2022.2.4,Win32,59.9268892,,,,,,down,0,5.283299999,,-0.199074046,-0.275925954,1,0,0,0,83,83,196,1,nakijken,images/br_nakijken.png,images/cb_nakijken.png,0,,,,,,,,,,,,,,,,,,,,,,
,,,,,00095,2023-11-24_22h43.50.458,vbt_B2_day4,2022.2.4,Win32,59.9268892,,,,,,down,0,0.284700001,,-0.199074046,-0.275925954,1,0,0,0,84,84,81,1,dubbel,images/br_dubbel.png,images/cb_dubbel.png,0,,,,,,,,,,,,,,,,,,,,,,
,,,,,00095,2023-11-24_22h43.50.458,vbt_B2_day4,2022.2.4,Win32,59.9268892,,,,,,down,0,0.064200001,,-0.199074046,-0.275925954,1,0,0,0,85,85,102,1,legaal,images/br_legaal.png,images/cb_legaal.png,0,,,,,,,,,,,,,,,,,,,,,,
,,,,,00095,2023-11-24_22h43.50.458,vbt_B2_day4,2022.2.4,Win32,59.9268892,,,,,,down,0,0.783300003,,-0.199074046,-0.275925954,1,0,0,0,86,86,190,1,goedkoop,images/br_goedkoop.png,images/cb_goedkoop.png,0,,,,,,,,,,,,,,,,,,,,,,
,,,,,00095,2023-11-24_22h43.50.458,vbt_B2_day4,2022.2.4,Win32,59.9268892,,,,,,down,0,1.678900002,,-0.199074046,-0.275925954,1,0,0,0,87,87,24,1,jurk,images/br_jurk.png,images/cb_jurk.png,1,jurk,,,,,,,,,,,,,,,,,,,,,
,,,,,00095,2023-11-24_22h43.50.458,vbt_B2_day4,2022.2.4,Win32,59.9268892,,,,,,down,0,1.454200001,,-0.199074046,-0.275925954,1,0,0,0,88,88,152,1,afnemen,images/br_afnemen.png,images/cb_afnemen.png,0,,,,,,,,,,,,,,,,,,,,,,
,,,,,00095,2023-11-24_22h43.50.458,vbt_B2_day4,2022.2.4,Win32,59.9268892,,,,,,down,0,0.138899998,,-0.199074046,-0.275925954,1,0,0,0,89,89,115,1,kleren,images/br_kleren.png,images/cb_kleren.png,0,,,,,,,,,,,,,,,,,,,,,,
,,,,,00095,2023-11-24_22h43.50.458,vbt_B2_day4,2022.2.4,Win32,59.9268892,,,,,,down,0,0.233400002,,-0.199074046,-0.275925954,1,0,0,0,90,90,167,1,eenhoorn,images/br_eenhoorn.png,images/cb_eenhoorn.png,0,,,,,,,,,,,,,,,,,,,,,,
,,,,,00095,2023-11-24_22h43.50.458,vbt_B2_day4,2022.2.4,Win32,59.9268892,,,,,,down,0,0.351400002,,-0.199074046,-0.275925954,1,0,0,0,91,91,151,1,aanzoek,images/br_aanzoek.png,images/cb_aanzoek.png,0,,,,,,,,,,,,,,,,,,,,,,
,,,,,00095,2023-11-24_22h43.50.458,vbt_B2_day4,2022.2.4,Win32,59.9268892,,,,,,down,0,0.751900002,,-0.199074046,-0.275925954,1,0,0,0,92,92,137,1,trekker,images/br_trekker.png,images/cb_trekker.png,0,,,,,,,,,,,,,,,,,,,,,,
,,,,,00095,2023-11-24_22h43.50.458,vbt_B2_day4,2022.2.4,Win32,59.9268892,,,,,,down,0,0.294200001,,-0.199074046,-0.275925954,1,0,0,0,93,93,56,1,traag,images/br_traag.png,images/cb_traag.png,0,,,,,,,,,,,,,,,,,,,,,,
,,,,,00095,2023-11-24_22h43.50.458,vbt_B2_day4,2022.2.4,Win32,59.9268892,,,,,,down,0,2.700099998,,-0.199074046,-0.275925954,1,0,0,0,94,94,193,1,weeshuis,images/br_weeshuis.png,images/cb_weeshuis.png,0,,,,,,,,,,,,,,,,,,,,,,
,,,,,00095,2023-11-24_22h43.50.458,vbt_B2_day4,2022.2.4,Win32,59.9268892,,,,,,down,0,0.055799999,,-0.199074046,-0.275925954,1,0,0,0,95,95,108,1,excuus,images/br_excuus.png,images/cb_excuus.png,0,,,,,,,,,,,,,,,,,,,,,,
,,,,,00095,2023-11-24_22h43.50.458,vbt_B2_day4,2022.2.4,Win32,59.9268892,,,,,,down,0,1.4025,,-0.199074046,-0.275925954,1,0,0,0,96,96,146,1,opkomen,images/br_opkomen.png,images/cb_opkomen.png,1,opkomen,,,,,,,,,,,,,,,,,,,,,
,,,,,00095,2023-11-24_22h43.50.458,vbt_B2_day4,2022.2.4,Win32,59.9268892,,,,,,down,0,2.000799999,,-0.199074046,-0.275925954,1,0,0,0,97,97,144,1,eetlust,images/br_eetlust.png,images/cb_eetlust.png,1,,,,,,,,,,,,,,,,,,,,,,
,,,,,00095,2023-11-24_22h43.50.458,vbt_B2_day4,2022.2.4,Win32,59.9268892,,,,,,down,0,0.105600002,,-0.199074046,-0.275925954,1,0,0,0,98,98,116,1,besmet,images/br_besmet.png,images/cb_besmet.png,0,,,,,,,,,,,,,,,,,,,,,,
,,,,,00095,2023-11-24_22h43.50.458,vbt_B2_day4,2022.2.4,Win32,59.9268892,,,,,,down,0,0.188,,-0.199074046,-0.275925954,1,0,0,0,99,99,45,1,piste,images/br_piste.png,images/cb_piste.png,0,,,,,,,,,,,,,,,,,,,,,,
,,,,,00095,2023-11-24_22h43.50.458,vbt_B2_day4,2022.2.4,Win32,59.9268892,,,,,,down,0,1.663200001,,-0.199074046,-0.275925954,1,0,0,0,100,100,134,1,geliefd,images/br_geliefd.png,images/cb_geliefd.png,0,,,,,,,,,,,,,,,,,,,,,,
,,,,,00095,2023-11-24_22h43.50.458,vbt_B2_day4,2022.2.4,Win32,59.9268892,,,,,,down,0,0.520300003,,-0.199074046,-0.275925954,1,0,0,0,101,101,35,1,lust,images/br_lust.png,images/cb_lust.png,0,,,,,,,,,,,,,,,,,,,,,,
,,,,,00095,2023-11-24_22h43.50.458,vbt_B2_day4,2022.2.4,Win32,59.9268892,,,,,,down,0,0.237399998,,-0.199074046,-0.275925954,1,0,0,0,102,102,87,1,toeval,images/br_toeval.png,images/cb_toeval.png,0,,,,,,,,,,,,,,,,,,,,,,
,,,,,00095,2023-11-24_22h43.50.458,vbt_B2_day4,2022.2.4,Win32,59.9268892,,,,,,down,0,0.2395,,-0.199074046,-0.275925954,1,0,0,0,103,103,10,1,leek,images/br_leek.png,images/cb_leek.png,0,,,,,,,,,,,,,,,,,,,,,,
,,,,,00095,2023-11-24_22h43.50.458,vbt_B2_day4,2022.2.4,Win32,59.9268892,,,,,,down,0,0.083900002,,-0.199074046,-0.275925954,1,0,0,0,104,104,75,1,snoep,images/br_snoep.png,images/cb_snoep.png,0,,,,,,,,,,,,,,,,,,,,,,
,,,,,00095,2023-11-24_22h43.50.458,vbt_B2_day4,2022.2.4,Win32,59.9268892,,,,,,down,0,1.304800003,,-0.199074046,-0.275925954,1,0,0,0,105,105,165,1,feestdag,images/br_feestdag.png,images/cb_feestdag.png,0,,,,,,,,,,,,,,,,,,,,,,
,,,,,00095,2023-11-24_22h43.50.458,vbt_B2_day4,2022.2.4,Win32,59.9268892,,,,,,down,0,1.073899998,,-0.199074046,-0.275925954,1,0,0,0,106,106,157,1,uitlaat,images/br_uitlaat.png,images/cb_uitlaat.png,0,,,,,,,,,,,,,,,,,,,,,,
,,,,,00095,2023-11-24_22h43.50.458,vbt_B2_day4,2022.2.4,Win32,59.9268892,,,,,,down,0,0.384,,-0.199074046,-0.275925954,1,0,0,0,107,107,17,1,taal,images/br_taal.png,images/cb_taal.png,0,,,,,,,,,,,,,,,,,,,,,,
,,,,,00095,2023-11-24_22h43.50.458,vbt_B2_day4,2022.2.4,Win32,59.9268892,,,,,,down,0,0.052200001,,-0.199074046,-0.275925954,1,0,0,0,108,108,89,1,slapen,images/br_slapen.png,images/cb_slapen.png,0,,,,,,,,,,,,,,,,,,,,,,
,,,,,00095,2023-11-24_22h43.50.458,vbt_B2_day4,2022.2.4,Win32,59.9268892,,,,,,down,0,0.118600002,,-0.199074046,-0.275925954,1,0,0,0,109,109,174,1,stemming,images/br_stemming.png,images/cb_stemming.png,0,,,,,,,,,,,,,,,,,,,,,,
,,,,,00095,2023-11-24_22h43.50.458,vbt_B2_day4,2022.2.4,Win32,59.9268892,,,,,,down,0,0.266799999,,-0.199074046,-0.275925954,1,0,0,0,110,110,169,1,oprotten,images/br_oprotten.png,images/cb_oprotten.png,0,,,,,,,,,,,,,,,,,,,,,,
,,,,,00095,2023-11-24_22h43.50.458,vbt_B2_day4,2022.2.4,Win32,59.9268892,,,,,,down,0,0.8055,,-0.199074046,-0.275925954,1,0,0,0,111,111,66,1,lever,images/br_lever.png,images/cb_lever.png,1,lever,,,,,,,,,,,,,,,,,,,,,
,,,,,00095,2023-11-24_22h43.50.458,vbt_B2_day4,2022.2.4,Win32,59.9268892,,,,,,down,0,0.153599998,,-0.199074046,-0.275925954,1,0,0,0,112,112,109,1,totaal,images/br_totaal.png,images/cb_totaal.png,0,,,,,,,,,,,,,,,,,,,,,,
,,,,,00095,2023-11-24_22h43.50.458,vbt_B2_day4,2022.2.4,Win32,59.9268892,,,,,,down,0,10.6813,,-0.199074046,-0.275925954,1,0,0,0,113,113,94,1,oceaan,images/br_oceaan.png,images/cb_oceaan.png,0,,,,,,,,,,,,,,,,,,,,,,
,,,,,00095,2023-11-24_22h43.50.458,vbt_B2_day4,2022.2.4,Win32,59.9268892,,,,,,down,0,6.633200001,,-0.199074046,-0.275925954,1,0,0,0,114,114,149,1,redding,images/br_redding.png,images/cb_redding.png,0,,,,,,,,,,,,,,,,,,,,,,
,,,,,00095,2023-11-24_22h43.50.458,vbt_B2_day4,2022.2.4,Win32,59.9268892,,,,,,down,0,1.197700001,,-0.199074046,-0.275925954,1,0,0,0,115,115,182,1,bijkomen,images/br_bijkomen.png,images/cb_bijkomen.png,0,,,,,,,,,,,,,,,,,,,,,,
,,,,,00095,2023-11-24_22h43.50.458,vbt_B2_day4,2022.2.4,Win32,59.9268892,,,,,,down,0,1.119100002,,-0.199074046,-0.275925954,1,0,0,0,116,116,184,1,aandelen,images/br_aandelen.png,images/cb_aandelen.png,1,aandelen,,,,,,,,,,,,,,,,,,,,,
,,,,,00095,2023-11-24_22h43.50.458,vbt_B2_day4,2022.2.4,Win32,59.9268892,,,,,,down,0,0.736600002,,-0.199074046,-0.275925954,1,0,0,0,117,117,2,1,jaar,images/br_jaar.png,images/cb_jaar.png,0,,,,,,,,,,,,,,,,,,,,,,
,,,,,00095,2023-11-24_22h43.50.458,vbt_B2_day4,2022.2.4,Win32,59.9268892,,,,,,down,0,0.483200001,,-0.199074046,-0.275925954,1,0,0,0,118,118,46,1,jagen,images/br_jagen.png,images/cb_jagen.png,0,,,,,,,,,,,,,,,,,,,,,,
,,,,,00095,2023-11-24_22h43.50.458,vbt_B2_day4,2022.2.4,Win32,59.9268892,,,,,,down,0,0.124,,-0.199074046,-0.275925954,1,0,0,0,119,119,74,1,graaf,images/br_graaf.png,images/cb_graaf.png,0,,,,,,,,,,,,,,,,,,,,,,
,,,,,00095,2023-11-24_22h43.50.458,vbt_B2_day4,2022.2.4,Win32,59.9268892,,,,,,down,0,4.787,,-0.199074046,-0.275925954,1,0,0,0,120,120,100,1,geduld,images/br_geduld.png,images/cb_geduld.png,0,,,,,,,,,,,,,,,,,,,,,,
,,,,,00095,2023-11-24_22h43.50.458,vbt_B2_day4,2022.2.4,Win32,59.9268892,,,,,,down,0,0.2205,,-0.199074046,-0.275925954,1,0,0,0,121,121,44,1,flits,images/br_flits.png,images/cb_flits.png,0,,,,,,,,,,,,,,,,,,,,,,
,,,,,00095,2023-11-24_22h43.50.458,vbt_B2_day4,2022.2.4,Win32,59.9268892,,,,,,down,0,0.501699997,,-0.199074046,-0.275925954,1,0,0,0,122,122,49,1,laken,images/br_laken.png,images/cb_laken.png,0,,,,,,,,,,,,,,,,,,,,,,
,,,,,00095,2023-11-24_22h43.50.458,vbt_B2_day4,2022.2.4,Win32,59.9268892,,,,,,down,0,0.6195,,-0.199074046,-0.275925954,1,0,0,0,123,123,129,1,verhaal,images/br_verhaal.png,images/cb_verhaal.png,0,,,,,,,,,,,,,,,,,,,,,,
,,,,,00095,2023-11-24_22h43.50.458,vbt_B2_day4,2022.2.4,Win32,59.9268892,,,,,,down,0,0.291,,-0.199074046,-0.275925954,1,0,0,0,124,124,23,1,zout,images/br_zout.png,images/cb_zout.png,0,,,,,,,,,,,,,,,,,,,,,,
,,,,,00095,2023-11-24_22h43.50.458,vbt_B2_day4,2022.2.4,Win32,59.9268892,,,,,,down,0,4.531800003,,-0.199074046,-0.275925954,1,0,0,0,125,125,118,1,vinger,images/br_vinger.png,images/cb_vinger.png,0,,,,,,,,,,,,,,,,,,,,,,
,,,,,00095,2023-11-24_22h43.50.458,vbt_B2_day4,2022.2.4,Win32,59.9268892,,,,,,down,0,3.215,,-0.199074046,-0.275925954,1,0,0,0,126,126,53,1,baron,images/br_baron.png,images/cb_baron.png,0,,,,,,,,,,,,,,,,,,,,,,
,,,,,00095,2023-11-24_22h43.50.458,vbt_B2_day4,2022.2.4,Win32,59.9268892,,,,,,down,0,0.242799999,,-0.199074046,-0.275925954,1,0,0,0,127,127,55,1,praat,images/br_praat.png,images/cb_praat.png,0,,,,,,,,,,,,,,,,,,,,,,
,,,,,00095,2023-11-24_22h43.50.458,vbt_B2_day4,2022.2.4,Win32,59.9268892,,,,,,down,0,0.570299999,,-0.199074046,-0.275925954,1,0,0,0,128,128,54,1,gebit,images/br_gebit.png,images/cb_gebit.png,0,,,,,,,,,,,,,,,,,,,,,,
,,,,,00095,2023-11-24_22h43.50.458,vbt_B2_day4,2022.2.4,Win32,59.9268892,,,,,,down,0,0.3515,,-0.199074046,-0.275925954,1,0,0,0,129,129,78,1,leren,images/br_leren.png,images/cb_leren.png,0,,,,,,,,,,,,,,,,,,,,,,
,,,,,00095,2023-11-24_22h43.50.458,vbt_B2_day4,2022.2.4,Win32,59.9268892,,,,,,down,0,0.267100002,,-0.199074046,-0.275925954,1,0,0,0,130,130,0,1,slak,images/br_slak.png,images/cb_slak.png,0,,,,,,,,,,,,,,,,,,,,,,
,,,,,00095,2023-11-24_22h43.50.458,vbt_B2_day4,2022.2.4,Win32,59.9268892,,,,,,down,0,0.198299999,,-0.199074046,-0.275925954,1,0,0,0,131,131,79,1,nodig,images/br_nodig.png,images/cb_nodig.png,0,,,,,,,,,,,,,,,,,,,,,,
,,,,,00095,2023-11-24_22h43.50.458,vbt_B2_day4,2022.2.4,Win32,59.9268892,,,,,,down,0,1.037300003,,-0.199074046,-0.275925954,1,0,0,0,132,132,142,1,snuiven,images/br_snuiven.png,images/cb_snuiven.png,0,,,,,,,,,,,,,,,,,,,,,,
,,,,,00095,2023-11-24_22h43.50.458,vbt_B2_day4,2022.2.4,Win32,59.9268892,,,,,,down,0,0.151900002,,-0.199074046,-0.275925954,1,0,0,0,133,133,103,1,joggen,images/br_joggen.png,images/cb_joggen.png,0,,,,,,,,,,,,,,,,,,,,,,
,,,,,00095,2023-11-24_22h43.50.458,vbt_B2_day4,2022.2.4,Win32,59.9268892,,,,,,down,0,0.168800003,,-0.199074046,-0.275925954,1,0,0,0,134,134,51,1,samen,images/br_samen.png,images/cb_samen.png,0,,,,,,,,,,,,,,,,,,,,,,
,,,,,00095,2023-11-24_22h43.50.458,vbt_B2_day4,2022.2.4,Win32,59.9268892,,,,,,down,0,0.123200001,,-0.199074046,-0.275925954,1,0,0,0,135,135,95,1,vreten,images/br_vreten.png,images/cb_vreten.png,0,,,,,,,,,,,,,,,,,,,,,,
,,,,,00095,2023-11-24_22h43.50.458,vbt_B2_day4,2022.2.4,Win32,59.9268892,,,,,,down,0,0.350900002,,-0.199074046,-0.275925954,1,0,0,0,136,136,64,1,wegen,images/br_wegen.png,images/cb_wegen.png,1,wegen,,,,,,,,,,,,,,,,,,,,,
,,,,,00095,2023-11-24_22h43.50.458,vbt_B2_day4,2022.2.4,Win32,59.9268892,,,,,,down,0,3.9955,,-0.199074046,-0.275925954,1,0,0,0,137,137,27,1,dans,images/br_dans.png,images/cb_dans.png,1,dans,,,,,,,,,,,,,,,,,,,,,
,,,,,00095,2023-11-24_22h43.50.458,vbt_B2_day4,2022.2.4,Win32,59.9268892,,,,,,down,0,0.570299999,,-0.199074046,-0.275925954,1,0,0,0,138,138,13,1,kaal,images/br_kaal.png,images/cb_kaal.png,0,,,,,,,,,,,,,,,,,,,,,,
,,,,,00095,2023-11-24_22h43.50.458,vbt_B2_day4,2022.2.4,Win32,59.9268892,,,,,,down,0,0.319400002,,-0.199074046,-0.275925954,1,0,0,0,139,139,107,1,maling,images/br_maling.png,images/cb_maling.png,1,maling,,,,,,,,,,,,,,,,,,,,,
,,,,,00095,2023-11-24_22h43.50.458,vbt_B2_day4,2022.2.4,Win32,59.9268892,,,,,,down,0,15.1083,,-0.199074046,-0.275925954,1,0,0,0,140,140,68,1,schat,images/br_schat.png,images/cb_schat.png,0,,,,,,,,,,,,,,,,,,,,,,
,,,,,00095,2023-11-24_22h43.50.458,vbt_B2_day4,2022.2.4,Win32,59.9268892,,,,,,down,0,0.273599998,,-0.199074046,-0.275925954,1,0,0,0,141,141,38,1,baai,images/br_baai.png,images/cb_baai.png,0,,,,,,,,,,,,,,,,,,,,,,
,,,,,00095,2023-11-24_22h43.50.458,vbt_B2_day4,2022.2.4,Win32,59.9268892,,,,,,down,0,0.170699997,,-0.199074046,-0.275925954,1,0,0,0,142,142,117,1,kennis,images/br_kennis.png,images/cb_kennis.png,0,,,,,,,,,,,,,,,,,,,,,,
,,,,,00095,2023-11-24_22h43.50.458,vbt_B2_day4,2022.2.4,Win32,59.9268892,,,,,,down,0,0.238900002,,-0.199074046,-0.275925954,1,0,0,0,143,143,21,1,mist,images/br_mist.png,images/cb_mist.png,0,,,,,,,,,,,,,,,,,,,,,,
,,,,,00095,2023-11-24_22h43.50.458,vbt_B2_day4,2022.2.4,Win32,59.9268892,,,,,,down,0,4.717200001,,-0.199074046,-0.275925954,1,0,0,0,144,144,147,1,komisch,images/br_komisch.png,images/cb_komisch.png,1,komisch,,,,,,,,,,,,,,,,,,,,,
,,,,,00095,2023-11-24_22h43.50.458,vbt_B2_day4,2022.2.4,Win32,59.9268892,,,,,,down,0,18.1574,,-0.199074046,-0.275925954,1,0,0,0,145,145,162,1,uitdelen,images/br_uitdelen.png,images/cb_uitdelen.png,0,,,,,,,,,,,,,,,,,,,,,,
,,,,,00095,2023-11-24_22h43.50.458,vbt_B2_day4,2022.2.4,Win32,59.9268892,,,,,,down,0,0.017799999,,-0.199074046,-0.275925954,1,0,0,0,146,146,163,1,schuilen,images/br_schuilen.png,images/cb_schuilen.png,0,,,,,,,,,,,,,,,,,,,,,,
,,,,,00095,2023-11-24_22h43.50.458,vbt_B2_day4,2022.2.4,Win32,59.9268892,,,,,,down,0,0.280700001,,-0.199074046,-0.275925954,1,0,0,0,147,147,96,1,slagen,images/br_slagen.png,images/cb_slagen.png,0,,,,,,,,,,,,,,,,,,,,,,
,,,,,00095,2023-11-24_22h43.50.458,vbt_B2_day4,2022.2.4,Win32,59.9268892,,,,,,down,0,0.066900002,,-0.199074046,-0.275925954,1,0,0,0,148,148,124,1,bloeien,images/br_bloeien.png,images/cb_bloeien.png,0,,,,,,,,,,,,,,,,,,,,,,
,,,,,00095,2023-11-24_22h43.50.458,vbt_B2_day4,2022.2.4,Win32,59.9268892,,,,,,down,0,0.8915,,-0.199074046,-0.275925954,1,0,0,0,149,149,159,1,sufferd,images/br_sufferd.png,images/cb_sufferd.png,0,,,,,,,,,,,,,,,,,,,,,,
,,,,,00095,2023-11-24_22h43.50.458,vbt_B2_day4,2022.2.4,Win32,59.9268892,,,,,,down,0,2.265399998,,-0.199074046,-0.275925954,1,0,0,0,150,150,143,1,hechten,images/br_hechten.png,images/cb_hechten.png,0,,,,,,,,,,,,,,,,,,,,,,
,,,,,00095,2023-11-24_22h43.50.458,vbt_B2_day4,2022.2.4,Win32,59.9268892,,,,,,down,0,1.4325,,-0.199074046,-0.275925954,1,0,0,0,151,151,161,1,attentie,images/br_attentie.png,images/cb_attentie.png,0,,,,,,,,,,,,,,,,,,,,,,
,,,,,00095,2023-11-24_22h43.50.458,vbt_B2_day4,2022.2.4,Win32,59.9268892,,,,,,down,0,0.385799999,,-0.199074046,-0.275925954,1,0,0,0,152,152,28,1,stal,images/br_stal.png,images/cb_stal.png,0,,,,,,,,,,,,,,,,,,,,,,
,,,,,00095,2023-11-24_22h43.50.458,vbt_B2_day4,2022.2.4,Win32,59.9268892,,,,,,down,0,0.015100002,,-0.199074046,-0.275925954,1,0,0,0,153,153,58,1,tekst,images/br_tekst.png,images/cb_tekst.png,0,,,,,,,,,,,,,,,,,,,,,,
,,,,,00095,2023-11-24_22h43.50.458,vbt_B2_day4,2022.2.4,Win32,59.9268892,,,,,,down,0,0.321600002,,-0.199074046,-0.275925954,1,0,0,0,154,154,172,1,weigeren,images/br_weigeren.png,images/cb_weigeren.png,0,,,,,,,,,,,,,,,,,,,,,,
,,,,,00095,2023-11-24_22h43.50.458,vbt_B2_day4,2022.2.4,Win32,59.9268892,,,,,,down,0,0.1045,,-0.199074046,-0.275925954,1,0,0,0,155,155,119,1,liefje,images/br_liefje.png,images/cb_liefje.png,0,,,,,,,,,,,,,,,,,,,,,,
,,,,,00095,2023-11-24_22h43.50.458,vbt_B2_day4,2022.2.4,Win32,59.9268892,,,,,,down,0,0.221799999,,-0.199074046,-0.275925954,1,0,0,0,156,156,125,1,aanzien,images/br_aanzien.png,images/cb_aanzien.png,0,,,,,,,,,,,,,,,,,,,,,,
,,,,,00095,2023-11-24_22h43.50.458,vbt_B2_day4,2022.2.4,Win32,59.9268892,,,,,,down,0,0.085800003,,-0.199074046,-0.275925954,1,0,0,0,157,157,138,1,akkoord,images/br_akkoord.png,images/cb_akkoord.png,0,,,,,,,,,,,,,,,,,,,,,,
,,,,,00095,2023-11-24_22h43.50.458,vbt_B2_day4,2022.2.4,Win32,59.9268892,,,,,,down,0,0.223899998,,-0.199074046,-0.275925954,1,0,0,0,158,158,29,1,baas,images/br_baas.png,images/cb_baas.png,0,,,,,,,,,,,,,,,,,,,,,,
,,,,,00095,2023-11-24_22h43.50.458,vbt_B2_day4,2022.2.4,Win32,59.9268892,,,,,,down,0,0.505200001,,-0.199074046,-0.275925954,1,0,0,0,159,159,60,1,jasje,images/br_jasje.png,images/cb_jasje.png,0,,,,,,,,,,,,,,,,,,,,,,
,,,,,00095,2023-11-24_22h43.50.458,vbt_B2_day4,2022.2.4,Win32,59.9268892,,,,,,down,0,0.471200001,,-0.199074046,-0.275925954,1,0,0,0,160,160,93,1,waarop,images/br_waarop.png,images/cb_waarop.png,0,,,,,,,,,,,,,,,,,,,,,,
,,,,,00095,2023-11-24_22h43.50.458,vbt_B2_day4,2022.2.4,Win32,59.9268892,,,,,,down,0,0.290400002,,-0.199074046,-0.275925954,1,0,0,0,161,161,4,1,moes,images/br_moes.png,images/cb_moes.png,0,,,,,,,,,,,,,,,,,,,,,,
,,,,,00095,2023-11-24_22h43.50.458,vbt_B2_day4,2022.2.4,Win32,59.9268892,,,,,,down,0,0.133399998,,-0.199074046,-0.275925954,1,0,0,0,162,162,120,1,klimmen,images/br_klimmen.png,images/cb_klimmen.png,0,,,,,,,,,,,,,,,,,,,,,,
,,,,,00095,2023-11-24_22h43.50.458,vbt_B2_day4,2022.2.4,Win32,59.9268892,,,,,,down,0,1.566400002,,-0.199074046,-0.275925954,1,0,0,0,163,163,63,1,flirt,images/br_flirt.png,images/cb_flirt.png,0,,,,,,,,,,,,,,,,,,,,,,
,,,,,00095,2023-11-24_22h43.50.458,vbt_B2_day4,2022.2.4,Win32,59.9268892,,,,,,down,0,0.451599998,,-0.199074046,-0.275925954,1,0,0,0,164,164,188,1,strekken,images/br_strekken.png,images/cb_strekken.png,0,,,,,,,,,,,,,,,,,,,,,,
,,,,,00095,2023-11-24_22h43.50.458,vbt_B2_day4,2022.2.4,Win32,59.9268892,,,,,,down,0,0.003600002,,-0.199074046,-0.275925954,1,0,0,0,165,165,9,1,hier,images/br_hier.png,images/cb_hier.png,0,,,,,,,,,,,,,,,,,,,,,,
,,,,,00095,2023-11-24_22h43.50.458,vbt_B2_day4,2022.2.4,Win32,59.9268892,,,,,,down,0,0.172100002,,-0.199074046,-0.275925954,1,0,0,0,166,166,30,1,uien,images/br_uien.png,images/cb_uien.png,0,,,,,,,,,,,,,,,,,,,,,,
,,,,,00095,2023-11-24_22h43.50.458,vbt_B2_day4,2022.2.4,Win32,59.9268892,,,,,,down,0,2.792,,-0.199074046,-0.275925954,1,0,0,0,167,167,187,1,opkijken,images/br_opkijken.png,images/cb_opkijken.png,1,opkijken,,,,,,,,,,,,,,,,,,,,,
,,,,,00095,2023-11-24_22h43.50.458,vbt_B2_day4,2022.2.4,Win32,59.9268892,,,,,,down,0,0.201099998,,-0.199074046,-0.275925954,1,0,0,0,168,168,39,1,laag,images/br_laag.png,images/cb_laag.png,0,,,,,,,,,,,,,,,,,,,,,,
,,,,,00095,2023-11-24_22h43.50.458,vbt_B2_day4,2022.2.4,Win32,59.9268892,,,,,,down,0,0.316100002,,-0.199074046,-0.275925954,1,0,0,0,169,169,199,1,beseffen,images/br_beseffen.png,images/cb_beseffen.png,0,,,,,,,,,,,,,,,,,,,,,,
,,,,,00095,2023-11-24_22h43.50.458,vbt_B2_day4,2022.2.4,Win32,59.9268892,,,,,,down,0,1.400100002,,-0.199074046,-0.275925954,1,0,0,0,170,170,186,1,voorraad,images/br_voorraad.png,images/cb_voorraad.png,1,voorraad,,,,,,,,,,,,,,,,,,,,,
,,,,,00095,2023-11-24_22h43.50.458,vbt_B2_day4,2022.2.4,Win32,59.9268892,,,,,,down,0,0.004,,-0.199074046,-0.275925954,1,0,0,0,171,171,111,1,ticket,images/br_ticket.png,images/cb_ticket.png,0,,,,,,,,,,,,,,,,,,,,,,
,,,,,00095,2023-11-24_22h43.50.458,vbt_B2_day4,2022.2.4,Win32,59.9268892,,,,,,down,0,0.9345,,-0.199074046,-0.275925954,1,0,0,0,172,172,76,1,afval,images/br_afval.png,images/cb_afval.png,0,,,,,,,,,,,,,,,,,,,,,,
,,,,,00095,2023-11-24_22h43.50.458,vbt_B2_day4,2022.2.4,Win32,59.9268892,,,,,,down,0,0.284799999,,-0.199074046,-0.275925954,1,0,0,0,173,173,181,1,toegeven,images/br_toegeven.png,images/cb_toegeven.png,0,,,,,,,,,,,,,,,,,,,,,,
,,,,,00095,2023-11-24_22h43.50.458,vbt_B2_day4,2022.2.4,Win32,59.9268892,,,,,,down,0,1.772,,-0.199074046,-0.275925954,1,0,0,0,174,174,155,1,gerucht,images/br_gerucht.png,images/cb_gerucht.png,0,,,,,,,,,,,,,,,,,,,,,,
,,,,,00095,2023-11-24_22h43.50.458,vbt_B2_day4,2022.2.4,Win32,59.9268892,,,,,,down,0,0.272299999,,-0.199074046,-0.275925954,1,0,0,0,175,175,91,1,gezond,images/br_gezond.png,images/cb_gezond.png,0,,,,,,,,,,,,,,,,,,,,,,
,,,,,00095,2023-11-24_22h43.50.458,vbt_B2_day4,2022.2.4,Win32,59.9268892,,,,,,down,0,1.8395,,-0.199074046,-0.275925954,1,0,0,0,176,176,148,1,smullen,images/br_smullen.png,images/cb_smullen.png,0,,,,,,,,,,,,,,,,,,,,,,
,,,,,00095,2023-11-24_22h43.50.458,vbt_B2_day4,2022.2.4,Win32,59.9268892,,,,,,down,0,0.071299999,,-0.199074046,-0.275925954,1,0,0,0,177,177,48,1,steel,images/br_steel.png,images/cb_steel.png,0,,,,,,,,,,,,,,,,,,,,,,
,,,,,00095,2023-11-24_22h43.50.458,vbt_B2_day4,2022.2.4,Win32,59.9268892,,,,,,down,0,0.151799999,,-0.199074046,-0.275925954,1,0,0,0,178,178,131,1,opzicht,images/br_opzicht.png,images/cb_opzicht.png,0,,,,,,,,,,,,,,,,,,,,,,
,,,,,00095,2023-11-24_22h43.50.458,vbt_B2_day4,2022.2.4,Win32,59.9268892,,,,,,down,0,0.720400002,,-0.199074046,-0.275925954,1,0,0,0,179,179,154,1,aflopen,images/br_aflopen.png,images/cb_aflopen.png,0,,,,,,,,,,,,,,,,,,,,,,
,,,,,00095,2023-11-24_22h43.50.458,vbt_B2_day4,2022.2.4,Win32,59.9268892,,,,,,down,0,0.352599998,,-0.199074046,-0.275925954,1,0,0,0,180,180,130,1,keihard,images/br_keihard.png,images/cb_keihard.png,0,,,,,,,,,,,,,,,,,,,,,,
,,,,,00095,2023-11-24_22h43.50.458,vbt_B2_day4,2022.2.4,Win32,59.9268892,,,,,,down,0,0.130700001,,-0.199074046,-0.275925954,1,0,0,0,181,181,132,1,grappen,images/br_grappen.png,images/cb_grappen.png,0,,,,,,,,,,,,,,,,,,,,,,
,,,,,00095,2023-11-24_22h43.50.458,vbt_B2_day4,2022.2.4,Win32,59.9268892,,,,,,down,0,0.354900002,,-0.199074046,-0.275925954,1,0,0,0,182,182,84,1,lokken,images/br_lokken.png,images/cb_lokken.png,0,,,,,,,,,,,,,,,,,,,,,,
,,,,,00095,2023-11-24_22h43.50.458,vbt_B2_day4,2022.2.4,Win32,59.9268892,,,,,,down,0,0.401299999,,-0.199074046,-0.275925954,1,0,0,0,183,183,82,1,muziek,images/br_muziek.png,images/cb_muziek.png,0,,,,,,,,,,,,,,,,,,,,,,
,,,,,00095,2023-11-24_22h43.50.458,vbt_B2_day4,2022.2.4,Win32,59.9268892,,,,,,down,0,0.021899998,,-0.199074046,-0.275925954,1,0,0,0,184,184,97,1,loyaal,images/br_loyaal.png,images/cb_loyaal.png,0,,,,,,,,,,,,,,,,,,,,,,
,,,,,00095,2023-11-24_22h43.50.458,vbt_B2_day4,2022.2.4,Win32,59.9268892,,,,,,down,0,1.234299999,,-0.199074046,-0.275925954,1,0,0,0,185,185,71,1,bever,images/br_bever.png,images/cb_bever.png,0,,,,,,,,,,,,,,,,,,,,,,
,,,,,00095,2023-11-24_22h43.50.458,vbt_B2_day4,2022.2.4,Win32,59.9268892,,,,,,down,0,0.968099998,,-0.199074046,-0.275925954,1,0,0,0,186,186,136,1,waarbij,images/br_waarbij.png,images/cb_waarbij.png,0,,,,,,,,,,,,,,,,,,,,,,
,,,,,00095,2023-11-24_22h43.50.458,vbt_B2_day4,2022.2.4,Win32,59.9268892,,,,,,down,0,1.797600002,,-0.199074046,-0.275925954,1,0,0,0,187,187,180,1,openbaar,images/br_openbaar.png,images/cb_openbaar.png,0,,,,,,,,,,,,,,,,,,,,,,
,,,,,00095,2023-11-24_22h43.50.458,vbt_B2_day4,2022.2.4,Win32,59.9268892,,,,,,down,0,0.584899998,,-0.199074046,-0.275925954,1,0,0,0,188,188,156,1,rechten,images/br_rechten.png,images/cb_rechten.png,0,,,,,,,,,,,,,,,,,,,,,,
,,,,,00095,2023-11-24_22h43.50.458,vbt_B2_day4,2022.2.4,Win32,59.9268892,,,,,,down,0,0.584100002,,-0.199074046,-0.275925954,1,0,0,0,189,189,88,1,boeien,images/br_boeien.png,images/cb_boeien.png,0,,,,,,,,,,,,,,,,,,,,,,
,,,,,00095,2023-11-24_22h43.50.458,vbt_B2_day4,2022.2.4,Win32,59.9268892,,,,,,down,0,0.382799999,,-0.199074046,-0.275925954,1,0,0,0,190,190,19,1,geit,images/br_geit.png,images/cb_geit.png,0,,,,,,,,,,,,,,,,,,,,,,
,,,,,00095,2023-11-24_22h43.50.458,vbt_B2_day4,2022.2.4,Win32,59.9268892,,,,,,down,0,0.217200001,,-0.199074046,-0.275925954,1,0,0,0,191,191,153,1,vervoer,images/br_vervoer.png,images/cb_vervoer.png,0,,,,,,,,,,,,,,,,,,,,,,
,,,,,00095,2023-11-24_22h43.50.458,vbt_B2_day4,2022.2.4,Win32,59.9268892,,,,,,down,0,0.251100002,,-0.199074046,-0.275925954,1,0,0,0,192,192,106,1,zingen,images/br_zingen.png,images/cb_zingen.png,1,zingen,,,,,,,,,,,,,,,,,,,,,
,,,,,00095,2023-11-24_22h43.50.458,vbt_B2_day4,2022.2.4,Win32,59.9268892,,,,,,down,0,1.100700001,,-0.199074046,-0.275925954,1,0,0,0,193,193,195,1,middelen,images/br_middelen.png,images/cb_middelen.png,0,,,,,,,,,,,,,,,,,,,,,,
,,,,,00095,2023-11-24_22h43.50.458,vbt_B2_day4,2022.2.4,Win32,59.9268892,,,,,,down,0,1.385400002,,-0.199074046,-0.275925954,1,0,0,0,194,194,173,1,apparaat,images/br_apparaat.png,images/cb_apparaat.png,0,,,,,,,,,,,,,,,,,,,,,,
,,,,,00095,2023-11-24_22h43.50.458,vbt_B2_day4,2022.2.4,Win32,59.9268892,,,,,,down,0,0.856400002,,-0.199074046,-0.275925954,1,0,0,0,195,195,166,1,strikken,images/br_strikken.png,images/cb_strikken.png,0,,,,,,,,,,,,,,,,,,,,,,
,,,,,00095,2023-11-24_22h43.50.458,vbt_B2_day4,2022.2.4,Win32,59.9268892,,,,,,down,0,0.568700001,,-0.199074046,-0.275925954,1,0,0,0,196,196,12,1,kust,images/br_kust.png,images/cb_kust.png,0,,,,,,,,,,,,,,,,,,,,,,
,,,,,00095,2023-11-24_22h43.50.458,vbt_B2_day4,2022.2.4,Win32,59.9268892,,,,,,down,0,0.250799999,,-0.199074046,-0.275925954,1,0,0,0,197,197,99,1,koffie,images/br_koffie.png,images/cb_koffie.png,0,,,,,,,,,,,,,,,,,,,,,,
,,,,,00095,2023-11-24_22h43.50.458,vbt_B2_day4,2022.2.4,Win32,59.9268892,,,,,,down,0,0.389599998,,-0.199074046,-0.275925954,1,0,0,0,198,198,92,1,geheim,images/br_geheim.png,images/cb_geheim.png,0,,,,,,,,,,,,,,,,,,,,,,
,,,,,00095,2023-11-24_22h43.50.458,vbt_B2_day4,2022.2.4,Win32,59.9268892,,,,,,down,0,0.215900002,,-0.199074046,-0.275925954,1,0,0,0,199,199,150,1,gegeven,images/br_gegeven.png,images/cb_gegeven.png,0,,,,,,,,,,,,,,,,,,,,,,
,,,,,00095,2023-11-24_22h43.50.458,vbt_B2_day4,2022.2.4,Win32,59.9268892,,,,,,,,,,,,,,,,,,,,,,,,,-0.199074046,-0.275925954,1,0,0,,,,,,,,,,,,,,,,
,,,,,00095,2023-11-24_22h43.50.458,vbt_B2_day4,2022.2.4,Win32,59.9268892,,,,,,,,,,,,,,,,,,,,,,,,,,,,,,-0.199074046,-0.275925954,1,0,0,,,,,,,,,,,
,,,,,00095,2023-11-24_22h43.50.458,vbt_B2_day4,2022.2.4,Win32,59.9268892,,,,,,,,,,,,,,,,,,,,strok,images/br_strok.png,images/cb_strok.png,,strak,,,,,,,,,,,-0.199074046,-0.275925954,1,0,0,strak,0,0,0,25,1
,,,,,00095,2023-11-24_22h43.50.458,vbt_B2_day4,2022.2.4,Win32,59.9268892,,,,,,,,,,,,,,,,,,,,broodje,images/br_broodje.png,images/cb_broodje.png,,broodje,,,,,,,,,,,-0.199074046,-0.275925954,1,0,0,broodje,0,1,1,55,1
,,,,,00095,2023-11-24_22h43.50.458,vbt_B2_day4,2022.2.4,Win32,59.9268892,,,,,,,,,,,,,,,,,,,,heengaan,images/br_heengaan.png,images/cb_heengaan.png,,heengaan,,,,,,,,,,,-0.199074046,-0.275925954,1,0,0,heengaan,0,2,2,19,1
,,,,,00095,2023-11-24_22h43.50.458,vbt_B2_day4,2022.2.4,Win32,59.9268892,,,,,,,,,,,,,,,,,,,,seizoon,images/br_seizoon.png,images/cb_seizoon.png,,teizoon,,,,,,,,,,,-0.199074046,-0.275925954,1,0,0,teizoon,0,3,3,33,1
,,,,,00095,2023-11-24_22h43.50.458,vbt_B2_day4,2022.2.4,Win32,59.9268892,,,,,,,,,,,,,,,,,,,,midden,images/br_midden.png,images/cb_midden.png,,miggen,,,,,,,,,,,-0.199074046,-0.275925954,1,0,0,miggen,0,4,4,50,1
,,,,,00095,2023-11-24_22h43.50.458,vbt_B2_day4,2022.2.4,Win32,59.9268892,,,,,,,,,,,,,,,,,,,,apparaat,images/br_apparaat.png,images/cb_apparaat.png,,apparaat,,,,,,,,,,,-0.199074046,-0.275925954,1,0,0,apparaat,0,5,5,17,1
,,,,,00095,2023-11-24_22h43.50.458,vbt_B2_day4,2022.2.4,Win32,59.9268892,,,,,,,,,,,,,,,,,,,,tucket,images/br_tucket.png,images/cb_tucket.png,,tucket,,,,,,,,,,,-0.199074046,-0.275925954,1,0,0,tucket,0,6,6,30,1
,,,,,00095,2023-11-24_22h43.50.458,vbt_B2_day4,2022.2.4,Win32,59.9268892,,,,,,,,,,,,,,,,,,,,drummer,images/br_drummer.png,images/cb_drummer.png,,drummer,,,,,,,,,,,-0.199074046,-0.275925954,1,0,0,drummer,0,7,7,53,1
,,,,,00095,2023-11-24_22h43.50.458,vbt_B2_day4,2022.2.4,Win32,59.9268892,,,,,,,,,,,,,,,,,,,,aanzwaag,images/br_aanzwaag.png,images/cb_aanzwaag.png,,aanzwaag,,,,,,,,,,,-0.199074046,-0.275925954,1,0,0,aanzwaag,0,8,8,38,1
,,,,,00095,2023-11-24_22h43.50.458,vbt_B2_day4,2022.2.4,Win32,59.9268892,,,,,,,,,,,,,,,,,,,,schotel,images/br_schotel.png,images/cb_schotel.png,,schotel,,,,,,,,,,,-0.199074046,-0.275925954,1,0,0,schotel,0,9,9,52,1
,,,,,00095,2023-11-24_22h43.50.458,vbt_B2_day4,2022.2.4,Win32,59.9268892,,,,,,,,,,,,,,,,,,,,praat,images/br_praat.png,images/cb_praat.png,,praat,,,,,,,,,,,-0.199074046,-0.275925954,1,0,0,praat,0,10,10,7,1
,,,,,00095,2023-11-24_22h43.50.458,vbt_B2_day4,2022.2.4,Win32,59.9268892,,,,,,,,,,,,,,,,,,,,geliefd,images/br_geliefd.png,images/cb_geliefd.png,,geliefd,,,,,,,,,,,-0.199074046,-0.275925954,1,0,0,geliefd,0,11,11,14,1
,,,,,00095,2023-11-24_22h43.50.458,vbt_B2_day4,2022.2.4,Win32,59.9268892,,,,,,,,,,,,,,,,,,,,geheim,images/br_geheim.png,images/cb_geheim.png,,geheim,,,,,,,,,,,-0.199074046,-0.275925954,1,0,0,geheim,0,12,12,8,1
,,,,,00095,2023-11-24_22h43.50.458,vbt_B2_day4,2022.2.4,Win32,59.9268892,,,,,,,,,,,,,,,,,,,,gedicht,images/br_gedicht.png,images/cb_gedicht.png,,gedicht,,,,,,,,,,,-0.199074046,-0.275925954,1,0,0,gedicht,0,13,13,15,1
,,,,,00095,2023-11-24_22h43.50.458,vbt_B2_day4,2022.2.4,Win32,59.9268892,,,,,,,,,,,,,,,,,,,,toevol,images/br_toevol.png,images/cb_toevol.png,,toevol,,,,,,,,,,,-0.199074046,-0.275925954,1,0,0,toevol,0,14,14,29,1
,,,,,00095,2023-11-24_22h43.50.458,vbt_B2_day4,2022.2.4,Win32,59.9268892,,,,,,,,,,,,,,,,,,,,drooien,images/br_drooien.png,images/cb_drooien.png,,drooien,,,,,,,,,,,-0.199074046,-0.275925954,1,0,0,drooien,0,15,15,32,1
,,,,,00095,2023-11-24_22h43.50.458,vbt_B2_day4,2022.2.4,Win32,59.9268892,,,,,,,,,,,,,,,,,,,,zwek,images/br_zwek.png,images/cb_zwek.png,,zwek,,,,,,,,,,,-0.199074046,-0.275925954,1,0,0,zwek,0,16,16,20,1
,,,,,00095,2023-11-24_22h43.50.458,vbt_B2_day4,2022.2.4,Win32,59.9268892,,,,,,,,,,,,,,,,,,,,steen,images/br_steen.png,images/cb_steen.png,,steen,,,,,,,,,,,-0.199074046,-0.275925954,1,0,0,steen,0,17,17,44,1
,,,,,00095,2023-11-24_22h43.50.458,vbt_B2_day4,2022.2.4,Win32,59.9268892,,,,,,,,,,,,,,,,,,,,dalen,images/br_dalen.png,images/cb_dalen.png,,dalen,,,,,,,,,,,-0.199074046,-0.275925954,1,0,0,dalen,0,18,18,46,1
,,,,,00095,2023-11-24_22h43.50.458,vbt_B2_day4,2022.2.4,Win32,59.9268892,,,,,,,,,,,,,,,,,,,,opruimen,images/br_opruimen.png,images/cb_opruimen.png,,opruimen,,,,,,,,,,,-0.199074046,-0.275925954,1,0,0,opruimen,0,19,19,59,1
,,,,,00095,2023-11-24_22h43.50.458,vbt_B2_day4,2022.2.4,Win32,59.9268892,,,,,,,,,,,,,,,,,,,,noodzaak,images/br_noodzaak.png,images/cb_noodzaak.png,,noodzaak,,,,,,,,,,,-0.199074046,-0.275925954,1,0,0,noodzaak,0,20,20,56,1
,,,,,00095,2023-11-24_22h43.50.458,vbt_B2_day4,2022.2.4,Win32,59.9268892,,,,,,,,,,,,,,,,,,,,grappen,images/br_grappen.png,images/cb_grappen.png,,grappen,,,,,,,,,,,-0.199074046,-0.275925954,1,0,0,grappen,0,21,21,12,1
,,,,,00095,2023-11-24_22h43.50.458,vbt_B2_day4,2022.2.4,Win32,59.9268892,,,,,,,,,,,,,,,,,,,,mekst,images/br_mekst.png,images/cb_mekst.png,,mekst,,,,,,,,,,,-0.199074046,-0.275925954,1,0,0,mekst,0,22,22,27,1
,,,,,00095,2023-11-24_22h43.50.458,vbt_B2_day4,2022.2.4,Win32,59.9268892,,,,,,,,,,,,,,,,,,,,bisschap,images/br_bisschap.png,images/cb_bisschap.png,,bisschap,,,,,,,,,,,-0.199074046,-0.275925954,1,0,0,bisschap,0,23,23,36,1
,,,,,00095,2023-11-24_22h43.50.458,vbt_B2_day4,2022.2.4,Win32,59.9268892,,,,,,,,,,,,,,,,,,,,lappen,images/br_lappen.png,images/cb_lappen.png,,lappen,,,,,,,,,,,-0.199074046,-0.275925954,1,0,0,lappen,0,24,24,49,1
,,,,,00095,2023-11-24_22h43.50.458,vbt_B2_day4,2022.2.4,Win32,59.9268892,,,,,,,,,,,,,,,,,,,,pittig,images/br_pittig.png,images/cb_pittig.png,,pittig,,,,,,,,,,,-0.199074046,-0.275925954,1,0,0,pittig,0,25,25,51,1
,,,,,00095,2023-11-24_22h43.50.458,vbt_B2_day4,2022.2.4,Win32,59.9268892,,,,,,,,,,,,,,,,,,,,wozing,images/br_wozing.png,images/cb_wozing.png,,wozing,,,,,,,,,,,-0.199074046,-0.275925954,1,0,0,wozing,0,26,26,28,1
,,,,,00095,2023-11-24_22h43.50.458,vbt_B2_day4,2022.2.4,Win32,59.9268892,,,,,,,,,,,,,,,,,,,,soda,images/br_soda.png,images/cb_soda.png,,soda,,,,,,,,,,,-0.199074046,-0.275925954,1,0,0,soda,0,27,27,3,1
,,,,,00095,2023-11-24_22h43.50.458,vbt_B2_day4,2022.2.4,Win32,59.9268892,,,,,,,,,,,,,,,,,,,,weigeren,images/br_weigeren.png,images/cb_weigeren.png,,weigeren,,,,,,,,,,,-0.199074046,-0.275925954,1,0,0,weigeren,0,28,28,16,1
,,,,,00095,2023-11-24_22h43.50.458,vbt_B2_day4,2022.2.4,Win32,59.9268892,,,,,,,,,,,,,,,,,,,,schenden,images/br_schenden.png,images/cb_schenden.png,,schenden,,,,,,,,,,,-0.199074046,-0.275925954,1,0,0,schenden,0,29,29,57,1
,,,,,00095,2023-11-24_22h43.50.458,vbt_B2_day4,2022.2.4,Win32,59.9268892,,,,,,,,,,,,,,,,,,,,flippen,images/br_flippen.png,images/cb_flippen.png,,flippen,,,,,,,,,,,-0.199074046,-0.275925954,1,0,0,flippen,0,30,30,54,1
,,,,,00095,2023-11-24_22h43.50.458,vbt_B2_day4,2022.2.4,Win32,59.9268892,,,,,,,,,,,,,,,,,,,,seizoen,images/br_seizoen.png,images/cb_seizoen.png,,seizoen,,,,,,,,,,,-0.199074046,-0.275925954,1,0,0,seizoen,0,31,31,13,1
,,,,,00095,2023-11-24_22h43.50.458,vbt_B2_day4,2022.2.4,Win32,59.9268892,,,,,,,,,,,,,,,,,,,,gaan,images/br_gaan.png,images/cb_gaan.png,,gaan,,,,,,,,,,,-0.199074046,-0.275925954,1,0,0,gaan,0,32,32,41,1
,,,,,00095,2023-11-24_22h43.50.458,vbt_B2_day4,2022.2.4,Win32,59.9268892,,,,,,,,,,,,,,,,,,,,fran,images/br_fran.png,images/cb_fran.png,,fran,,,,,,,,,,,-0.199074046,-0.275925954,1,0,0,fran,0,33,33,22,1
,,,,,00095,2023-11-24_22h43.50.458,vbt_B2_day4,2022.2.4,Win32,59.9268892,,,,,,,,,,,,,,,,,,,,eerst,images/br_eerst.png,images/cb_eerst.png,,eerst,,,,,,,,,,,-0.199074046,-0.275925954,1,0,0,eerst,0,34,34,47,1
,,,,,00095,2023-11-24_22h43.50.458,vbt_B2_day4,2022.2.4,Win32,59.9268892,,,,,,,,,,,,,,,,,,,,zaalrijk,images/br_zaalrijk.png,images/cb_zaalrijk.png,,zaalrijk,,,,,,,,,,,-0.199074046,-0.275925954,1,0,0,zaalrijk,0,35,35,37,1
,,,,,00095,2023-11-24_22h43.50.458,vbt_B2_day4,2022.2.4,Win32,59.9268892,,,,,,,,,,,,,,,,,,,,gebog,images/br_gebog.png,images/cb_gebog.png,,gebog,,,,,,,,,,,-0.199074046,-0.275925954,1,0,0,gebog,0,36,36,24,1
,,,,,00095,2023-11-24_22h43.50.458,vbt_B2_day4,2022.2.4,Win32,59.9268892,,,,,,,,,,,,,,,,,,,,rijp,images/br_rijp.png,images/cb_rijp.png,,rijp,,,,,,,,,,,-0.199074046,-0.275925954,1,0,0,rijp,0,37,37,2,1
,,,,,00095,2023-11-24_22h43.50.458,vbt_B2_day4,2022.2.4,Win32,59.9268892,,,,,,,,,,,,,,,,,,,,paalbaak,images/br_paalbaak.png,images/cb_paalbaak.png,,paalbaak,,,,,,,,,,,-0.199074046,-0.275925954,1,0,0,paalbaak,0,38,38,39,1
,,,,,00095,2023-11-24_22h43.50.458,vbt_B2_day4,2022.2.4,Win32,59.9268892,,,,,,,,,,,,,,,,,,,,getucht,images/br_getucht.png,images/cb_getucht.png,,getucht,,,,,,,,,,,-0.199074046,-0.275925954,1,0,0,getucht,0,39,39,35,1
,,,,,00095,2023-11-24_22h43.50.458,vbt_B2_day4,2022.2.4,Win32,59.9268892,,,,,,,,,,,,,,,,,,,,sulbon,images/br_sulbon.png,images/cb_sulbon.png,,sulbon,,,,,,,,,,,-0.199074046,-0.275925954,1,0,0,sulbon,0,40,40,31,1
,,,,,00095,2023-11-24_22h43.50.458,vbt_B2_day4,2022.2.4,Win32,59.9268892,,,,,,,,,,,,,,,,,,,,oceaan,images/br_oceaan.png,images/cb_oceaan.png,,oceaan,,,,,,,,,,,-0.199074046,-0.275925954,1,0,0,oceaan,0,41,41,10,1
,,,,,00095,2023-11-24_22h43.50.458,vbt_B2_day4,2022.2.4,Win32,59.9268892,,,,,,,,,,,,,,,,,,,,vreten,images/br_vreten.png,images/cb_vreten.png,,vreten,,,,,,,,,,,-0.199074046,-0.275925954,1,0,0,vreten,0,42,42,11,1
,,,,,00095,2023-11-24_22h43.50.458,vbt_B2_day4,2022.2.4,Win32,59.9268892,,,,,,,,,,,,,,,,,,,,gebit,images/br_gebit.png,images/cb_gebit.png,,gebit,,,,,,,,,,,-0.199074046,-0.275925954,1,0,0,gebit,0,43,43,6,1
,,,,,00095,2023-11-24_22h43.50.458,vbt_B2_day4,2022.2.4,Win32,59.9268892,,,,,,,,,,,,,,,,,,,,pijnlijk,images/br_pijnlijk.png,images/cb_pijnlijk.png,,pijnlijk,,,,,,,,,,,-0.199074046,-0.275925954,1,0,0,pijnlijk,0,44,44,58,1
,,,,,00095,2023-11-24_22h43.50.458,vbt_B2_day4,2022.2.4,Win32,59.9268892,,,,,,,,,,,,,,,,,,,,waarop,images/br_waarop.png,images/cb_waarop.png,,waarop,,,,,,,,,,,-0.199074046,-0.275925954,1,0,0,waarop,0,45,45,9,1
,,,,,00095,2023-11-24_22h43.50.458,vbt_B2_day4,2022.2.4,Win32,59.9268892,,,,,,,,,,,,,,,,,,,,snee,images/br_snee.png,images/cb_snee.png,,snee,,,,,,,,,,,-0.199074046,-0.275925954,1,0,0,snee,0,46,46,40,1
,,,,,00095,2023-11-24_22h43.50.458,vbt_B2_day4,2022.2.4,Win32,59.9268892,,,,,,,,,,,,,,,,,,,,gijf,images/br_gijf.png,images/cb_gijf.png,,gijf,,,,,,,,,,,-0.199074046,-0.275925954,1,0,0,gijf,0,47,47,23,1
,,,,,00095,2023-11-24_22h43.50.458,vbt_B2_day4,2022.2.4,Win32,59.9268892,,,,,,,,,,,,,,,,,,,,ezel,images/br_ezel.png,images/cb_ezel.png,,ezel,,,,,,,,,,,-0.199074046,-0.275925954,1,0,0,ezel,0,48,48,42,1
,,,,,00095,2023-11-24_22h43.50.458,vbt_B2_day4,2022.2.4,Win32,59.9268892,,,,,,,,,,,,,,,,,,,,baron,images/br_baron.png,images/cb_baron.png,,baron,,,,,,,,,,,-0.199074046,-0.275925954,1,0,0,baron,0,49,49,5,1
,,,,,00095,2023-11-24_22h43.50.458,vbt_B2_day4,2022.2.4,Win32,59.9268892,,,,,,,,,,,,,,,,,,,,warel,images/br_warel.png,images/cb_warel.png,,warel,,,,,,,,,,,-0.199074046,-0.275925954,1,0,0,warel,0,50,50,26,1
,,,,,00095,2023-11-24_22h43.50.458,vbt_B2_day4,2022.2.4,Win32,59.9268892,,,,,,,,,,,,,,,,,,,,wagon,images/br_wagon.png,images/cb_wagon.png,,wagon,,,,,,,,,,,-0.199074046,-0.275925954,1,0,0,wagon,0,51,51,4,1
,,,,,00095,2023-11-24_22h43.50.458,vbt_B2_day4,2022.2.4,Win32,59.9268892,,,,,,,,,,,,,,,,,,,,gaaf,images/br_gaaf.png,images/cb_gaaf.png,,gaaf,,,,,,,,,,,-0.199074046,-0.275925954,1,0,0,gaaf,0,52,52,43,1
,,,,,00095,2023-11-24_22h43.50.458,vbt_B2_day4,2022.2.4,Win32,59.9268892,,,,,,,,,,,,,,,,,,,,opkicht,images/br_opkicht.png,images/cb_opkicht.png,,opkicht,,,,,,,,,,,-0.199074046,-0.275925954,1,0,0,opkicht,0,53,53,34,1
,,,,,00095,2023-11-24_22h43.50.458,vbt_B2_day4,2022.2.4,Win32,59.9268892,,,,,,,,,,,,,,,,,,,,haza,images/br_haza.png,images/cb_haza.png,,haza,,,,,,,,,,,-0.199074046,-0.275925954,1,0,0,haza,0,54,54,21,1
,,,,,00095,2023-11-24_22h43.50.458,vbt_B2_day4,2022.2.4,Win32,59.9268892,,,,,,,,,,,,,,,,,,,,kust,images/br_kust.png,images/cb_kust.png,,kust,,,,,,,,,,,-0.199074046,-0.275925954,1,0,0,kust,0,55,55,0,1
,,,,,00095,2023-11-24_22h43.50.458,vbt_B2_day4,2022.2.4,Win32,59.9268892,,,,,,,,,,,,,,,,,,,,dozijn,images/br_dozijn.png,images/cb_dozijn.png,,dozijn,,,,,,,,,,,-0.199074046,-0.275925954,1,0,0,dozijn,0,56,56,48,1
,,,,,00095,2023-11-24_22h43.50.458,vbt_B2_day4,2022.2.4,Win32,59.9268892,,,,,,,,,,,,,,,,,,,,bruin,images/br_bruin.png,images/cb_bruin.png,,bruin,,,,,,,,,,,-0.199074046,-0.275925954,1,0,0,bruin,0,57,57,45,1
,,,,,00095,2023-11-24_22h43.50.458,vbt_B2_day4,2022.2.4,Win32,59.9268892,,,,,,,,,,,,,,,,,,,,stemming,images/br_stemming.png,images/cb_stemming.png,,stemming,,,,,,,,,,,-0.199074046,-0.275925954,1,0,0,stemming,0,58,58,18,1
,,,,,00095,2023-11-24_22h43.50.458,vbt_B2_day4,2022.2.4,Win32,59.9268892,,,,,,,,,,,,,,,,,,,,kaal,images/br_kaal.png,images/cb_kaal.png,,kaal,,,,,,,,,,,-0.199074046,-0.275925954,1,0,0,kaal,0,59,59,1,1
,,,,,00095,2023-11-24_22h43.50.458,vbt_B2_day4,2022.2.4,Win32,59.9268892,,,,,,,,,,,,,,,,,,,,,,,,,,,,,,,,,,,,,,,,,,,,,
