welcome_mouse.x,welcome_mouse.y,welcome_mouse.leftButton,welcome_mouse.midButton,welcome_mouse.rightButton,"ID",date,expName,psychopyVersion,OS,frameRate,participant,trainInstr_mouse.x,trainInstr_mouse.y,trainInstr_mouse.leftButton,trainInstr_mouse.midButton,trainInstr_mouse.rightButton,translation_key.keys,translation_key.corr,translation_key.rt,word_rsp.text,trWrd_mouse.x,trWrd_mouse.y,trWrd_mouse.leftButton,trWrd_mouse.midButton,trWrd_mouse.rightButton,train_loop.thisRepN,train_loop.thisTrialN,train_loop.thisN,train_loop.thisIndex,train_loop.ran,nlWrd,brWrd,cbWrd,test,testResp,mouse.x,mouse.y,mouse.leftButton,mouse.midButton,mouse.rightButton,testInstr_mouse.x,testInstr_mouse.y,testInstr_mouse.leftButton,testInstr_mouse.midButton,testInstr_mouse.rightButton,test_mouse.x,test_mouse.y,test_mouse.leftButton,test_mouse.midButton,test_mouse.rightButton,test_response.text,test_loop.thisRepN,test_loop.thisTrialN,test_loop.thisN,test_loop.thisIndex,test_loop.ran
0.346296381,-0.169444473,1,0,0,51007,2023-09-27_09h17.11.881,vbt_B2_day4,2022.2.4,Win32,59.65163445,51007,,,,,,,,,,,,,,,,,,,,,,,,,,,,,,,,,,,,,,,,,,,,,
,,,,,51007,2023-09-27_09h17.11.881,vbt_B2_day4,2022.2.4,Win32,59.65163445,51007,0.42314812,-0.364814829,1,0,0,,,,,,,,,,,,,,,,,,,,,,,,,,,,,,,,,,,,,,,,
,,,,,51007,2023-09-27_09h17.11.881,vbt_B2_day4,2022.2.4,Win32,59.65163445,51007,,,,,,down,0,1.5007,,0.532407407,-0.25462963,1,0,0,0,0,0,7,1,geld,images/br_geld.png,images/cb_geld.png,0,,,,,,,,,,,,,,,,,,,,,,
,,,,,51007,2023-09-27_09h17.11.881,vbt_B2_day4,2022.2.4,Win32,59.65163445,51007,,,,,,down,0,1.9945,,0.532407407,-0.25462963,1,0,0,0,1,1,118,1,vinger,images/br_vinger.png,images/cb_vinger.png,0,,,,,,,,,,,,,,,,,,,,,,
,,,,,51007,2023-09-27_09h17.11.881,vbt_B2_day4,2022.2.4,Win32,59.65163445,51007,,,,,,down,0,2.4516,,0.532407407,-0.25462963,1,0,0,0,2,2,111,1,ticket,images/br_ticket.png,images/cb_ticket.png,0,,,,,,,,,,,,,,,,,,,,,,
,,,,,51007,2023-09-27_09h17.11.881,vbt_B2_day4,2022.2.4,Win32,59.65163445,51007,,,,,,down,0,1.2607,,0.532407407,-0.25462963,1,0,0,0,3,3,54,1,gebit,images/br_gebit.png,images/cb_gebit.png,0,,,,,,,,,,,,,,,,,,,,,,
,,,,,51007,2023-09-27_09h17.11.881,vbt_B2_day4,2022.2.4,Win32,59.65163445,51007,,,,,,down,0,5.5701,,0.532407407,-0.25462963,1,0,0,0,4,4,71,1,bever,images/br_bever.png,images/cb_bever.png,0,,,,,,,,,,,,,,,,,,,,,,
,,,,,51007,2023-09-27_09h17.11.881,vbt_B2_day4,2022.2.4,Win32,59.65163445,51007,,,,,,down,0,0.7939,,0.532407407,-0.25462963,1,0,0,0,5,5,2,1,jaar,images/br_jaar.png,images/cb_jaar.png,0,,,,,,,,,,,,,,,,,,,,,,
,,,,,51007,2023-09-27_09h17.11.881,vbt_B2_day4,2022.2.4,Win32,59.65163445,51007,,,,,,down,0,0.3507,,0.532407407,-0.25462963,1,0,0,0,6,6,125,1,aanzien,images/br_aanzien.png,images/cb_aanzien.png,0,,,,,,,,,,,,,,,,,,,,,,
,,,,,51007,2023-09-27_09h17.11.881,vbt_B2_day4,2022.2.4,Win32,59.65163445,51007,,,,,,down,0,6.0351,,0.532407407,-0.25462963,1,0,0,0,7,7,15,1,soda,images/br_soda.png,images/cb_soda.png,0,,,,,,,,,,,,,,,,,,,,,,
,,,,,51007,2023-09-27_09h17.11.881,vbt_B2_day4,2022.2.4,Win32,59.65163445,51007,,,,,,down,0,0.5352,,0.532407407,-0.25462963,1,0,0,0,8,8,113,1,koppen,images/br_koppen.png,images/cb_koppen.png,0,,,,,,,,,,,,,,,,,,,,,,
,,,,,51007,2023-09-27_09h17.11.881,vbt_B2_day4,2022.2.4,Win32,59.65163445,51007,,,,,,down,0,0.6679,,0.400925954,-0.217592593,1,0,0,0,9,9,171,1,aarzelen,images/br_aarzelen.png,images/cb_aarzelen.png,0,,,,,,,,,,,,,,,,,,,,,,
,,,,,51007,2023-09-27_09h17.11.881,vbt_B2_day4,2022.2.4,Win32,59.65163445,51007,,,,,,down,0,1.1008,,0.400925954,-0.217592593,1,0,0,0,10,10,166,1,strikken,images/br_strikken.png,images/cb_strikken.png,0,,,,,,,,,,,,,,,,,,,,,,
,,,,,51007,2023-09-27_09h17.11.881,vbt_B2_day4,2022.2.4,Win32,59.65163445,51007,,,,,,down,0,3.2679,,0.400925954,-0.217592593,1,0,0,0,11,11,43,1,klauw,images/br_klauw.png,images/cb_klauw.png,0,,,,,,,,,,,,,,,,,,,,,,
,,,,,51007,2023-09-27_09h17.11.881,vbt_B2_day4,2022.2.4,Win32,59.65163445,51007,,,,,,down,0,1.9456,,0.400925954,-0.217592593,1,0,0,0,12,12,80,1,kanjer,images/br_kanjer.png,images/cb_kanjer.png,0,,,,,,,,,,,,,,,,,,,,,,
,,,,,51007,2023-09-27_09h17.11.881,vbt_B2_day4,2022.2.4,Win32,59.65163445,51007,,,,,,down,0,0.1514,,0.400925954,-0.217592593,1,0,0,0,13,13,88,1,boeien,images/br_boeien.png,images/cb_boeien.png,0,,,,,,,,,,,,,,,,,,,,,,
,,,,,51007,2023-09-27_09h17.11.881,vbt_B2_day4,2022.2.4,Win32,59.65163445,51007,,,,,,down,0,13.6013,,0.400925954,-0.217592593,1,0,0,0,14,14,178,1,huisdier,images/br_huisdier.png,images/cb_huisdier.png,0,,,,,,,,,,,,,,,,,,,,,,
,,,,,51007,2023-09-27_09h17.11.881,vbt_B2_day4,2022.2.4,Win32,59.65163445,51007,,,,,,down,0,0.5419,,0.400925954,-0.217592593,1,0,0,0,15,15,61,1,groen,images/br_groen.png,images/cb_groen.png,0,,,,,,,,,,,,,,,,,,,,,,
,,,,,51007,2023-09-27_09h17.11.881,vbt_B2_day4,2022.2.4,Win32,59.65163445,51007,,,,,,down,0,1.7842,,0.400925954,-0.217592593,1,0,0,0,16,16,159,1,sufferd,images/br_sufferd.png,images/cb_sufferd.png,0,,,,,,,,,,,,,,,,,,,,,,
,,,,,51007,2023-09-27_09h17.11.881,vbt_B2_day4,2022.2.4,Win32,59.65163445,51007,,,,,,down,0,19.5697,,0.400925954,-0.217592593,1,0,0,0,17,17,146,1,opkomen,images/br_opkomen.png,images/cb_opkomen.png,1,opkomen,,,,,,,,,,,,,,,,,,,,,
,,,,,51007,2023-09-27_09h17.11.881,vbt_B2_day4,2022.2.4,Win32,59.65163445,51007,,,,,,down,0,5.253,,0.400925954,-0.217592593,1,0,0,0,18,18,91,1,gezond,images/br_gezond.png,images/cb_gezond.png,0,,,,,,,,,,,,,,,,,,,,,,
,,,,,51007,2023-09-27_09h17.11.881,vbt_B2_day4,2022.2.4,Win32,59.65163445,51007,,,,,,down,0,3.5684,,0.400925954,-0.217592593,1,0,0,0,19,19,52,1,wagon,images/br_wagon.png,images/cb_wagon.png,0,,,,,,,,,,,,,,,,,,,,,,
,,,,,51007,2023-09-27_09h17.11.881,vbt_B2_day4,2022.2.4,Win32,59.65163445,51007,,,,,,down,0,1.5961,,0.400925954,-0.217592593,1,0,0,0,20,20,195,1,middelen,images/br_middelen.png,images/cb_middelen.png,0,,,,,,,,,,,,,,,,,,,,,,
,,,,,51007,2023-09-27_09h17.11.881,vbt_B2_day4,2022.2.4,Win32,59.65163445,51007,,,,,,down,0,0.7181,,0.400925954,-0.217592593,1,0,0,0,21,21,78,1,leren,images/br_leren.png,images/cb_leren.png,0,,,,,,,,,,,,,,,,,,,,,,
,,,,,51007,2023-09-27_09h17.11.881,vbt_B2_day4,2022.2.4,Win32,59.65163445,51007,,,,,,down,0,0.6362,,0.400925954,-0.217592593,1,0,0,0,22,22,77,1,woede,images/br_woede.png,images/cb_woede.png,0,,,,,,,,,,,,,,,,,,,,,,
,,,,,51007,2023-09-27_09h17.11.881,vbt_B2_day4,2022.2.4,Win32,59.65163445,51007,,,,,,down,0,2.1127,,0.400925954,-0.217592593,1,0,0,0,23,23,94,1,oceaan,images/br_oceaan.png,images/cb_oceaan.png,0,,,,,,,,,,,,,,,,,,,,,,
,,,,,51007,2023-09-27_09h17.11.881,vbt_B2_day4,2022.2.4,Win32,59.65163445,51007,,,,,,down,0,1.3188,,0.400925954,-0.217592593,1,0,0,0,24,24,18,1,blik,images/br_blik.png,images/cb_blik.png,0,,,,,,,,,,,,,,,,,,,,,,
,,,,,51007,2023-09-27_09h17.11.881,vbt_B2_day4,2022.2.4,Win32,59.65163445,51007,,,,,,down,0,0.6721,,0.400925954,-0.217592593,1,0,0,0,25,25,17,1,taal,images/br_taal.png,images/cb_taal.png,0,,,,,,,,,,,,,,,,,,,,,,
,,,,,51007,2023-09-27_09h17.11.881,vbt_B2_day4,2022.2.4,Win32,59.65163445,51007,,,,,,down,0,2.0681,,0.400925954,-0.217592593,1,0,0,0,26,26,164,1,anarchie,images/br_anarchie.png,images/cb_anarchie.png,0,,,,,,,,,,,,,,,,,,,,,,
,,,,,51007,2023-09-27_09h17.11.881,vbt_B2_day4,2022.2.4,Win32,59.65163445,51007,,,,,,down,0,0.5344,,0.400925954,-0.217592593,1,0,0,0,27,27,13,1,kaal,images/br_kaal.png,images/cb_kaal.png,0,,,,,,,,,,,,,,,,,,,,,,
,,,,,51007,2023-09-27_09h17.11.881,vbt_B2_day4,2022.2.4,Win32,59.65163445,51007,,,,,,down,0,1.3959,,0.400925954,-0.217592593,1,0,0,0,28,28,93,1,waarop,images/br_waarop.png,images/cb_waarop.png,0,,,,,,,,,,,,,,,,,,,,,,
,,,,,51007,2023-09-27_09h17.11.881,vbt_B2_day4,2022.2.4,Win32,59.65163445,51007,,,,,,down,0,3.0023,,0.400925954,-0.217592593,1,0,0,0,29,29,182,1,bijkomen,images/br_bijkomen.png,images/cb_bijkomen.png,0,,,,,,,,,,,,,,,,,,,,,,
,,,,,51007,2023-09-27_09h17.11.881,vbt_B2_day4,2022.2.4,Win32,59.65163445,51007,,,,,,down,0,0.6685,,0.400925954,-0.217592593,1,0,0,0,30,30,25,1,plek,images/br_plek.png,images/cb_plek.png,1,plek,,,,,,,,,,,,,,,,,,,,,
,,,,,51007,2023-09-27_09h17.11.881,vbt_B2_day4,2022.2.4,Win32,59.65163445,51007,,,,,,down,0,4.4027,,0.400925954,-0.217592593,1,0,0,0,31,31,160,1,daarheen,images/br_daarheen.png,images/cb_daarheen.png,0,,,,,,,,,,,,,,,,,,,,,,
,,,,,51007,2023-09-27_09h17.11.881,vbt_B2_day4,2022.2.4,Win32,59.65163445,51007,,,,,,down,0,0.4661,,0.400925954,-0.217592593,1,0,0,0,32,32,109,1,totaal,images/br_totaal.png,images/cb_totaal.png,0,,,,,,,,,,,,,,,,,,,,,,
,,,,,51007,2023-09-27_09h17.11.881,vbt_B2_day4,2022.2.4,Win32,59.65163445,51007,,,,,,down,0,3.0332,,0.400925954,-0.217592593,1,0,0,0,33,33,134,1,geliefd,images/br_geliefd.png,images/cb_geliefd.png,0,,,,,,,,,,,,,,,,,,,,,,
,,,,,51007,2023-09-27_09h17.11.881,vbt_B2_day4,2022.2.4,Win32,59.65163445,51007,,,,,,down,0,0.1841,,0.400925954,-0.217592593,1,0,0,0,34,34,73,1,volop,images/br_volop.png,images/cb_volop.png,0,,,,,,,,,,,,,,,,,,,,,,
,,,,,51007,2023-09-27_09h17.11.881,vbt_B2_day4,2022.2.4,Win32,59.65163445,51007,,,,,,down,0,0.5334,,0.400925954,-0.217592593,1,0,0,0,35,35,48,1,steel,images/br_steel.png,images/cb_steel.png,0,,,,,,,,,,,,,,,,,,,,,,
,,,,,51007,2023-09-27_09h17.11.881,vbt_B2_day4,2022.2.4,Win32,59.65163445,51007,,,,,,down,0,7.2299,,0.400925954,-0.217592593,1,0,0,0,36,36,180,1,openbaar,images/br_openbaar.png,images/cb_openbaar.png,0,,,,,,,,,,,,,,,,,,,,,,
,,,,,51007,2023-09-27_09h17.11.881,vbt_B2_day4,2022.2.4,Win32,59.65163445,51007,,,,,,down,0,0.7443,,0.400925954,-0.217592593,1,0,0,0,37,37,68,1,schat,images/br_schat.png,images/cb_schat.png,0,,,,,,,,,,,,,,,,,,,,,,
,,,,,51007,2023-09-27_09h17.11.881,vbt_B2_day4,2022.2.4,Win32,59.65163445,51007,,,,,,down,0,6.5533,,0.400925954,-0.217592593,1,0,0,0,38,38,127,1,doodmoe,images/br_doodmoe.png,images/cb_doodmoe.png,0,,,,,,,,,,,,,,,,,,,,,,
,,,,,51007,2023-09-27_09h17.11.881,vbt_B2_day4,2022.2.4,Win32,59.65163445,51007,,,,,,down,0,3.6177,,0.400925954,-0.217592593,1,0,0,0,39,39,187,1,opkijken,images/br_opkijken.png,images/cb_opkijken.png,1,opkijken,,,,,,,,,,,,,,,,,,,,,
,,,,,51007,2023-09-27_09h17.11.881,vbt_B2_day4,2022.2.4,Win32,59.65163445,51007,,,,,,down,0,1.7847,,0.400925954,-0.217592593,1,0,0,0,40,40,174,1,stemming,images/br_stemming.png,images/cb_stemming.png,0,,,,,,,,,,,,,,,,,,,,,,
,,,,,51007,2023-09-27_09h17.11.881,vbt_B2_day4,2022.2.4,Win32,59.65163445,51007,,,,,,down,0,5.0196,,0.400925954,-0.217592593,1,0,0,0,41,41,158,1,innemen,images/br_innemen.png,images/cb_innemen.png,0,,,,,,,,,,,,,,,,,,,,,,
,,,,,51007,2023-09-27_09h17.11.881,vbt_B2_day4,2022.2.4,Win32,59.65163445,51007,,,,,,down,0,3.1272,,0.400925954,-0.217592593,1,0,0,0,42,42,81,1,dubbel,images/br_dubbel.png,images/cb_dubbel.png,0,,,,,,,,,,,,,,,,,,,,,,
,,,,,51007,2023-09-27_09h17.11.881,vbt_B2_day4,2022.2.4,Win32,59.65163445,51007,,,,,,down,0,2.6499,,0.400925954,-0.217592593,1,0,0,0,43,43,154,1,aflopen,images/br_aflopen.png,images/cb_aflopen.png,0,,,,,,,,,,,,,,,,,,,,,,
,,,,,51007,2023-09-27_09h17.11.881,vbt_B2_day4,2022.2.4,Win32,59.65163445,51007,,,,,,down,0,1.3542,,0.400925954,-0.217592593,1,0,0,0,44,44,100,1,geduld,images/br_geduld.png,images/cb_geduld.png,0,,,,,,,,,,,,,,,,,,,,,,
,,,,,51007,2023-09-27_09h17.11.881,vbt_B2_day4,2022.2.4,Win32,59.65163445,51007,,,,,,down,0,1.251,,0.400925954,-0.217592593,1,0,0,0,45,45,26,1,leuk,images/br_leuk.png,images/cb_leuk.png,1,leuk,,,,,,,,,,,,,,,,,,,,,
,,,,,51007,2023-09-27_09h17.11.881,vbt_B2_day4,2022.2.4,Win32,59.65163445,51007,,,,,,down,0,6.667,,0.400925954,-0.217592593,1,0,0,0,46,46,155,1,gerucht,images/br_gerucht.png,images/cb_gerucht.png,0,,,,,,,,,,,,,,,,,,,,,,
,,,,,51007,2023-09-27_09h17.11.881,vbt_B2_day4,2022.2.4,Win32,59.65163445,51007,,,,,,down,0,10.1097,,0.400925954,-0.217592593,1,0,0,0,47,47,147,1,komisch,images/br_komisch.png,images/cb_komisch.png,1,komisch,,,,,,,,,,,,,,,,,,,,,
,,,,,51007,2023-09-27_09h17.11.881,vbt_B2_day4,2022.2.4,Win32,59.65163445,51007,,,,,,down,0,1.5993,,0.400925954,-0.217592593,1,0,0,0,48,48,51,1,samen,images/br_samen.png,images/cb_samen.png,0,,,,,,,,,,,,,,,,,,,,,,
,,,,,51007,2023-09-27_09h17.11.881,vbt_B2_day4,2022.2.4,Win32,59.65163445,51007,,,,,,down,0,1.8336,,0.400925954,-0.217592593,1,0,0,0,49,49,6,1,diep,images/br_diep.png,images/cb_diep.png,0,,,,,,,,,,,,,,,,,,,,,,
,,,,,51007,2023-09-27_09h17.11.881,vbt_B2_day4,2022.2.4,Win32,59.65163445,51007,,,,,,down,0,6.2821,,0.400925954,-0.217592593,1,0,0,0,50,50,165,1,feestdag,images/br_feestdag.png,images/cb_feestdag.png,0,,,,,,,,,,,,,,,,,,,,,,
,,,,,51007,2023-09-27_09h17.11.881,vbt_B2_day4,2022.2.4,Win32,59.65163445,51007,,,,,,down,0,0.1845,,0.400925954,-0.217592593,1,0,0,0,51,51,31,1,poes,images/br_poes.png,images/cb_poes.png,0,,,,,,,,,,,,,,,,,,,,,,
,,,,,51007,2023-09-27_09h17.11.881,vbt_B2_day4,2022.2.4,Win32,59.65163445,51007,,,,,,down,0,0.9952,,0.400925954,-0.217592593,1,0,0,0,52,52,32,1,palm,images/br_palm.png,images/cb_palm.png,0,,,,,,,,,,,,,,,,,,,,,,
,,,,,51007,2023-09-27_09h17.11.881,vbt_B2_day4,2022.2.4,Win32,59.65163445,51007,,,,,,down,0,2.5986,,0.400925954,-0.217592593,1,0,0,0,53,53,79,1,nodig,images/br_nodig.png,images/cb_nodig.png,0,,,,,,,,,,,,,,,,,,,,,,
,,,,,51007,2023-09-27_09h17.11.881,vbt_B2_day4,2022.2.4,Win32,59.65163445,51007,,,,,,down,0,0.4173,,0.400925954,-0.217592593,1,0,0,0,54,54,16,1,ziek,images/br_ziek.png,images/cb_ziek.png,0,,,,,,,,,,,,,,,,,,,,,,
,,,,,51007,2023-09-27_09h17.11.881,vbt_B2_day4,2022.2.4,Win32,59.65163445,51007,,,,,,down,0,2.2749,,0.400925954,-0.217592593,1,0,0,0,55,55,139,1,stiekem,images/br_stiekem.png,images/cb_stiekem.png,0,,,,,,,,,,,,,,,,,,,,,,
,,,,,51007,2023-09-27_09h17.11.881,vbt_B2_day4,2022.2.4,Win32,59.65163445,51007,,,,,,down,0,0.7185,,0.400925954,-0.217592593,1,0,0,0,56,56,99,1,koffie,images/br_koffie.png,images/cb_koffie.png,0,,,,,,,,,,,,,,,,,,,,,,
,,,,,51007,2023-09-27_09h17.11.881,vbt_B2_day4,2022.2.4,Win32,59.65163445,51007,,,,,,down,0,5.535,,0.400925954,-0.217592593,1,0,0,0,57,57,87,1,toeval,images/br_toeval.png,images/cb_toeval.png,0,,,,,,,,,,,,,,,,,,,,,,
,,,,,51007,2023-09-27_09h17.11.881,vbt_B2_day4,2022.2.4,Win32,59.65163445,51007,,,,,,down,0,2.613,,0.400925954,-0.217592593,1,0,0,0,58,58,161,1,attentie,images/br_attentie.png,images/cb_attentie.png,0,,,,,,,,,,,,,,,,,,,,,,
,,,,,51007,2023-09-27_09h17.11.881,vbt_B2_day4,2022.2.4,Win32,59.65163445,51007,,,,,,down,0,4.435,,0.400925954,-0.217592593,1,0,0,0,59,59,167,1,eenhoorn,images/br_eenhoorn.png,images/cb_eenhoorn.png,0,,,,,,,,,,,,,,,,,,,,,,
,,,,,51007,2023-09-27_09h17.11.881,vbt_B2_day4,2022.2.4,Win32,59.65163445,51007,,,,,,down,0,1.9465,,0.400925954,-0.217592593,1,0,0,0,60,60,59,1,kring,images/br_kring.png,images/cb_kring.png,0,,,,,,,,,,,,,,,,,,,,,,
,,,,,51007,2023-09-27_09h17.11.881,vbt_B2_day4,2022.2.4,Win32,59.65163445,51007,,,,,,down,0,0.0933,,0.400925954,-0.217592593,1,0,0,0,61,61,10,1,leek,images/br_leek.png,images/cb_leek.png,0,,,,,,,,,,,,,,,,,,,,,,
,,,,,51007,2023-09-27_09h17.11.881,vbt_B2_day4,2022.2.4,Win32,59.65163445,51007,,,,,,down,0,0.1504,,0.400925954,-0.217592593,1,0,0,0,62,62,30,1,uien,images/br_uien.png,images/cb_uien.png,0,,,,,,,,,,,,,,,,,,,,,,
,,,,,51007,2023-09-27_09h17.11.881,vbt_B2_day4,2022.2.4,Win32,59.65163445,51007,,,,,,down,0,1.502,,0.400925954,-0.217592593,1,0,0,0,63,63,70,1,ijdel,images/br_ijdel.png,images/cb_ijdel.png,0,,,,,,,,,,,,,,,,,,,,,,
,,,,,51007,2023-09-27_09h17.11.881,vbt_B2_day4,2022.2.4,Win32,59.65163445,51007,,,,,,down,0,2.3244,,0.400925954,-0.217592593,1,0,0,0,64,64,0,1,slak,images/br_slak.png,images/cb_slak.png,0,,,,,,,,,,,,,,,,,,,,,,
,,,,,51007,2023-09-27_09h17.11.881,vbt_B2_day4,2022.2.4,Win32,59.65163445,51007,,,,,,down,0,0.8207,,0.400925954,-0.217592593,1,0,0,0,65,65,124,1,bloeien,images/br_bloeien.png,images/cb_bloeien.png,0,,,,,,,,,,,,,,,,,,,,,,
,,,,,51007,2023-09-27_09h17.11.881,vbt_B2_day4,2022.2.4,Win32,59.65163445,51007,,,,,,down,0,1.9547,,0.400925954,-0.217592593,1,0,0,0,66,66,20,1,site,images/br_site.png,images/cb_site.png,0,,,,,,,,,,,,,,,,,,,,,,
,,,,,51007,2023-09-27_09h17.11.881,vbt_B2_day4,2022.2.4,Win32,59.65163445,51007,,,,,,down,0,2.9251,,0.400925954,-0.217592593,1,0,0,0,67,67,128,1,prikken,images/br_prikken.png,images/cb_prikken.png,0,,,,,,,,,,,,,,,,,,,,,,
,,,,,51007,2023-09-27_09h17.11.881,vbt_B2_day4,2022.2.4,Win32,59.65163445,51007,,,,,,down,0,1.6525,,0.400925954,-0.217592593,1,0,0,0,68,68,92,1,geheim,images/br_geheim.png,images/cb_geheim.png,0,,,,,,,,,,,,,,,,,,,,,,
,,,,,51007,2023-09-27_09h17.11.881,vbt_B2_day4,2022.2.4,Win32,59.65163445,51007,,,,,,down,0,2.8642,,0.400925954,-0.217592593,1,0,0,0,69,69,103,1,joggen,images/br_joggen.png,images/cb_joggen.png,0,,,,,,,,,,,,,,,,,,,,,,
,,,,,51007,2023-09-27_09h17.11.881,vbt_B2_day4,2022.2.4,Win32,59.65163445,51007,,,,,,down,0,0.4802,,0.400925954,-0.217592593,1,0,0,0,70,70,120,1,klimmen,images/br_klimmen.png,images/cb_klimmen.png,0,,,,,,,,,,,,,,,,,,,,,,
,,,,,51007,2023-09-27_09h17.11.881,vbt_B2_day4,2022.2.4,Win32,59.65163445,51007,,,,,,down,0,1.6928,,0.400925954,-0.217592593,1,0,0,0,71,71,66,1,lever,images/br_lever.png,images/cb_lever.png,1,leven,,,,,,,,,,,,,,,,,,,,,
,,,,,51007,2023-09-27_09h17.11.881,vbt_B2_day4,2022.2.4,Win32,59.65163445,51007,,,,,,down,0,1.8951,,0.400925954,-0.217592593,1,0,0,0,72,72,137,1,trekker,images/br_trekker.png,images/cb_trekker.png,0,,,,,,,,,,,,,,,,,,,,,,
,,,,,51007,2023-09-27_09h17.11.881,vbt_B2_day4,2022.2.4,Win32,59.65163445,51007,,,,,,down,0,2.2688,,0.400925954,-0.217592593,1,0,0,0,73,73,35,1,lust,images/br_lust.png,images/cb_lust.png,0,,,,,,,,,,,,,,,,,,,,,,
,,,,,51007,2023-09-27_09h17.11.881,vbt_B2_day4,2022.2.4,Win32,59.65163445,51007,,,,,,down,0,3.5391,,0.400925954,-0.217592593,1,0,0,0,74,74,98,1,kreeft,images/br_kreeft.png,images/cb_kreeft.png,0,,,,,,,,,,,,,,,,,,,,,,
,,,,,51007,2023-09-27_09h17.11.881,vbt_B2_day4,2022.2.4,Win32,59.65163445,51007,,,,,,down,0,1.0672,,0.400925954,-0.217592593,1,0,0,0,75,75,49,1,laken,images/br_laken.png,images/cb_laken.png,0,,,,,,,,,,,,,,,,,,,,,,
,,,,,51007,2023-09-27_09h17.11.881,vbt_B2_day4,2022.2.4,Win32,59.65163445,51007,,,,,,down,0,4.5444,,0.400925954,-0.217592593,1,0,0,0,76,76,179,1,woestijn,images/br_woestijn.png,images/cb_woestijn.png,0,,,,,,,,,,,,,,,,,,,,,,
,,,,,51007,2023-09-27_09h17.11.881,vbt_B2_day4,2022.2.4,Win32,59.65163445,51007,,,,,,down,0,8.428,,0.400925954,-0.217592593,1,0,0,0,77,77,116,1,besmet,images/br_besmet.png,images/cb_besmet.png,0,,,,,,,,,,,,,,,,,,,,,,
,,,,,51007,2023-09-27_09h17.11.881,vbt_B2_day4,2022.2.4,Win32,59.65163445,51007,,,,,,down,0,0.8951,,0.400925954,-0.217592593,1,0,0,0,78,78,44,1,flits,images/br_flits.png,images/cb_flits.png,0,,,,,,,,,,,,,,,,,,,,,,
,,,,,51007,2023-09-27_09h17.11.881,vbt_B2_day4,2022.2.4,Win32,59.65163445,51007,,,,,,down,0,0.1503,,0.400925954,-0.217592593,1,0,0,0,79,79,97,1,loyaal,images/br_loyaal.png,images/cb_loyaal.png,0,,,,,,,,,,,,,,,,,,,,,,
,,,,,51007,2023-09-27_09h17.11.881,vbt_B2_day4,2022.2.4,Win32,59.65163445,51007,,,,,,down,0,1.6342,,0.400925954,-0.217592593,1,0,0,0,80,80,9,1,hier,images/br_hier.png,images/cb_hier.png,0,,,,,,,,,,,,,,,,,,,,,,
,,,,,51007,2023-09-27_09h17.11.881,vbt_B2_day4,2022.2.4,Win32,59.65163445,51007,,,,,,down,0,2.2508,,0.400925954,-0.217592593,1,0,0,0,81,81,102,1,legaal,images/br_legaal.png,images/cb_legaal.png,0,,,,,,,,,,,,,,,,,,,,,,
,,,,,51007,2023-09-27_09h17.11.881,vbt_B2_day4,2022.2.4,Win32,59.65163445,51007,,,,,,down,0,2.5345,,0.400925954,-0.217592593,1,0,0,0,82,82,175,1,heengaan,images/br_heengaan.png,images/cb_heengaan.png,0,,,,,,,,,,,,,,,,,,,,,,
,,,,,51007,2023-09-27_09h17.11.881,vbt_B2_day4,2022.2.4,Win32,59.65163445,51007,,,,,,down,0,1.9345,,0.400925954,-0.217592593,1,0,0,0,83,83,199,1,beseffen,images/br_beseffen.png,images/cb_beseffen.png,0,,,,,,,,,,,,,,,,,,,,,,
,,,,,51007,2023-09-27_09h17.11.881,vbt_B2_day4,2022.2.4,Win32,59.65163445,51007,,,,,,down,0,1.9673,,0.400925954,-0.217592593,1,0,0,0,84,84,89,1,slapen,images/br_slapen.png,images/cb_slapen.png,0,,,,,,,,,,,,,,,,,,,,,,
,,,,,51007,2023-09-27_09h17.11.881,vbt_B2_day4,2022.2.4,Win32,59.65163445,51007,,,,,,down,0,4.4662,,0.400925954,-0.217592593,1,0,0,0,85,85,27,1,dans,images/br_dans.png,images/cb_dans.png,1,dans,,,,,,,,,,,,,,,,,,,,,
,,,,,51007,2023-09-27_09h17.11.881,vbt_B2_day4,2022.2.4,Win32,59.65163445,51007,,,,,,down,0,13.0286,,0.400925954,-0.217592593,1,0,0,0,86,86,162,1,uitdelen,images/br_uitdelen.png,images/cb_uitdelen.png,0,,,,,,,,,,,,,,,,,,,,,,
,,,,,51007,2023-09-27_09h17.11.881,vbt_B2_day4,2022.2.4,Win32,59.65163445,51007,,,,,,down,0,2.4528,,0.400925954,-0.217592593,1,0,0,0,87,87,74,1,graaf,images/br_graaf.png,images/cb_graaf.png,0,,,,,,,,,,,,,,,,,,,,,,
,,,,,51007,2023-09-27_09h17.11.881,vbt_B2_day4,2022.2.4,Win32,59.65163445,51007,,,,,,down,0,5.304,,0.400925954,-0.217592593,1,0,0,0,88,88,129,1,verhaal,images/br_verhaal.png,images/cb_verhaal.png,0,,,,,,,,,,,,,,,,,,,,,,
,,,,,51007,2023-09-27_09h17.11.881,vbt_B2_day4,2022.2.4,Win32,59.65163445,51007,,,,,,down,0,5.316,,0.400925954,-0.217592593,1,0,0,0,89,89,176,1,techniek,images/br_techniek.png,images/cb_techniek.png,0,,,,,,,,,,,,,,,,,,,,,,
,,,,,51007,2023-09-27_09h17.11.881,vbt_B2_day4,2022.2.4,Win32,59.65163445,51007,,,,,,down,0,8.1452,,0.400925954,-0.217592593,1,0,0,0,90,90,186,1,voorraad,images/br_voorraad.png,images/cb_voorraad.png,1,voorraadvoorraad,,,,,,,,,,,,,,,,,,,,,
,,,,,51007,2023-09-27_09h17.11.881,vbt_B2_day4,2022.2.4,Win32,59.65163445,51007,,,,,,down,0,2.9733,,0.400925954,-0.217592593,1,0,0,0,91,91,168,1,bisschop,images/br_bisschop.png,images/cb_bisschop.png,0,,,,,,,,,,,,,,,,,,,,,,
,,,,,51007,2023-09-27_09h17.11.881,vbt_B2_day4,2022.2.4,Win32,59.65163445,51007,,,,,,down,0,1.0899,,0.400925954,-0.217592593,1,0,0,0,92,92,72,1,strak,images/br_strak.png,images/cb_strak.png,0,,,,,,,,,,,,,,,,,,,,,,
,,,,,51007,2023-09-27_09h17.11.881,vbt_B2_day4,2022.2.4,Win32,59.65163445,51007,,,,,,down,0,2.3496,,0.400925954,-0.217592593,1,0,0,0,93,93,122,1,waarvan,images/br_waarvan.png,images/cb_waarvan.png,0,,,,,,,,,,,,,,,,,,,,,,
,,,,,51007,2023-09-27_09h17.11.881,vbt_B2_day4,2022.2.4,Win32,59.65163445,51007,,,,,,down,0,3.3182,,0.400925954,-0.217592593,1,0,0,0,94,94,197,1,spanning,images/br_spanning.png,images/cb_spanning.png,0,,,,,,,,,,,,,,,,,,,,,,
,,,,,51007,2023-09-27_09h17.11.881,vbt_B2_day4,2022.2.4,Win32,59.65163445,51007,,,,,,down,0,0.2166,,0.400925954,-0.217592593,1,0,0,0,95,95,28,1,stal,images/br_stal.png,images/cb_stal.png,0,,,,,,,,,,,,,,,,,,,,,,
,,,,,51007,2023-09-27_09h17.11.881,vbt_B2_day4,2022.2.4,Win32,59.65163445,51007,,,,,,down,0,7.0101,,0.400925954,-0.217592593,1,0,0,0,96,96,145,1,invloed,images/br_invloed.png,images/cb_invloed.png,1,invloed,,,,,,,,,,,,,,,,,,,,,
,,,,,51007,2023-09-27_09h17.11.881,vbt_B2_day4,2022.2.4,Win32,59.65163445,51007,,,,,,down,0,0.3408,,0.400925954,-0.217592593,1,0,0,0,97,97,5,1,blad,images/br_blad.png,images/cb_blad.png,0,,,,,,,,,,,,,,,,,,,,,,
,,,,,51007,2023-09-27_09h17.11.881,vbt_B2_day4,2022.2.4,Win32,59.65163445,51007,,,,,,down,0,3.333,,0.400925954,-0.217592593,1,0,0,0,98,98,23,1,zout,images/br_zout.png,images/cb_zout.png,0,,,,,,,,,,,,,,,,,,,,,,
,,,,,51007,2023-09-27_09h17.11.881,vbt_B2_day4,2022.2.4,Win32,59.65163445,51007,,,,,,down,0,4.0672,,0.400925954,-0.217592593,1,0,0,0,99,99,130,1,keihard,images/br_keihard.png,images/cb_keihard.png,0,,,,,,,,,,,,,,,,,,,,,,
,,,,,51007,2023-09-27_09h17.11.881,vbt_B2_day4,2022.2.4,Win32,59.65163445,51007,,,,,,down,0,3.4371,,0.400925954,-0.217592593,1,0,0,0,100,100,131,1,opzicht,images/br_opzicht.png,images/cb_opzicht.png,0,,,,,,,,,,,,,,,,,,,,,,
,,,,,51007,2023-09-27_09h17.11.881,vbt_B2_day4,2022.2.4,Win32,59.65163445,51007,,,,,,down,0,0.3851,,0.400925954,-0.217592593,1,0,0,0,101,101,33,1,vlek,images/br_vlek.png,images/cb_vlek.png,0,,,,,,,,,,,,,,,,,,,,,,
,,,,,51007,2023-09-27_09h17.11.881,vbt_B2_day4,2022.2.4,Win32,59.65163445,51007,,,,,,down,0,3.6521,,0.400925954,-0.217592593,1,0,0,0,102,102,104,1,zweven,images/br_zweven.png,images/cb_zweven.png,1,zweven,,,,,,,,,,,,,,,,,,,,,
,,,,,51007,2023-09-27_09h17.11.881,vbt_B2_day4,2022.2.4,Win32,59.65163445,51007,,,,,,down,0,0.3277,,0.400925954,-0.217592593,1,0,0,0,103,103,64,1,wegen,images/br_wegen.png,images/cb_wegen.png,1,wegen,,,,,,,,,,,,,,,,,,,,,
,,,,,51007,2023-09-27_09h17.11.881,vbt_B2_day4,2022.2.4,Win32,59.65163445,51007,,,,,,down,0,4.8029,,0.400925954,-0.217592593,1,0,0,0,104,104,196,1,nakijken,images/br_nakijken.png,images/cb_nakijken.png,0,,,,,,,,,,,,,,,,,,,,,,
,,,,,51007,2023-09-27_09h17.11.881,vbt_B2_day4,2022.2.4,Win32,59.65163445,51007,,,,,,down,0,2.0414,,0.400925954,-0.217592593,1,0,0,0,105,105,84,1,lokken,images/br_lokken.png,images/cb_lokken.png,0,,,,,,,,,,,,,,,,,,,,,,
,,,,,51007,2023-09-27_09h17.11.881,vbt_B2_day4,2022.2.4,Win32,59.65163445,51007,,,,,,down,0,0.6873,,0.400925954,-0.217592593,1,0,0,0,106,106,191,1,opheffen,images/br_opheffen.png,images/cb_opheffen.png,0,,,,,,,,,,,,,,,,,,,,,,
,,,,,51007,2023-09-27_09h17.11.881,vbt_B2_day4,2022.2.4,Win32,59.65163445,51007,,,,,,down,0,1.7829,,0.400925954,-0.217592593,1,0,0,0,107,107,8,1,knie,images/br_knie.png,images/cb_knie.png,0,,,,,,,,,,,,,,,,,,,,,,
,,,,,51007,2023-09-27_09h17.11.881,vbt_B2_day4,2022.2.4,Win32,59.65163445,51007,,,,,,down,0,0.4499,,0.400925954,-0.217592593,1,0,0,0,108,108,75,1,snoep,images/br_snoep.png,images/cb_snoep.png,0,,,,,,,,,,,,,,,,,,,,,,
,,,,,51007,2023-09-27_09h17.11.881,vbt_B2_day4,2022.2.4,Win32,59.65163445,51007,,,,,,down,0,4.1512,,0.400925954,-0.217592593,1,0,0,0,109,109,194,1,driemaal,images/br_driemaal.png,images/cb_driemaal.png,0,,,,,,,,,,,,,,,,,,,,,,
,,,,,51007,2023-09-27_09h17.11.881,vbt_B2_day4,2022.2.4,Win32,59.65163445,51007,,,,,,down,0,0.5533,,0.400925954,-0.217592593,1,0,0,0,110,110,69,1,waken,images/br_waken.png,images/cb_waken.png,0,,,,,,,,,,,,,,,,,,,,,,
,,,,,51007,2023-09-27_09h17.11.881,vbt_B2_day4,2022.2.4,Win32,59.65163445,51007,,,,,,down,0,0.5187,,0.400925954,-0.217592593,1,0,0,0,111,111,150,1,gegeven,images/br_gegeven.png,images/cb_gegeven.png,0,,,,,,,,,,,,,,,,,,,,,,
,,,,,51007,2023-09-27_09h17.11.881,vbt_B2_day4,2022.2.4,Win32,59.65163445,51007,,,,,,down,0,0.5325,,0.400925954,-0.217592593,1,0,0,0,112,112,148,1,smullen,images/br_smullen.png,images/cb_smullen.png,0,,,,,,,,,,,,,,,,,,,,,,
,,,,,51007,2023-09-27_09h17.11.881,vbt_B2_day4,2022.2.4,Win32,59.65163445,51007,,,,,,down,0,2.0837,,0.400925954,-0.217592593,1,0,0,0,113,113,138,1,akkoord,images/br_akkoord.png,images/cb_akkoord.png,0,,,,,,,,,,,,,,,,,,,,,,
,,,,,51007,2023-09-27_09h17.11.881,vbt_B2_day4,2022.2.4,Win32,59.65163445,51007,,,,,,down,0,12.2189,,0.400925954,-0.217592593,1,0,0,0,114,114,156,1,rechten,images/br_rechten.png,images/cb_rechten.png,0,,,,,,,,,,,,,,,,,,,,,,
,,,,,51007,2023-09-27_09h17.11.881,vbt_B2_day4,2022.2.4,Win32,59.65163445,51007,,,,,,down,0,1.501,,0.400925954,-0.217592593,1,0,0,0,115,115,95,1,vreten,images/br_vreten.png,images/cb_vreten.png,0,,,,,,,,,,,,,,,,,,,,,,
,,,,,51007,2023-09-27_09h17.11.881,vbt_B2_day4,2022.2.4,Win32,59.65163445,51007,,,,,,down,0,0.7898,,0.400925954,-0.217592593,1,0,0,0,116,116,108,1,excuus,images/br_excuus.png,images/cb_excuus.png,0,,,,,,,,,,,,,,,,,,,,,,
,,,,,51007,2023-09-27_09h17.11.881,vbt_B2_day4,2022.2.4,Win32,59.65163445,51007,,,,,,down,0,8.9899,,0.400925954,-0.217592593,1,0,0,0,117,117,143,1,hechten,images/br_hechten.png,images/cb_hechten.png,0,,,,,,,,,,,,,,,,,,,,,,
,,,,,51007,2023-09-27_09h17.11.881,vbt_B2_day4,2022.2.4,Win32,59.65163445,51007,,,,,,down,0,1.0669,,0.400925954,-0.217592593,1,0,0,0,118,118,11,1,mode,images/br_mode.png,images/cb_mode.png,0,,,,,,,,,,,,,,,,,,,,,,
,,,,,51007,2023-09-27_09h17.11.881,vbt_B2_day4,2022.2.4,Win32,59.65163445,51007,,,,,,down,0,4.6376,,0.400925954,-0.217592593,1,0,0,0,119,119,133,1,seizoen,images/br_seizoen.png,images/cb_seizoen.png,0,,,,,,,,,,,,,,,,,,,,,,
,,,,,51007,2023-09-27_09h17.11.881,vbt_B2_day4,2022.2.4,Win32,59.65163445,51007,,,,,,down,0,1.0091,,0.400925954,-0.217592593,1,0,0,0,120,120,39,1,laag,images/br_laag.png,images/cb_laag.png,0,,,,,,,,,,,,,,,,,,,,,,
,,,,,51007,2023-09-27_09h17.11.881,vbt_B2_day4,2022.2.4,Win32,59.65163445,51007,,,,,,down,0,5.8668,,0.400925954,-0.217592593,1,0,0,0,121,121,117,1,kennis,images/br_kennis.png,images/cb_kennis.png,0,,,,,,,,,,,,,,,,,,,,,,
,,,,,51007,2023-09-27_09h17.11.881,vbt_B2_day4,2022.2.4,Win32,59.65163445,51007,,,,,,down,0,1.1185,,0.400925954,-0.217592593,1,0,0,0,122,122,47,1,kabel,images/br_kabel.png,images/cb_kabel.png,0,,,,,,,,,,,,,,,,,,,,,,
,,,,,51007,2023-09-27_09h17.11.881,vbt_B2_day4,2022.2.4,Win32,59.65163445,51007,,,,,,down,0,3.7842,,0.400925954,-0.217592593,1,0,0,0,123,123,24,1,jurk,images/br_jurk.png,images/cb_jurk.png,1,jurk,,,,,,,,,,,,,,,,,,,,,
,,,,,51007,2023-09-27_09h17.11.881,vbt_B2_day4,2022.2.4,Win32,59.65163445,51007,,,,,,down,0,1.0162,,0.400925954,-0.217592593,1,0,0,0,124,124,41,1,maken,images/br_maken.png,images/cb_maken.png,0,,,,,,,,,,,,,,,,,,,,,,
,,,,,51007,2023-09-27_09h17.11.881,vbt_B2_day4,2022.2.4,Win32,59.65163445,51007,,,,,,down,0,3.1494,,0.400925954,-0.217592593,1,0,0,0,125,125,181,1,toegeven,images/br_toegeven.png,images/cb_toegeven.png,0,,,,,,,,,,,,,,,,,,,,,,
,,,,,51007,2023-09-27_09h17.11.881,vbt_B2_day4,2022.2.4,Win32,59.65163445,51007,,,,,,down,0,0.8361,,0.400925954,-0.217592593,1,0,0,0,126,126,96,1,slagen,images/br_slagen.png,images/cb_slagen.png,0,,,,,,,,,,,,,,,,,,,,,,
,,,,,51007,2023-09-27_09h17.11.881,vbt_B2_day4,2022.2.4,Win32,59.65163445,51007,,,,,,down,0,3.118,,0.400925954,-0.217592593,1,0,0,0,127,127,184,1,aandelen,images/br_aandelen.png,images/cb_aandelen.png,1,aandelen,,,,,,,,,,,,,,,,,,,,,
,,,,,51007,2023-09-27_09h17.11.881,vbt_B2_day4,2022.2.4,Win32,59.65163445,51007,,,,,,down,0,2.0367,,0.400925954,-0.217592593,1,0,0,0,128,128,192,1,schaamte,images/br_schaamte.png,images/cb_schaamte.png,0,,,,,,,,,,,,,,,,,,,,,,
,,,,,51007,2023-09-27_09h17.11.881,vbt_B2_day4,2022.2.4,Win32,59.65163445,51007,,,,,,down,0,0.2014,,0.400925954,-0.217592593,1,0,0,0,129,129,50,1,stoom,images/br_stoom.png,images/cb_stoom.png,0,,,,,,,,,,,,,,,,,,,,,,
,,,,,51007,2023-09-27_09h17.11.881,vbt_B2_day4,2022.2.4,Win32,59.65163445,51007,,,,,,down,0,2.0721,,0.400925954,-0.217592593,1,0,0,0,130,130,90,1,geluid,images/br_geluid.png,images/cb_geluid.png,0,,,,,,,,,,,,,,,,,,,,,,
,,,,,51007,2023-09-27_09h17.11.881,vbt_B2_day4,2022.2.4,Win32,59.65163445,51007,,,,,,down,0,1.2199,,0.400925954,-0.217592593,1,0,0,0,131,131,37,1,mijn,images/br_mijn.png,images/cb_mijn.png,0,,,,,,,,,,,,,,,,,,,,,,
,,,,,51007,2023-09-27_09h17.11.881,vbt_B2_day4,2022.2.4,Win32,59.65163445,51007,,,,,,down,0,5.5645,,0.400925954,-0.217592593,1,0,0,0,132,132,141,1,knielen,images/br_knielen.png,images/cb_knielen.png,0,,,,,,,,,,,,,,,,,,,,,,
,,,,,51007,2023-09-27_09h17.11.881,vbt_B2_day4,2022.2.4,Win32,59.65163445,51007,,,,,,down,0,2.1017,,0.400925954,-0.217592593,1,0,0,0,133,133,121,1,twijfel,images/br_twijfel.png,images/cb_twijfel.png,0,,,,,,,,,,,,,,,,,,,,,,
,,,,,51007,2023-09-27_09h17.11.881,vbt_B2_day4,2022.2.4,Win32,59.65163445,51007,,,,,,down,0,2.4685,,0.400925954,-0.217592593,1,0,0,0,134,134,63,1,flirt,images/br_flirt.png,images/cb_flirt.png,0,,,,,,,,,,,,,,,,,,,,,,
,,,,,51007,2023-09-27_09h17.11.881,vbt_B2_day4,2022.2.4,Win32,59.65163445,51007,,,,,,down,0,1.8857,,0.400925954,-0.217592593,1,0,0,0,135,135,115,1,kleren,images/br_kleren.png,images/cb_kleren.png,0,,,,,,,,,,,,,,,,,,,,,,
,,,,,51007,2023-09-27_09h17.11.881,vbt_B2_day4,2022.2.4,Win32,59.65163445,51007,,,,,,down,0,3.0206,,0.400925954,-0.217592593,1,0,0,0,136,136,101,1,staren,images/br_staren.png,images/cb_staren.png,0,,,,,,,,,,,,,,,,,,,,,,
,,,,,51007,2023-09-27_09h17.11.881,vbt_B2_day4,2022.2.4,Win32,59.65163445,51007,,,,,,down,0,4.3659,,0.400925954,-0.217592593,0,0,1,0,137,137,144,1,eetlust,images/br_eetlust.png,images/cb_eetlust.png,1,eetlust,,,,,,,,,,,,,,,,,,,,,
,,,,,51007,2023-09-27_09h17.11.881,vbt_B2_day4,2022.2.4,Win32,59.65163445,51007,,,,,,down,0,5.2159,,0.289814843,-0.147222236,1,0,0,0,138,138,188,1,strekken,images/br_strekken.png,images/cb_strekken.png,0,,,,,,,,,,,,,,,,,,,,,,
,,,,,51007,2023-09-27_09h17.11.881,vbt_B2_day4,2022.2.4,Win32,59.65163445,51007,,,,,,down,0,3.594,,0.289814843,-0.147222236,1,0,0,0,139,139,123,1,hiervan,images/br_hiervan.png,images/cb_hiervan.png,0,,,,,,,,,,,,,,,,,,,,,,
,,,,,51007,2023-09-27_09h17.11.881,vbt_B2_day4,2022.2.4,Win32,59.65163445,51007,,,,,,down,0,0.3765,,0.289814843,-0.147222236,1,0,0,0,140,140,85,1,heilig,images/br_heilig.png,images/cb_heilig.png,0,,,,,,,,,,,,,,,,,,,,,,
,,,,,51007,2023-09-27_09h17.11.881,vbt_B2_day4,2022.2.4,Win32,59.65163445,51007,,,,,,down,0,2.4394,,0.289814843,-0.147222236,1,0,0,0,141,141,119,1,liefje,images/br_liefje.png,images/cb_liefje.png,0,,,,,,,,,,,,,,,,,,,,,,
,,,,,51007,2023-09-27_09h17.11.881,vbt_B2_day4,2022.2.4,Win32,59.65163445,51007,,,,,,down,0,3.5771,,0.413888861,-0.210185228,1,0,0,0,142,142,67,1,zwart,images/br_zwart.png,images/cb_zwart.png,1,zwart,,,,,,,,,,,,,,,,,,,,,
,,,,,51007,2023-09-27_09h17.11.881,vbt_B2_day4,2022.2.4,Win32,59.65163445,51007,,,,,,down,0,2.5474,,0.413888861,-0.210185228,1,0,0,0,143,143,153,1,vervoer,images/br_vervoer.png,images/cb_vervoer.png,0,,,,,,,,,,,,,,,,,,,,,,
,,,,,51007,2023-09-27_09h17.11.881,vbt_B2_day4,2022.2.4,Win32,59.65163445,51007,,,,,,down,0,1.8006,,0.413888861,-0.210185228,1,0,0,0,144,144,45,1,piste,images/br_piste.png,images/cb_piste.png,0,,,,,,,,,,,,,,,,,,,,,,
,,,,,51007,2023-09-27_09h17.11.881,vbt_B2_day4,2022.2.4,Win32,59.65163445,51007,,,,,,down,0,0.7685,,0.413888861,-0.210185228,1,0,0,0,145,145,86,1,woning,images/br_woning.png,images/cb_woning.png,0,,,,,,,,,,,,,,,,,,,,,,
,,,,,51007,2023-09-27_09h17.11.881,vbt_B2_day4,2022.2.4,Win32,59.65163445,51007,,,,,,down,0,1.8532,,0.413888861,-0.210185228,1,0,0,0,146,146,65,1,parel,images/br_parel.png,images/cb_parel.png,1,parel,,,,,,,,,,,,,,,,,,,,,
,,,,,51007,2023-09-27_09h17.11.881,vbt_B2_day4,2022.2.4,Win32,59.65163445,51007,,,,,,down,0,1.7662,,0.413888861,-0.210185228,1,0,0,0,147,147,56,1,traag,images/br_traag.png,images/cb_traag.png,0,,,,,,,,,,,,,,,,,,,,,,
,,,,,51007,2023-09-27_09h17.11.881,vbt_B2_day4,2022.2.4,Win32,59.65163445,51007,,,,,,down,0,1.0164,,0.413888861,-0.210185228,1,0,0,0,148,148,53,1,baron,images/br_baron.png,images/cb_baron.png,0,,,,,,,,,,,,,,,,,,,,,,
,,,,,51007,2023-09-27_09h17.11.881,vbt_B2_day4,2022.2.4,Win32,59.65163445,51007,,,,,,down,0,0.5162,,0.413888861,-0.210185228,1,0,0,0,149,149,29,1,baas,images/br_baas.png,images/cb_baas.png,0,,,,,,,,,,,,,,,,,,,,,,
,,,,,51007,2023-09-27_09h17.11.881,vbt_B2_day4,2022.2.4,Win32,59.65163445,51007,,,,,,down,0,0.4509,,0.413888861,-0.210185228,1,0,0,0,150,150,177,1,maaltijd,images/br_maaltijd.png,images/cb_maaltijd.png,0,,,,,,,,,,,,,,,,,,,,,,
,,,,,51007,2023-09-27_09h17.11.881,vbt_B2_day4,2022.2.4,Win32,59.65163445,51007,,,,,,down,0,0.617,,0.413888861,-0.210185228,1,0,0,0,151,151,169,1,oprotten,images/br_oprotten.png,images/cb_oprotten.png,0,,,,,,,,,,,,,,,,,,,,,,
,,,,,51007,2023-09-27_09h17.11.881,vbt_B2_day4,2022.2.4,Win32,59.65163445,51007,,,,,,down,0,3.0412,,0.413888861,-0.210185228,1,0,0,0,152,152,157,1,uitlaat,images/br_uitlaat.png,images/cb_uitlaat.png,0,,,,,,,,,,,,,,,,,,,,,,
,,,,,51007,2023-09-27_09h17.11.881,vbt_B2_day4,2022.2.4,Win32,59.65163445,51007,,,,,,down,0,13.1909,,0.413888861,-0.210185228,1,0,0,0,153,153,136,1,waarbij,images/br_waarbij.png,images/cb_waarbij.png,0,,,,,,,,,,,,,,,,,,,,,,
,,,,,51007,2023-09-27_09h17.11.881,vbt_B2_day4,2022.2.4,Win32,59.65163445,51007,,,,,,down,0,2.9176,,0.413888861,-0.210185228,1,0,0,0,154,154,105,1,wijlen,images/br_wijlen.png,images/cb_wijlen.png,1,wijlen,,,,,,,,,,,,,,,,,,,,,
,,,,,51007,2023-09-27_09h17.11.881,vbt_B2_day4,2022.2.4,Win32,59.65163445,51007,,,,,,down,0,1.2506,,0.413888861,-0.210185228,1,0,0,0,155,155,38,1,baai,images/br_baai.png,images/cb_baai.png,0,,,,,,,,,,,,,,,,,,,,,,
,,,,,51007,2023-09-27_09h17.11.881,vbt_B2_day4,2022.2.4,Win32,59.65163445,51007,,,,,,down,0,0.0446,,0.413888861,-0.210185228,1,0,0,0,156,156,57,1,steek,images/br_steek.png,images/cb_steek.png,0,,,,,,,,,,,,,,,,,,,,,,
,,,,,51007,2023-09-27_09h17.11.881,vbt_B2_day4,2022.2.4,Win32,59.65163445,51007,,,,,,down,0,0.7941,,0.413888861,-0.210185228,1,0,0,0,157,157,62,1,knaap,images/br_knaap.png,images/cb_knaap.png,0,,,,,,,,,,,,,,,,,,,,,,
,,,,,51007,2023-09-27_09h17.11.881,vbt_B2_day4,2022.2.4,Win32,59.65163445,51007,,,,,,down,0,0.1366,,0.413888861,-0.210185228,1,0,0,0,158,158,112,1,lukken,images/br_lukken.png,images/cb_lukken.png,0,,,,,,,,,,,,,,,,,,,,,,
,,,,,51007,2023-09-27_09h17.11.881,vbt_B2_day4,2022.2.4,Win32,59.65163445,51007,,,,,,down,0,4.6766,,0.413888861,-0.210185228,1,0,0,0,159,159,4,1,moes,images/br_moes.png,images/cb_moes.png,0,,,,,,,,,,,,,,,,,,,,,,
,,,,,51007,2023-09-27_09h17.11.881,vbt_B2_day4,2022.2.4,Win32,59.65163445,51007,,,,,,down,0,2.8744,,0.413888861,-0.210185228,1,0,0,0,160,160,58,1,tekst,images/br_tekst.png,images/cb_tekst.png,0,,,,,,,,,,,,,,,,,,,,,,
,,,,,51007,2023-09-27_09h17.11.881,vbt_B2_day4,2022.2.4,Win32,59.65163445,51007,,,,,,down,0,0.6745,,0.413888861,-0.210185228,1,0,0,0,161,161,19,1,geit,images/br_geit.png,images/cb_geit.png,0,,,,,,,,,,,,,,,,,,,,,,
,,,,,51007,2023-09-27_09h17.11.881,vbt_B2_day4,2022.2.4,Win32,59.65163445,51007,,,,,,down,0,8.7045,,0.413888861,-0.210185228,1,0,0,0,162,162,190,1,goedkoop,images/br_goedkoop.png,images/cb_goedkoop.png,0,,,,,,,,,,,,,,,,,,,,,,
,,,,,51007,2023-09-27_09h17.11.881,vbt_B2_day4,2022.2.4,Win32,59.65163445,51007,,,,,,down,0,2.9838,,0.413888861,-0.210185228,1,0,0,0,163,163,173,1,apparaat,images/br_apparaat.png,images/cb_apparaat.png,0,,,,,,,,,,,,,,,,,,,,,,
,,,,,51007,2023-09-27_09h17.11.881,vbt_B2_day4,2022.2.4,Win32,59.65163445,51007,,,,,,down,0,0.6364,,0.413888861,-0.210185228,1,0,0,0,164,164,21,1,mist,images/br_mist.png,images/cb_mist.png,0,,,,,,,,,,,,,,,,,,,,,,
,,,,,51007,2023-09-27_09h17.11.881,vbt_B2_day4,2022.2.4,Win32,59.65163445,51007,,,,,,down,0,1.5838,,0.413888861,-0.210185228,1,0,0,0,165,165,83,1,mening,images/br_mening.png,images/cb_mening.png,0,,,,,,,,,,,,,,,,,,,,,,
,,,,,51007,2023-09-27_09h17.11.881,vbt_B2_day4,2022.2.4,Win32,59.65163445,51007,,,,,,down,0,0.1917,,0.413888861,-0.210185228,1,0,0,0,166,166,151,1,aanzoek,images/br_aanzoek.png,images/cb_aanzoek.png,0,,,,,,,,,,,,,,,,,,,,,,
,,,,,51007,2023-09-27_09h17.11.881,vbt_B2_day4,2022.2.4,Win32,59.65163445,51007,,,,,,down,0,5.7683,,0.413888861,-0.210185228,1,0,0,0,167,167,60,1,jasje,images/br_jasje.png,images/cb_jasje.png,0,,,,,,,,,,,,,,,,,,,,,,
,,,,,51007,2023-09-27_09h17.11.881,vbt_B2_day4,2022.2.4,Win32,59.65163445,51007,,,,,,down,0,0.2479,,0.413888861,-0.210185228,1,0,0,0,168,168,114,1,vullen,images/br_vullen.png,images/cb_vullen.png,0,,,,,,,,,,,,,,,,,,,,,,
,,,,,51007,2023-09-27_09h17.11.881,vbt_B2_day4,2022.2.4,Win32,59.65163445,51007,,,,,,down,0,5.6011,,0.413888861,-0.210185228,1,0,0,0,169,169,82,1,muziek,images/br_muziek.png,images/cb_muziek.png,0,,,,,,,,,,,,,,,,,,,,,,
,,,,,51007,2023-09-27_09h17.11.881,vbt_B2_day4,2022.2.4,Win32,59.65163445,51007,,,,,,down,0,0.09,,0.413888861,-0.210185228,1,0,0,0,170,170,42,1,bleek,images/br_bleek.png,images/cb_bleek.png,0,,,,,,,,,,,,,,,,,,,,,,
,,,,,51007,2023-09-27_09h17.11.881,vbt_B2_day4,2022.2.4,Win32,59.65163445,51007,,,,,,down,0,0.1219,,0.413888861,-0.210185228,1,0,0,0,171,171,12,1,kust,images/br_kust.png,images/cb_kust.png,0,,,,,,,,,,,,,,,,,,,,,,
,,,,,51007,2023-09-27_09h17.11.881,vbt_B2_day4,2022.2.4,Win32,59.65163445,51007,,,,,,down,0,4.1674,,0.413888861,-0.210185228,1,0,0,0,172,172,183,1,getuigen,images/br_getuigen.png,images/cb_getuigen.png,0,,,,,,,,,,,,,,,,,,,,,,
,,,,,51007,2023-09-27_09h17.11.881,vbt_B2_day4,2022.2.4,Win32,59.65163445,51007,,,,,,down,0,2.3612,,0.413888861,-0.210185228,1,0,0,0,173,173,46,1,jagen,images/br_jagen.png,images/cb_jagen.png,0,,,,,,,,,,,,,,,,,,,,,,
,,,,,51007,2023-09-27_09h17.11.881,vbt_B2_day4,2022.2.4,Win32,59.65163445,51007,,,,,,down,0,1.8341,,0.413888861,-0.210185228,1,0,0,0,174,174,126,1,kasteel,images/br_kasteel.png,images/cb_kasteel.png,0,,,,,,,,,,,,,,,,,,,,,,
,,,,,51007,2023-09-27_09h17.11.881,vbt_B2_day4,2022.2.4,Win32,59.65163445,51007,,,,,,down,0,0.6519,,0.413888861,-0.210185228,1,0,0,0,175,175,140,1,blijven,images/br_blijven.png,images/cb_blijven.png,0,,,,,,,,,,,,,,,,,,,,,,
,,,,,51007,2023-09-27_09h17.11.881,vbt_B2_day4,2022.2.4,Win32,59.65163445,51007,,,,,,down,0,2.9959,,0.413888861,-0.210185228,1,0,0,0,176,176,34,1,vorm,images/br_vorm.png,images/cb_vorm.png,0,,,,,,,,,,,,,,,,,,,,,,
,,,,,51007,2023-09-27_09h17.11.881,vbt_B2_day4,2022.2.4,Win32,59.65163445,51007,,,,,,down,0,1.0656,,0.413888861,-0.210185228,1,0,0,0,177,177,3,1,mand,images/br_mand.png,images/cb_mand.png,0,,,,,,,,,,,,,,,,,,,,,,
,,,,,51007,2023-09-27_09h17.11.881,vbt_B2_day4,2022.2.4,Win32,59.65163445,51007,,,,,,down,0,4.1346,,0.413888861,-0.210185228,1,0,0,0,178,178,185,1,mijnheer,images/br_mijnheer.png,images/cb_mijnheer.png,1,mijnheer,,,,,,,,,,,,,,,,,,,,,
,,,,,51007,2023-09-27_09h17.11.881,vbt_B2_day4,2022.2.4,Win32,59.65163445,51007,,,,,,down,0,1.6844,,0.413888861,-0.210185228,1,0,0,0,179,179,170,1,schatten,images/br_schatten.png,images/cb_schatten.png,0,,,,,,,,,,,,,,,,,,,,,,
,,,,,51007,2023-09-27_09h17.11.881,vbt_B2_day4,2022.2.4,Win32,59.65163445,51007,,,,,,down,0,0.5862,,0.413888861,-0.210185228,1,0,0,0,180,180,55,1,praat,images/br_praat.png,images/cb_praat.png,0,,,,,,,,,,,,,,,,,,,,,,
,,,,,51007,2023-09-27_09h17.11.881,vbt_B2_day4,2022.2.4,Win32,59.65163445,51007,,,,,,down,0,4.5871,,0.413888861,-0.210185228,1,0,0,0,181,181,106,1,zingen,images/br_zingen.png,images/cb_zingen.png,1,zingen,,,,,,,,,,,,,,,,,,,,,
,,,,,51007,2023-09-27_09h17.11.881,vbt_B2_day4,2022.2.4,Win32,59.65163445,51007,,,,,,down,0,3.8343,,0.413888861,-0.210185228,1,0,0,0,182,182,149,1,redding,images/br_redding.png,images/cb_redding.png,0,,,,,,,,,,,,,,,,,,,,,,
,,,,,51007,2023-09-27_09h17.11.881,vbt_B2_day4,2022.2.4,Win32,59.65163445,51007,,,,,,down,0,0.8622,,0.413888861,-0.210185228,1,0,0,0,183,183,1,1,zaal,images/br_zaal.png,images/cb_zaal.png,0,,,,,,,,,,,,,,,,,,,,,,
,,,,,51007,2023-09-27_09h17.11.881,vbt_B2_day4,2022.2.4,Win32,59.65163445,51007,,,,,,down,0,1.4495,,0.413888861,-0.210185228,1,0,0,0,184,184,198,1,bedoelen,images/br_bedoelen.png,images/cb_bedoelen.png,0,,,,,,,,,,,,,,,,,,,,,,
,,,,,51007,2023-09-27_09h17.11.881,vbt_B2_day4,2022.2.4,Win32,59.65163445,51007,,,,,,down,0,4.2806,,0.413888861,-0.210185228,1,0,0,0,185,185,135,1,gedicht,images/br_gedicht.png,images/cb_gedicht.png,0,,,,,,,,,,,,,,,,,,,,,,
,,,,,51007,2023-09-27_09h17.11.881,vbt_B2_day4,2022.2.4,Win32,59.65163445,51007,,,,,,down,0,2.4528,,0.413888861,-0.210185228,1,0,0,0,186,186,14,1,rijp,images/br_rijp.png,images/cb_rijp.png,0,,,,,,,,,,,,,,,,,,,,,,
,,,,,51007,2023-09-27_09h17.11.881,vbt_B2_day4,2022.2.4,Win32,59.65163445,51007,,,,,,down,0,0.1989,,0.413888861,-0.210185228,1,0,0,0,187,187,193,1,weeshuis,images/br_weeshuis.png,images/cb_weeshuis.png,0,,,,,,,,,,,,,,,,,,,,,,
,,,,,51007,2023-09-27_09h17.11.881,vbt_B2_day4,2022.2.4,Win32,59.65163445,51007,,,,,,down,0,0.6229,,0.413888861,-0.210185228,1,0,0,0,188,188,40,1,schep,images/br_schep.png,images/cb_schep.png,0,,,,,,,,,,,,,,,,,,,,,,
,,,,,51007,2023-09-27_09h17.11.881,vbt_B2_day4,2022.2.4,Win32,59.65163445,51007,,,,,,down,0,2.3498,,0.415740826,-0.210185228,1,0,0,0,189,189,36,1,vuur,images/br_vuur.png,images/cb_vuur.png,0,,,,,,,,,,,,,,,,,,,,,,
,,,,,51007,2023-09-27_09h17.11.881,vbt_B2_day4,2022.2.4,Win32,59.65163445,51007,,,,,,down,0,0.0194,,0.415740826,-0.210185228,1,0,0,0,190,190,132,1,grappen,images/br_grappen.png,images/cb_grappen.png,0,,,,,,,,,,,,,,,,,,,,,,
,,,,,51007,2023-09-27_09h17.11.881,vbt_B2_day4,2022.2.4,Win32,59.65163445,51007,,,,,,down,0,3.0062,,0.415740826,-0.210185228,1,0,0,0,191,191,76,1,afval,images/br_afval.png,images/cb_afval.png,0,,,,,,,,,,,,,,,,,,,,,,
,,,,,51007,2023-09-27_09h17.11.881,vbt_B2_day4,2022.2.4,Win32,59.65163445,51007,,,,,,down,0,1.7519,,0.415740826,-0.210185228,1,0,0,0,192,192,22,1,stof,images/br_stof.png,images/cb_stof.png,0,,,,,,,,,,,,,,,,,,,,,,
,,,,,51007,2023-09-27_09h17.11.881,vbt_B2_day4,2022.2.4,Win32,59.65163445,51007,,,,,,down,0,1.09,,0.415740826,-0.210185228,1,0,0,0,193,193,189,1,aanraden,images/br_aanraden.png,images/cb_aanraden.png,0,,,,,,,,,,,,,,,,,,,,,,
,,,,,51007,2023-09-27_09h17.11.881,vbt_B2_day4,2022.2.4,Win32,59.65163445,51007,,,,,,down,0,2.4669,,0.415740826,-0.210185228,1,0,0,0,194,194,107,1,maling,images/br_maling.png,images/cb_maling.png,1,maling,,,,,,,,,,,,,,,,,,,,,
,,,,,51007,2023-09-27_09h17.11.881,vbt_B2_day4,2022.2.4,Win32,59.65163445,51007,,,,,,down,0,1.4591,,0.415740826,-0.210185228,1,0,0,0,195,195,172,1,weigeren,images/br_weigeren.png,images/cb_weigeren.png,0,,,,,,,,,,,,,,,,,,,,,,
,,,,,51007,2023-09-27_09h17.11.881,vbt_B2_day4,2022.2.4,Win32,59.65163445,51007,,,,,,down,0,4.5918,,0.415740826,-0.210185228,1,0,0,0,196,196,110,1,zuster,images/br_zuster.png,images/cb_zuster.png,0,,,,,,,,,,,,,,,,,,,,,,
,,,,,51007,2023-09-27_09h17.11.881,vbt_B2_day4,2022.2.4,Win32,59.65163445,51007,,,,,,down,0,0.9444,,0.415740826,-0.210185228,1,0,0,0,197,197,163,1,schuilen,images/br_schuilen.png,images/cb_schuilen.png,0,,,,,,,,,,,,,,,,,,,,,,
,,,,,51007,2023-09-27_09h17.11.881,vbt_B2_day4,2022.2.4,Win32,59.65163445,51007,,,,,,down,0,5.2591,,0.415740826,-0.210185228,1,0,0,0,198,198,142,1,snuiven,images/br_snuiven.png,images/cb_snuiven.png,0,,,,,,,,,,,,,,,,,,,,,,
,,,,,51007,2023-09-27_09h17.11.881,vbt_B2_day4,2022.2.4,Win32,59.65163445,51007,,,,,,down,0,3.9708,,0.415740826,-0.210185228,1,0,0,0,199,199,152,1,afnemen,images/br_afnemen.png,images/cb_afnemen.png,0,,,,,,,,,,,,,,,,,,,,,,
,,,,,51007,2023-09-27_09h17.11.881,vbt_B2_day4,2022.2.4,Win32,59.65163445,51007,,,,,,,,,,,,,,,,,,,,,,,,,0.415740826,-0.210185228,1,0,0,,,,,,,,,,,,,,,,
,,,,,51007,2023-09-27_09h17.11.881,vbt_B2_day4,2022.2.4,Win32,59.65163445,51007,,,,,,,,,,,,,,,,,,,,,,,,,,,,,,0.712962963,-0.193518533,1,0,0,,,,,,,,,,,
,,,,,51007,2023-09-27_09h17.11.881,vbt_B2_day4,2022.2.4,Win32,59.65163445,51007,,,,,,,,,,,,,,,,,,,,tucket,images/br_tucket.png,images/cb_tucket.png,,tuc....,,,,,,,,,,,0.575925898,-0.295370384,1,0,0,tuc....,0,0,0,30,1
,,,,,51007,2023-09-27_09h17.11.881,vbt_B2_day4,2022.2.4,Win32,59.65163445,51007,,,,,,,,,,,,,,,,,,,,vreten,images/br_vreten.png,images/cb_vreten.png,,vreten,,,,,,,,,,,0.575925898,-0.295370384,1,0,0,vreten,0,1,1,11,1
,,,,,51007,2023-09-27_09h17.11.881,vbt_B2_day4,2022.2.4,Win32,59.65163445,51007,,,,,,,,,,,,,,,,,,,,pijnlijk,images/br_pijnlijk.png,images/cb_pijnlijk.png,,pijn....,,,,,,,,,,,0.575925898,-0.295370384,1,0,0,pijn....,0,2,2,58,1
,,,,,51007,2023-09-27_09h17.11.881,vbt_B2_day4,2022.2.4,Win32,59.65163445,51007,,,,,,,,,,,,,,,,,,,,seizoen,images/br_seizoen.png,images/cb_seizoen.png,,seizoen,,,,,,,,,,,0.575925898,-0.295370384,1,0,0,seizoen,0,3,3,13,1
,,,,,51007,2023-09-27_09h17.11.881,vbt_B2_day4,2022.2.4,Win32,59.65163445,51007,,,,,,,,,,,,,,,,,,,,broodje,images/br_broodje.png,images/cb_broodje.png,,brood..,,,,,,,,,,,0.501851824,-0.347222222,1,0,0,brood..,0,4,4,55,1
,,,,,51007,2023-09-27_09h17.11.881,vbt_B2_day4,2022.2.4,Win32,59.65163445,51007,,,,,,,,,,,,,,,,,,,,baron,images/br_baron.png,images/cb_baron.png,,baron,,,,,,,,,,,0.44722225,-0.336111139,1,0,0,baron,0,5,5,5,1
,,,,,51007,2023-09-27_09h17.11.881,vbt_B2_day4,2022.2.4,Win32,59.65163445,51007,,,,,,,,,,,,,,,,,,,,schotel,images/br_schotel.png,images/cb_schotel.png,,schot..,,,,,,,,,,,0.44722225,-0.336111139,1,0,0,schot..,0,6,6,52,1
,,,,,51007,2023-09-27_09h17.11.881,vbt_B2_day4,2022.2.4,Win32,59.65163445,51007,,,,,,,,,,,,,,,,,,,,bruin,images/br_bruin.png,images/cb_bruin.png,,bruin,,,,,,,,,,,0.44722225,-0.336111139,1,0,0,bruin,0,7,7,45,1
,,,,,51007,2023-09-27_09h17.11.881,vbt_B2_day4,2022.2.4,Win32,59.65163445,51007,,,,,,,,,,,,,,,,,,,,seizoon,images/br_seizoon.png,images/cb_seizoon.png,,seizoon,,,,,,,,,,,0.44722225,-0.336111139,1,0,0,seizoon,0,8,8,33,1
,,,,,51007,2023-09-27_09h17.11.881,vbt_B2_day4,2022.2.4,Win32,59.65163445,51007,,,,,,,,,,,,,,,,,,,,zwek,images/br_zwek.png,images/cb_zwek.png,,zwek,,,,,,,,,,,0.44722225,-0.336111139,1,0,0,zwek,0,9,9,20,1
,,,,,51007,2023-09-27_09h17.11.881,vbt_B2_day4,2022.2.4,Win32,59.65163445,51007,,,,,,,,,,,,,,,,,,,,heengaan,images/br_heengaan.png,images/cb_heengaan.png,,heengaan,,,,,,,,,,,0.44722225,-0.336111139,1,0,0,heengaan,0,10,10,19,1
,,,,,51007,2023-09-27_09h17.11.881,vbt_B2_day4,2022.2.4,Win32,59.65163445,51007,,,,,,,,,,,,,,,,,,,,geliefd,images/br_geliefd.png,images/cb_geliefd.png,,geliefd,,,,,,,,,,,0.44722225,-0.336111139,1,0,0,geliefd,0,11,11,14,1
,,,,,51007,2023-09-27_09h17.11.881,vbt_B2_day4,2022.2.4,Win32,59.65163445,51007,,,,,,,,,,,,,,,,,,,,steen,images/br_steen.png,images/cb_steen.png,,steen,,,,,,,,,,,0.44722225,-0.336111139,1,0,0,steen,0,12,12,44,1
,,,,,51007,2023-09-27_09h17.11.881,vbt_B2_day4,2022.2.4,Win32,59.65163445,51007,,,,,,,,,,,,,,,,,,,,fran,images/br_fran.png,images/cb_fran.png,,fran,,,,,,,,,,,0.44722225,-0.336111139,1,0,0,fran,0,13,13,22,1
,,,,,51007,2023-09-27_09h17.11.881,vbt_B2_day4,2022.2.4,Win32,59.65163445,51007,,,,,,,,,,,,,,,,,,,,gebog,images/br_gebog.png,images/cb_gebog.png,,gebog,,,,,,,,,,,0.259259259,-0.338888875,1,0,0,gebog,0,14,14,24,1
,,,,,51007,2023-09-27_09h17.11.881,vbt_B2_day4,2022.2.4,Win32,59.65163445,51007,,,,,,,,,,,,,,,,,,,,flippen,images/br_flippen.png,images/cb_flippen.png,,flippe..,,,,,,,,,,,0.259259259,-0.338888875,1,0,0,flippe..,0,15,15,54,1
,,,,,51007,2023-09-27_09h17.11.881,vbt_B2_day4,2022.2.4,Win32,59.65163445,51007,,,,,,,,,,,,,,,,,,,,gijf,images/br_gijf.png,images/cb_gijf.png,,gijf,,,,,,,,,,,0.259259259,-0.338888875,1,0,0,gijf,0,16,16,23,1
,,,,,51007,2023-09-27_09h17.11.881,vbt_B2_day4,2022.2.4,Win32,59.65163445,51007,,,,,,,,,,,,,,,,,,,,gedicht,images/br_gedicht.png,images/cb_gedicht.png,,gedifht,,,,,,,,,,,0.292592578,-0.337037051,1,0,0,gedifht,0,17,17,15,1
,,,,,51007,2023-09-27_09h17.11.881,vbt_B2_day4,2022.2.4,Win32,59.65163445,51007,,,,,,,,,,,,,,,,,,,,opruimen,images/br_opruimen.png,images/cb_opruimen.png,,opruimen,,,,,,,,,,,0.292592578,-0.337037051,1,0,0,opruimen,0,18,18,59,1
,,,,,51007,2023-09-27_09h17.11.881,vbt_B2_day4,2022.2.4,Win32,59.65163445,51007,,,,,,,,,,,,,,,,,,,,noodzaak,images/br_noodzaak.png,images/cb_noodzaak.png,,noodzaak,,,,,,,,,,,0.292592578,-0.337037051,1,0,0,noodzaak,0,19,19,56,1
,,,,,51007,2023-09-27_09h17.11.881,vbt_B2_day4,2022.2.4,Win32,59.65163445,51007,,,,,,,,,,,,,,,,,,,,schenden,images/br_schenden.png,images/cb_schenden.png,,schenden,,,,,,,,,,,0.292592578,-0.337037051,1,0,0,schenden,0,20,20,57,1
,,,,,51007,2023-09-27_09h17.11.881,vbt_B2_day4,2022.2.4,Win32,59.65163445,51007,,,,,,,,,,,,,,,,,,,,stemming,images/br_stemming.png,images/cb_stemming.png,,stemming,,,,,,,,,,,0.292592578,-0.337037051,1,0,0,stemming,0,21,21,18,1
,,,,,51007,2023-09-27_09h17.11.881,vbt_B2_day4,2022.2.4,Win32,59.65163445,51007,,,,,,,,,,,,,,,,,,,,wagon,images/br_wagon.png,images/cb_wagon.png,,wagon,,,,,,,,,,,0.292592578,-0.337037051,1,0,0,wagon,0,22,22,4,1
,,,,,51007,2023-09-27_09h17.11.881,vbt_B2_day4,2022.2.4,Win32,59.65163445,51007,,,,,,,,,,,,,,,,,,,,wozing,images/br_wozing.png,images/cb_wozing.png,,woning,,,,,,,,,,,0.292592578,-0.337037051,1,0,0,woning,0,23,23,28,1
,,,,,51007,2023-09-27_09h17.11.881,vbt_B2_day4,2022.2.4,Win32,59.65163445,51007,,,,,,,,,,,,,,,,,,,,apparaat,images/br_apparaat.png,images/cb_apparaat.png,,apparaat,,,,,,,,,,,0.292592578,-0.337037051,1,0,0,apparaat,0,24,24,17,1
,,,,,51007,2023-09-27_09h17.11.881,vbt_B2_day4,2022.2.4,Win32,59.65163445,51007,,,,,,,,,,,,,,,,,,,,soda,images/br_soda.png,images/cb_soda.png,,soda,,,,,,,,,,,0.292592578,-0.337037051,1,0,0,soda,0,25,25,3,1
,,,,,51007,2023-09-27_09h17.11.881,vbt_B2_day4,2022.2.4,Win32,59.65163445,51007,,,,,,,,,,,,,,,,,,,,bisschap,images/br_bisschap.png,images/cb_bisschap.png,,bisschap,,,,,,,,,,,0.292592578,-0.337037051,1,0,0,bisschap,0,26,26,36,1
,,,,,51007,2023-09-27_09h17.11.881,vbt_B2_day4,2022.2.4,Win32,59.65163445,51007,,,,,,,,,,,,,,,,,,,,grappen,images/br_grappen.png,images/cb_grappen.png,,grappen,,,,,,,,,,,0.292592578,-0.337037051,1,0,0,grappen,0,27,27,12,1
,,,,,51007,2023-09-27_09h17.11.881,vbt_B2_day4,2022.2.4,Win32,59.65163445,51007,,,,,,,,,,,,,,,,,,,,waarop,images/br_waarop.png,images/cb_waarop.png,,waarop,,,,,,,,,,,0.292592578,-0.337037051,1,0,0,waarop,0,28,28,9,1
,,,,,51007,2023-09-27_09h17.11.881,vbt_B2_day4,2022.2.4,Win32,59.65163445,51007,,,,,,,,,,,,,,,,,,,,gebit,images/br_gebit.png,images/cb_gebit.png,,gebit,,,,,,,,,,,0.292592578,-0.337037051,1,0,0,gebit,0,29,29,6,1
,,,,,51007,2023-09-27_09h17.11.881,vbt_B2_day4,2022.2.4,Win32,59.65163445,51007,,,,,,,,,,,,,,,,,,,,opkicht,images/br_opkicht.png,images/cb_opkicht.png,,opk.....,,,,,,,,,,,0.292592578,-0.337037051,1,0,0,opk.....,0,30,30,34,1
,,,,,51007,2023-09-27_09h17.11.881,vbt_B2_day4,2022.2.4,Win32,59.65163445,51007,,,,,,,,,,,,,,,,,,,,getucht,images/br_getucht.png,images/cb_getucht.png,,getu....,,,,,,,,,,,0.292592578,-0.337037051,1,0,0,getu....,0,31,31,35,1
,,,,,51007,2023-09-27_09h17.11.881,vbt_B2_day4,2022.2.4,Win32,59.65163445,51007,,,,,,,,,,,,,,,,,,,,oceaan,images/br_oceaan.png,images/cb_oceaan.png,,oceaan,,,,,,,,,,,0.292592578,-0.337037051,1,0,0,oceaan,0,32,32,10,1
,,,,,51007,2023-09-27_09h17.11.881,vbt_B2_day4,2022.2.4,Win32,59.65163445,51007,,,,,,,,,,,,,,,,,,,,dalen,images/br_dalen.png,images/cb_dalen.png,,dalen,,,,,,,,,,,0.292592578,-0.337037051,1,0,0,dalen,0,33,33,46,1
,,,,,51007,2023-09-27_09h17.11.881,vbt_B2_day4,2022.2.4,Win32,59.65163445,51007,,,,,,,,,,,,,,,,,,,,sulbon,images/br_sulbon.png,images/cb_sulbon.png,,sulbon,,,,,,,,,,,0.292592578,-0.337037051,1,0,0,sulbon,0,34,34,31,1
,,,,,51007,2023-09-27_09h17.11.881,vbt_B2_day4,2022.2.4,Win32,59.65163445,51007,,,,,,,,,,,,,,,,,,,,strok,images/br_strok.png,images/cb_strok.png,,strok,,,,,,,,,,,0.292592578,-0.337037051,1,0,0,strok,0,35,35,25,1
,,,,,51007,2023-09-27_09h17.11.881,vbt_B2_day4,2022.2.4,Win32,59.65163445,51007,,,,,,,,,,,,,,,,,,,,drooien,images/br_drooien.png,images/cb_drooien.png,,drooie.,,,,,,,,,,,0.313888974,-0.347222222,1,0,0,drooie.,0,36,36,32,1
,,,,,51007,2023-09-27_09h17.11.881,vbt_B2_day4,2022.2.4,Win32,59.65163445,51007,,,,,,,,,,,,,,,,,,,,ezel,images/br_ezel.png,images/cb_ezel.png,,ezel,,,,,,,,,,,0.313888974,-0.347222222,1,0,0,ezel,0,37,37,42,1
,,,,,51007,2023-09-27_09h17.11.881,vbt_B2_day4,2022.2.4,Win32,59.65163445,51007,,,,,,,,,,,,,,,,,,,,toevol,images/br_toevol.png,images/cb_toevol.png,,toevol,,,,,,,,,,,0.313888974,-0.347222222,1,0,0,toevol,0,38,38,29,1
,,,,,51007,2023-09-27_09h17.11.881,vbt_B2_day4,2022.2.4,Win32,59.65163445,51007,,,,,,,,,,,,,,,,,,,,eerst,images/br_eerst.png,images/cb_eerst.png,,eerst,,,,,,,,,,,0.313888974,-0.347222222,1,0,0,eerst,0,39,39,47,1
,,,,,51007,2023-09-27_09h17.11.881,vbt_B2_day4,2022.2.4,Win32,59.65163445,51007,,,,,,,,,,,,,,,,,,,,geheim,images/br_geheim.png,images/cb_geheim.png,,geheim,,,,,,,,,,,0.313888974,-0.347222222,1,0,0,geheim,0,40,40,8,1
,,,,,51007,2023-09-27_09h17.11.881,vbt_B2_day4,2022.2.4,Win32,59.65163445,51007,,,,,,,,,,,,,,,,,,,,praat,images/br_praat.png,images/cb_praat.png,,praat,,,,,,,,,,,0.421296296,-0.334259245,1,0,0,praat,0,41,41,7,1
,,,,,51007,2023-09-27_09h17.11.881,vbt_B2_day4,2022.2.4,Win32,59.65163445,51007,,,,,,,,,,,,,,,,,,,,kust,images/br_kust.png,images/cb_kust.png,,kust,,,,,,,,,,,0.376851824,-0.347222222,1,0,0,kust,0,42,42,0,1
,,,,,51007,2023-09-27_09h17.11.881,vbt_B2_day4,2022.2.4,Win32,59.65163445,51007,,,,,,,,,,,,,,,,,,,,pittig,images/br_pittig.png,images/cb_pittig.png,,pittig,,,,,,,,,,,0.376851824,-0.347222222,1,0,0,pittig,0,43,43,51,1
,,,,,51007,2023-09-27_09h17.11.881,vbt_B2_day4,2022.2.4,Win32,59.65163445,51007,,,,,,,,,,,,,,,,,,,,lappen,images/br_lappen.png,images/cb_lappen.png,,lappen,,,,,,,,,,,0.376851824,-0.347222222,1,0,0,lappen,0,44,44,49,1
,,,,,51007,2023-09-27_09h17.11.881,vbt_B2_day4,2022.2.4,Win32,59.65163445,51007,,,,,,,,,,,,,,,,,,,,dozijn,images/br_dozijn.png,images/cb_dozijn.png,,dozijn,,,,,,,,,,,0.376851824,-0.347222222,1,0,0,dozijn,0,45,45,48,1
,,,,,51007,2023-09-27_09h17.11.881,vbt_B2_day4,2022.2.4,Win32,59.65163445,51007,,,,,,,,,,,,,,,,,,,,rijp,images/br_rijp.png,images/cb_rijp.png,,rijp,,,,,,,,,,,0.376851824,-0.347222222,1,0,0,rijp,0,46,46,2,1
,,,,,51007,2023-09-27_09h17.11.881,vbt_B2_day4,2022.2.4,Win32,59.65163445,51007,,,,,,,,,,,,,,,,,,,,kaal,images/br_kaal.png,images/cb_kaal.png,,kaal,,,,,,,,,,,0.376851824,-0.347222222,1,0,0,kaal,0,47,47,1,1
,,,,,51007,2023-09-27_09h17.11.881,vbt_B2_day4,2022.2.4,Win32,59.65163445,51007,,,,,,,,,,,,,,,,,,,,gaaf,images/br_gaaf.png,images/cb_gaaf.png,,gaaf,,,,,,,,,,,0.376851824,-0.347222222,1,0,0,gaaf,0,48,48,43,1
,,,,,51007,2023-09-27_09h17.11.881,vbt_B2_day4,2022.2.4,Win32,59.65163445,51007,,,,,,,,,,,,,,,,,,,,warel,images/br_warel.png,images/cb_warel.png,,karel,,,,,,,,,,,0.376851824,-0.347222222,1,0,0,karel,0,49,49,26,1
,,,,,51007,2023-09-27_09h17.11.881,vbt_B2_day4,2022.2.4,Win32,59.65163445,51007,,,,,,,,,,,,,,,,,,,,aanzwaag,images/br_aanzwaag.png,images/cb_aanzwaag.png,,aanzw...,,,,,,,,,,,0.376851824,-0.347222222,1,0,0,aanzw...,0,50,50,38,1
,,,,,51007,2023-09-27_09h17.11.881,vbt_B2_day4,2022.2.4,Win32,59.65163445,51007,,,,,,,,,,,,,,,,,,,,haza,images/br_haza.png,images/cb_haza.png,,haza,,,,,,,,,,,0.376851824,-0.347222222,1,0,0,haza,0,51,51,21,1
,,,,,51007,2023-09-27_09h17.11.881,vbt_B2_day4,2022.2.4,Win32,59.65163445,51007,,,,,,,,,,,,,,,,,,,,mekst,images/br_mekst.png,images/cb_mekst.png,,mekst,,,,,,,,,,,0.376851824,-0.347222222,1,0,0,mekst,0,52,52,27,1
,,,,,51007,2023-09-27_09h17.11.881,vbt_B2_day4,2022.2.4,Win32,59.65163445,51007,,,,,,,,,,,,,,,,,,,,weigeren,images/br_weigeren.png,images/cb_weigeren.png,,weigeren,,,,,,,,,,,0.376851824,-0.347222222,1,0,0,weigeren,0,53,53,16,1
,,,,,51007,2023-09-27_09h17.11.881,vbt_B2_day4,2022.2.4,Win32,59.65163445,51007,,,,,,,,,,,,,,,,,,,,snee,images/br_snee.png,images/cb_snee.png,,snee,,,,,,,,,,,0.374074159,-0.351851852,1,0,0,snee,0,54,54,40,1
,,,,,51007,2023-09-27_09h17.11.881,vbt_B2_day4,2022.2.4,Win32,59.65163445,51007,,,,,,,,,,,,,,,,,,,,midden,images/br_midden.png,images/cb_midden.png,,midden,,,,,,,,,,,0.374074159,-0.351851852,1,0,0,midden,0,55,55,50,1
,,,,,51007,2023-09-27_09h17.11.881,vbt_B2_day4,2022.2.4,Win32,59.65163445,51007,,,,,,,,,,,,,,,,,,,,drummer,images/br_drummer.png,images/cb_drummer.png,,drummer,,,,,,,,,,,0.374074159,-0.351851852,1,0,0,drummer,0,56,56,53,1
,,,,,51007,2023-09-27_09h17.11.881,vbt_B2_day4,2022.2.4,Win32,59.65163445,51007,,,,,,,,,,,,,,,,,,,,zaalrijk,images/br_zaalrijk.png,images/cb_zaalrijk.png,,zaalrijk,,,,,,,,,,,0.336111139,-0.354629658,1,0,0,zaalrijk,0,57,57,37,1
,,,,,51007,2023-09-27_09h17.11.881,vbt_B2_day4,2022.2.4,Win32,59.65163445,51007,,,,,,,,,,,,,,,,,,,,paalbaak,images/br_paalbaak.png,images/cb_paalbaak.png,,paalbaak,,,,,,,,,,,0.336111139,-0.354629658,1,0,0,paalbaak,0,58,58,39,1
,,,,,51007,2023-09-27_09h17.11.881,vbt_B2_day4,2022.2.4,Win32,59.65163445,51007,,,,,,,,,,,,,,,,,,,,gaan,images/br_gaan.png,images/cb_gaan.png,,gaan,,,,,,,,,,,0.336111139,-0.354629658,1,0,0,gaan,0,59,59,41,1
,,,,,51007,2023-09-27_09h17.11.881,vbt_B2_day4,2022.2.4,Win32,59.65163445,51007,,,,,,,,,,,,,,,,,,,,,,,,,,,,,,,,,,,,,,,,,,,,,
