welcome_mouse.x,welcome_mouse.y,welcome_mouse.leftButton,welcome_mouse.midButton,welcome_mouse.rightButton,"ID",date,expName,psychopyVersion,OS,frameRate,trainInstr_mouse.x,trainInstr_mouse.y,trainInstr_mouse.leftButton,trainInstr_mouse.midButton,trainInstr_mouse.rightButton,translation_key.keys,translation_key.corr,translation_key.rt,word_rsp.text,trWrd_mouse.x,trWrd_mouse.y,trWrd_mouse.leftButton,trWrd_mouse.midButton,trWrd_mouse.rightButton,train_loop.thisRepN,train_loop.thisTrialN,train_loop.thisN,train_loop.thisIndex,train_loop.ran,nlWrd,brWrd,cbWrd,test,testResp,mouse.x,mouse.y,mouse.leftButton,mouse.midButton,mouse.rightButton,testInstr_mouse.x,testInstr_mouse.y,testInstr_mouse.leftButton,testInstr_mouse.midButton,testInstr_mouse.rightButton,test_mouse.x,test_mouse.y,test_mouse.leftButton,test_mouse.midButton,test_mouse.rightButton,test_response.text,test_loop.thisRepN,test_loop.thisTrialN,test_loop.thisN,test_loop.thisIndex,test_loop.ran
0.119444459,-0.045370384,1,0,0,00098,2023-11-11_13h57.21.762,vbt_B2_day4,2022.2.4,Win32,60.04202942,,,,,,,,,,,,,,,,,,,,,,,,,,,,,,,,,,,,,,,,,,,,,
,,,,,00098,2023-11-11_13h57.21.762,vbt_B2_day4,2022.2.4,Win32,60.04202942,0.712962963,0.064814815,1,0,0,,,,,,,,,,,,,,,,,,,,,,,,,,,,,,,,,,,,,,,,
,,,,,00098,2023-11-11_13h57.21.762,vbt_B2_day4,2022.2.4,Win32,60.04202942,,,,,,down,0,0.912,,0.850000028,-0.051851873,1,0,0,0,0,0,97,1,loyaal,images/br_loyaal.png,images/cb_loyaal.png,0,,,,,,,,,,,,,,,,,,,,,,
,,,,,00098,2023-11-11_13h57.21.762,vbt_B2_day4,2022.2.4,Win32,60.04202942,,,,,,down,0,0.5064,,0.853703675,-0.050925926,1,0,0,0,1,1,31,1,poes,images/br_poes.png,images/cb_poes.png,0,,,,,,,,,,,,,,,,,,,,,,
,,,,,00098,2023-11-11_13h57.21.762,vbt_B2_day4,2022.2.4,Win32,60.04202942,,,,,,down,0,4.2053,,0.875925982,-0.055555556,1,0,0,0,2,2,27,1,dans,images/br_dans.png,images/cb_dans.png,1,dans,,,,,,,,,,,,,,,,,,,,,
,,,,,00098,2023-11-11_13h57.21.762,vbt_B2_day4,2022.2.4,Win32,60.04202942,,,,,,down,0,1.129,,0.887963048,-0.094444487,1,0,0,0,3,3,87,1,toeval,images/br_toeval.png,images/cb_toeval.png,0,,,,,,,,,,,,,,,,,,,,,,
,,,,,00098,2023-11-11_13h57.21.762,vbt_B2_day4,2022.2.4,Win32,60.04202942,,,,,,down,0,2.3505,,0.887963048,-0.094444487,1,0,0,0,4,4,76,1,afval,images/br_afval.png,images/cb_afval.png,0,,,,,,,,,,,,,,,,,,,,,,
,,,,,00098,2023-11-11_13h57.21.762,vbt_B2_day4,2022.2.4,Win32,60.04202942,,,,,,down,0,0.088,,0.887963048,-0.098148134,1,0,0,0,5,5,39,1,laag,images/br_laag.png,images/cb_laag.png,0,,,,,,,,,,,,,,,,,,,,,,
,,,,,00098,2023-11-11_13h57.21.762,vbt_B2_day4,2022.2.4,Win32,60.04202942,,,,,,down,0,2.7658,,0.887963048,-0.102777764,1,0,0,0,6,6,149,1,redding,images/br_redding.png,images/cb_redding.png,0,,,,,,,,,,,,,,,,,,,,,,
,,,,,00098,2023-11-11_13h57.21.762,vbt_B2_day4,2022.2.4,Win32,60.04202942,,,,,,down,0,0.4011,,0.887963048,-0.109259288,1,0,0,0,7,7,12,1,kust,images/br_kust.png,images/cb_kust.png,0,,,,,,,,,,,,,,,,,,,,,,
,,,,,00098,2023-11-11_13h57.21.762,vbt_B2_day4,2022.2.4,Win32,60.04202942,,,,,,down,0,0.8886,,0.887963048,-0.125925912,1,0,0,0,8,8,85,1,heilig,images/br_heilig.png,images/cb_heilig.png,0,,,,,,,,,,,,,,,,,,,,,,
,,,,,00098,2023-11-11_13h57.21.762,vbt_B2_day4,2022.2.4,Win32,60.04202942,,,,,,down,0,0.3675,,0.887963048,-0.171296296,1,0,0,0,9,9,199,1,beseffen,images/br_beseffen.png,images/cb_beseffen.png,0,,,,,,,,,,,,,,,,,,,,,,
,,,,,00098,2023-11-11_13h57.21.762,vbt_B2_day4,2022.2.4,Win32,60.04202942,,,,,,down,0,0.3563,,0.887963048,-0.186111097,1,0,0,0,10,10,11,1,mode,images/br_mode.png,images/cb_mode.png,0,,,,,,,,,,,,,,,,,,,,,,
,,,,,00098,2023-11-11_13h57.21.762,vbt_B2_day4,2022.2.4,Win32,60.04202942,,,,,,down,0,0.5694,,0.887963048,-0.235185199,1,0,0,0,11,11,156,1,rechten,images/br_rechten.png,images/cb_rechten.png,0,,,,,,,,,,,,,,,,,,,,,,
,,,,,00098,2023-11-11_13h57.21.762,vbt_B2_day4,2022.2.4,Win32,60.04202942,,,,,,down,0,0.8676,,0.887963048,-0.236111111,1,0,0,0,12,12,63,1,flirt,images/br_flirt.png,images/cb_flirt.png,0,,,,,,,,,,,,,,,,,,,,,,
,,,,,00098,2023-11-11_13h57.21.762,vbt_B2_day4,2022.2.4,Win32,60.04202942,,,,,,down,0,0.1193,,0.887963048,-0.243518547,1,0,0,0,13,13,69,1,waken,images/br_waken.png,images/cb_waken.png,0,,,,,,,,,,,,,,,,,,,,,,
,,,,,00098,2023-11-11_13h57.21.762,vbt_B2_day4,2022.2.4,Win32,60.04202942,,,,,,down,0,0.256,,0.887963048,-0.26944443,1,0,0,0,14,14,55,1,praat,images/br_praat.png,images/cb_praat.png,0,,,,,,,,,,,,,,,,,,,,,,
,,,,,00098,2023-11-11_13h57.21.762,vbt_B2_day4,2022.2.4,Win32,60.04202942,,,,,,down,0,2.4192,,0.887963048,-0.26944443,1,0,0,0,15,15,163,1,schuilen,images/br_schuilen.png,images/cb_schuilen.png,0,,,,,,,,,,,,,,,,,,,,,,
,,,,,00098,2023-11-11_13h57.21.762,vbt_B2_day4,2022.2.4,Win32,60.04202942,,,,,,down,0,0.652,,0.887963048,-0.291666667,1,0,0,0,16,16,29,1,baas,images/br_baas.png,images/cb_baas.png,0,,,,,,,,,,,,,,,,,,,,,,
,,,,,00098,2023-11-11_13h57.21.762,vbt_B2_day4,2022.2.4,Win32,60.04202942,,,,,,down,0,0.4176,,0.887963048,-0.294444473,1,0,0,0,17,17,108,1,excuus,images/br_excuus.png,images/cb_excuus.png,0,,,,,,,,,,,,,,,,,,,,,,
,,,,,00098,2023-11-11_13h57.21.762,vbt_B2_day4,2022.2.4,Win32,60.04202942,,,,,,down,0,0.5874,,0.887963048,-0.304629644,1,0,0,0,18,18,54,1,gebit,images/br_gebit.png,images/cb_gebit.png,0,,,,,,,,,,,,,,,,,,,,,,
,,,,,00098,2023-11-11_13h57.21.762,vbt_B2_day4,2022.2.4,Win32,60.04202942,,,,,,down,0,1.134,,0.887963048,-0.304629644,1,0,0,0,19,19,33,1,vlek,images/br_vlek.png,images/cb_vlek.png,0,,,,,,,,,,,,,,,,,,,,,,
,,,,,00098,2023-11-11_13h57.21.762,vbt_B2_day4,2022.2.4,Win32,60.04202942,,,,,,down,0,0.6177,,0.887963048,-0.30740745,1,0,0,0,20,20,84,1,lokken,images/br_lokken.png,images/cb_lokken.png,0,,,,,,,,,,,,,,,,,,,,,,
,,,,,00098,2023-11-11_13h57.21.762,vbt_B2_day4,2022.2.4,Win32,60.04202942,,,,,,down,0,7.1331,,0.887963048,-0.30740745,1,0,0,0,21,21,3,1,mand,images/br_mand.png,images/cb_mand.png,0,,,,,,,,,,,,,,,,,,,,,,
,,,,,00098,2023-11-11_13h57.21.762,vbt_B2_day4,2022.2.4,Win32,60.04202942,,,,,,down,0,5.2185,,0.887963048,-0.30740745,1,0,0,0,22,22,145,1,invloed,images/br_invloed.png,images/cb_invloed.png,1,invloed,,,,,,,,,,,,,,,,,,,,,
,,,,,00098,2023-11-11_13h57.21.762,vbt_B2_day4,2022.2.4,Win32,60.04202942,,,,,,down,0,0.6117,,0.887963048,-0.311111097,1,0,0,0,23,23,88,1,boeien,images/br_boeien.png,images/cb_boeien.png,0,,,,,,,,,,,,,,,,,,,,,,
,,,,,00098,2023-11-11_13h57.21.762,vbt_B2_day4,2022.2.4,Win32,60.04202942,,,,,,down,0,0.9594,,0.887963048,-0.337037051,1,0,0,0,24,24,28,1,stal,images/br_stal.png,images/cb_stal.png,0,,,,,,,,,,,,,,,,,,,,,,
,,,,,00098,2023-11-11_13h57.21.762,vbt_B2_day4,2022.2.4,Win32,60.04202942,,,,,,down,0,2.3668,,0.556481538,-0.282407407,1,0,0,0,25,25,37,1,mijn,images/br_mijn.png,images/cb_mijn.png,0,,,,,,,,,,,,,,,,,,,,,,
,,,,,00098,2023-11-11_13h57.21.762,vbt_B2_day4,2022.2.4,Win32,60.04202942,,,,,,down,0,1.7674,,0.555555556,-0.282407407,1,0,0,0,26,26,9,1,hier,images/br_hier.png,images/cb_hier.png,0,,,,,,,,,,,,,,,,,,,,,,
,,,,,00098,2023-11-11_13h57.21.762,vbt_B2_day4,2022.2.4,Win32,60.04202942,,,,,,down,0,0.0083,,0.58148151,-0.301851838,1,0,0,0,27,27,114,1,vullen,images/br_vullen.png,images/cb_vullen.png,0,,,,,,,,,,,,,,,,,,,,,,
,,,,,00098,2023-11-11_13h57.21.762,vbt_B2_day4,2022.2.4,Win32,60.04202942,,,,,,down,0,0.1854,,0.588888945,-0.306481467,1,0,0,0,28,28,22,1,stof,images/br_stof.png,images/cb_stof.png,0,,,,,,,,,,,,,,,,,,,,,,
,,,,,00098,2023-11-11_13h57.21.762,vbt_B2_day4,2022.2.4,Win32,60.04202942,,,,,,down,0,0.2509,,0.635185242,-0.323148162,1,0,0,0,29,29,13,1,kaal,images/br_kaal.png,images/cb_kaal.png,0,,,,,,,,,,,,,,,,,,,,,,
,,,,,00098,2023-11-11_13h57.21.762,vbt_B2_day4,2022.2.4,Win32,60.04202942,,,,,,down,0,1.4202,,0.635185242,-0.323148162,1,0,0,0,30,30,117,1,kennis,images/br_kennis.png,images/cb_kennis.png,0,,,,,,,,,,,,,,,,,,,,,,
,,,,,00098,2023-11-11_13h57.21.762,vbt_B2_day4,2022.2.4,Win32,60.04202942,,,,,,down,0,3.1843,,0.635185242,-0.323148162,1,0,0,0,31,31,166,1,strikken,images/br_strikken.png,images/cb_strikken.png,0,,,,,,,,,,,,,,,,,,,,,,
,,,,,00098,2023-11-11_13h57.21.762,vbt_B2_day4,2022.2.4,Win32,60.04202942,,,,,,down,0,1.458,,0.635185242,-0.323148162,1,0,0,0,32,32,43,1,klauw,images/br_klauw.png,images/cb_klauw.png,0,,,,,,,,,,,,,,,,,,,,,,
,,,,,00098,2023-11-11_13h57.21.762,vbt_B2_day4,2022.2.4,Win32,60.04202942,,,,,,down,0,0.5855,,0.640740712,-0.324999986,1,0,0,0,33,33,96,1,slagen,images/br_slagen.png,images/cb_slagen.png,0,,,,,,,,,,,,,,,,,,,,,,
,,,,,00098,2023-11-11_13h57.21.762,vbt_B2_day4,2022.2.4,Win32,60.04202942,,,,,,down,0,1.2062,,0.640740712,-0.324999986,1,0,0,0,34,34,1,1,zaal,images/br_zaal.png,images/cb_zaal.png,0,,,,,,,,,,,,,,,,,,,,,,
,,,,,00098,2023-11-11_13h57.21.762,vbt_B2_day4,2022.2.4,Win32,60.04202942,,,,,,down,0,0.488,,0.640740712,-0.324999986,1,0,0,0,35,35,35,1,lust,images/br_lust.png,images/cb_lust.png,0,,,,,,,,,,,,,,,,,,,,,,
,,,,,00098,2023-11-11_13h57.21.762,vbt_B2_day4,2022.2.4,Win32,60.04202942,,,,,,down,0,1.3014,,0.640740712,-0.324999986,1,0,0,0,36,36,10,1,leek,images/br_leek.png,images/cb_leek.png,0,,,,,,,,,,,,,,,,,,,,,,
,,,,,00098,2023-11-11_13h57.21.762,vbt_B2_day4,2022.2.4,Win32,60.04202942,,,,,,down,0,1.9937,,0.65833339,-0.32685188,1,0,0,0,37,37,195,1,middelen,images/br_middelen.png,images/cb_middelen.png,0,,,,,,,,,,,,,,,,,,,,,,
,,,,,00098,2023-11-11_13h57.21.762,vbt_B2_day4,2022.2.4,Win32,60.04202942,,,,,,down,0,1.3846,,0.659259231,-0.32685188,1,0,0,0,38,38,130,1,keihard,images/br_keihard.png,images/cb_keihard.png,0,,,,,,,,,,,,,,,,,,,,,,
,,,,,00098,2023-11-11_13h57.21.762,vbt_B2_day4,2022.2.4,Win32,60.04202942,,,,,,down,0,0.0067,,0.659259231,-0.32685188,1,0,0,0,39,39,56,1,traag,images/br_traag.png,images/cb_traag.png,0,,,,,,,,,,,,,,,,,,,,,,
,,,,,00098,2023-11-11_13h57.21.762,vbt_B2_day4,2022.2.4,Win32,60.04202942,,,,,,down,0,3.1514,,0.660185213,-0.325925968,1,0,0,0,40,40,24,1,jurk,images/br_jurk.png,images/cb_jurk.png,1,jurk,,,,,,,,,,,,,,,,,,,,,
,,,,,00098,2023-11-11_13h57.21.762,vbt_B2_day4,2022.2.4,Win32,60.04202942,,,,,,down,0,9.6731,,0.674074102,-0.327777792,1,0,0,0,41,41,147,1,komisch,images/br_komisch.png,images/cb_komisch.png,1,komisch,,,,,,,,,,,,,,,,,,,,,
,,,,,00098,2023-11-11_13h57.21.762,vbt_B2_day4,2022.2.4,Win32,60.04202942,,,,,,down,0,1.0198,,0.828703704,-0.48055557,1,0,0,0,42,42,121,1,twijfel,images/br_twijfel.png,images/cb_twijfel.png,0,,,,,,,,,,,,,,,,,,,,,,
,,,,,00098,2023-11-11_13h57.21.762,vbt_B2_day4,2022.2.4,Win32,60.04202942,,,,,,down,0,1.2852,,0.505555612,0.25462963,1,0,0,0,43,43,120,1,klimmen,images/br_klimmen.png,images/cb_klimmen.png,0,,,,,,,,,,,,,,,,,,,,,,
,,,,,00098,2023-11-11_13h57.21.762,vbt_B2_day4,2022.2.4,Win32,60.04202942,,,,,,down,0,0.3223,,0.529629601,0.264814818,1,0,0,0,44,44,116,1,besmet,images/br_besmet.png,images/cb_besmet.png,0,,,,,,,,,,,,,,,,,,,,,,
,,,,,00098,2023-11-11_13h57.21.762,vbt_B2_day4,2022.2.4,Win32,60.04202942,,,,,,down,0,1.7889,,0.551851908,0.251851841,1,0,0,0,45,45,115,1,kleren,images/br_kleren.png,images/cb_kleren.png,0,,,,,,,,,,,,,,,,,,,,,,
,,,,,00098,2023-11-11_13h57.21.762,vbt_B2_day4,2022.2.4,Win32,60.04202942,,,,,,down,0,1.6888,,0.559259344,0.249074071,1,0,0,0,46,46,99,1,koffie,images/br_koffie.png,images/cb_koffie.png,0,,,,,,,,,,,,,,,,,,,,,,
,,,,,00098,2023-11-11_13h57.21.762,vbt_B2_day4,2022.2.4,Win32,60.04202942,,,,,,down,0,1.5576,,0.57685188,0.242592582,1,0,0,0,47,47,45,1,piste,images/br_piste.png,images/cb_piste.png,0,,,,,,,,,,,,,,,,,,,,,,
,,,,,00098,2023-11-11_13h57.21.762,vbt_B2_day4,2022.2.4,Win32,60.04202942,,,,,,down,0,0.6072,,0.604629658,0.218518522,1,0,0,0,48,48,20,1,site,images/br_site.png,images/cb_site.png,0,,,,,,,,,,,,,,,,,,,,,,
,,,,,00098,2023-11-11_13h57.21.762,vbt_B2_day4,2022.2.4,Win32,60.04202942,,,,,,down,0,2.5169,,0.607407464,0.218518522,1,0,0,0,49,49,81,1,dubbel,images/br_dubbel.png,images/cb_dubbel.png,0,,,,,,,,,,,,,,,,,,,,,,
,,,,,00098,2023-11-11_13h57.21.762,vbt_B2_day4,2022.2.4,Win32,60.04202942,,,,,,down,0,0.1568,,0.617592564,0.215740734,1,0,0,0,50,50,32,1,palm,images/br_palm.png,images/cb_palm.png,0,,,,,,,,,,,,,,,,,,,,,,
,,,,,00098,2023-11-11_13h57.21.762,vbt_B2_day4,2022.2.4,Win32,60.04202942,,,,,,down,0,0.3771,,0.621296353,0.218518522,1,0,0,0,51,51,119,1,liefje,images/br_liefje.png,images/cb_liefje.png,0,,,,,,,,,,,,,,,,,,,,,,
,,,,,00098,2023-11-11_13h57.21.762,vbt_B2_day4,2022.2.4,Win32,60.04202942,,,,,,down,0,0.9338,,0.62962963,0.217592593,1,0,0,0,52,52,77,1,woede,images/br_woede.png,images/cb_woede.png,0,,,,,,,,,,,,,,,,,,,,,,
,,,,,00098,2023-11-11_13h57.21.762,vbt_B2_day4,2022.2.4,Win32,60.04202942,,,,,,down,0,0.2527,,0.656481566,0.201851845,1,0,0,0,53,53,126,1,kasteel,images/br_kasteel.png,images/cb_kasteel.png,0,,,,,,,,,,,,,,,,,,,,,,
,,,,,00098,2023-11-11_13h57.21.762,vbt_B2_day4,2022.2.4,Win32,60.04202942,,,,,,down,0,4.8032,,0.671296296,0.198148127,1,0,0,0,54,54,175,1,heengaan,images/br_heengaan.png,images/cb_heengaan.png,0,,,,,,,,,,,,,,,,,,,,,,
,,,,,00098,2023-11-11_13h57.21.762,vbt_B2_day4,2022.2.4,Win32,60.04202942,,,,,,down,0,0.7537,,0.716666751,0.188888868,1,0,0,0,55,55,78,1,leren,images/br_leren.png,images/cb_leren.png,0,,,,,,,,,,,,,,,,,,,,,,
,,,,,00098,2023-11-11_13h57.21.762,vbt_B2_day4,2022.2.4,Win32,60.04202942,,,,,,down,0,1.3407,,0.736111111,0.176851838,1,0,0,0,56,56,124,1,bloeien,images/br_bloeien.png,images/cb_bloeien.png,0,,,,,,,,,,,,,,,,,,,,,,
,,,,,00098,2023-11-11_13h57.21.762,vbt_B2_day4,2022.2.4,Win32,60.04202942,,,,,,down,0,13.1159,,0.7398149,0.176851838,1,0,0,0,57,57,165,1,feestdag,images/br_feestdag.png,images/cb_feestdag.png,0,,,,,,,,,,,,,,,,,,,,,,
,,,,,00098,2023-11-11_13h57.21.762,vbt_B2_day4,2022.2.4,Win32,60.04202942,,,,,,down,0,2.6673,,0.83148151,0.214814804,1,0,0,0,58,58,90,1,geluid,images/br_geluid.png,images/cb_geluid.png,0,,,,,,,,,,,,,,,,,,,,,,
,,,,,00098,2023-11-11_13h57.21.762,vbt_B2_day4,2022.2.4,Win32,60.04202942,,,,,,down,0,0.1552,,0.837037122,0.213888892,1,0,0,0,59,59,168,1,bisschop,images/br_bisschop.png,images/cb_bisschop.png,0,,,,,,,,,,,,,,,,,,,,,,
,,,,,00098,2023-11-11_13h57.21.762,vbt_B2_day4,2022.2.4,Win32,60.04202942,,,,,,down,0,1.1937,,0.837962963,0.213888892,1,0,0,0,60,60,26,1,leuk,images/br_leuk.png,images/cb_leuk.png,1,leuk,,,,,,,,,,,,,,,,,,,,,
,,,,,00098,2023-11-11_13h57.21.762,vbt_B2_day4,2022.2.4,Win32,60.04202942,,,,,,down,0,1.0414,,0.887963048,0.14166666,1,0,0,0,61,61,142,1,snuiven,images/br_snuiven.png,images/cb_snuiven.png,0,,,,,,,,,,,,,,,,,,,,,,
,,,,,00098,2023-11-11_13h57.21.762,vbt_B2_day4,2022.2.4,Win32,60.04202942,,,,,,down,0,0.2503,,0.887963048,0.137962942,1,0,0,0,62,62,30,1,uien,images/br_uien.png,images/cb_uien.png,0,,,,,,,,,,,,,,,,,,,,,,
,,,,,00098,2023-11-11_13h57.21.762,vbt_B2_day4,2022.2.4,Win32,60.04202942,,,,,,down,0,2.4681,,0.810185185,0.136111118,1,0,0,0,63,63,169,1,oprotten,images/br_oprotten.png,images/cb_oprotten.png,0,,,,,,,,,,,,,,,,,,,,,,
,,,,,00098,2023-11-11_13h57.21.762,vbt_B2_day4,2022.2.4,Win32,60.04202942,,,,,,down,0,0.0681,,0.866666723,0.081481474,1,0,0,0,64,64,89,1,slapen,images/br_slapen.png,images/cb_slapen.png,0,,,,,,,,,,,,,,,,,,,,,,
,,,,,00098,2023-11-11_13h57.21.762,vbt_B2_day4,2022.2.4,Win32,60.04202942,,,,,,down,0,1.6859,,0.882407436,0.073148127,1,0,0,0,65,65,49,1,laken,images/br_laken.png,images/cb_laken.png,0,,,,,,,,,,,,,,,,,,,,,,
,,,,,00098,2023-11-11_13h57.21.762,vbt_B2_day4,2022.2.4,Win32,60.04202942,,,,,,down,0,3.6243,,0.883333418,0.071296303,1,0,0,0,66,66,66,1,lever,images/br_lever.png,images/cb_lever.png,1,lever,,,,,,,,,,,,,,,,,,,,,
,,,,,00098,2023-11-11_13h57.21.762,vbt_B2_day4,2022.2.4,Win32,60.04202942,,,,,,down,0,0.3659,,0.887963048,0.068518497,1,0,0,0,67,67,138,1,akkoord,images/br_akkoord.png,images/cb_akkoord.png,0,,,,,,,,,,,,,,,,,,,,,,
,,,,,00098,2023-11-11_13h57.21.762,vbt_B2_day4,2022.2.4,Win32,60.04202942,,,,,,down,0,0.5511,,0.887963048,0.065740727,1,0,0,0,68,68,75,1,snoep,images/br_snoep.png,images/cb_snoep.png,0,,,,,,,,,,,,,,,,,,,,,,
,,,,,00098,2023-11-11_13h57.21.762,vbt_B2_day4,2022.2.4,Win32,60.04202942,,,,,,down,0,1.8549,,0.887963048,0.062962956,1,0,0,0,69,69,98,1,kreeft,images/br_kreeft.png,images/cb_kreeft.png,0,,,,,,,,,,,,,,,,,,,,,,
,,,,,00098,2023-11-11_13h57.21.762,vbt_B2_day4,2022.2.4,Win32,60.04202942,,,,,,down,0,1.3085,,0.887963048,0.062962956,1,0,0,0,70,70,16,1,ziek,images/br_ziek.png,images/cb_ziek.png,0,,,,,,,,,,,,,,,,,,,,,,
,,,,,00098,2023-11-11_13h57.21.762,vbt_B2_day4,2022.2.4,Win32,60.04202942,,,,,,down,0,0.9732,,0.887963048,0.062962956,1,0,0,0,71,71,180,1,openbaar,images/br_openbaar.png,images/cb_openbaar.png,0,,,,,,,,,,,,,,,,,,,,,,
,,,,,00098,2023-11-11_13h57.21.762,vbt_B2_day4,2022.2.4,Win32,60.04202942,,,,,,down,0,3.8916,,0.887963048,0.055555556,1,0,0,0,72,72,105,1,wijlen,images/br_wijlen.png,images/cb_wijlen.png,1,wijlen,,,,,,,,,,,,,,,,,,,,,
,,,,,00098,2023-11-11_13h57.21.762,vbt_B2_day4,2022.2.4,Win32,60.04202942,,,,,,down,0,0.2851,,0.887963048,0.049074067,1,0,0,0,73,73,71,1,bever,images/br_bever.png,images/cb_bever.png,0,,,,,,,,,,,,,,,,,,,,,,
,,,,,00098,2023-11-11_13h57.21.762,vbt_B2_day4,2022.2.4,Win32,60.04202942,,,,,,down,0,0.1843,,0.887963048,0.049074067,1,0,0,0,74,74,140,1,blijven,images/br_blijven.png,images/cb_blijven.png,0,,,,,,,,,,,,,,,,,,,,,,
,,,,,00098,2023-11-11_13h57.21.762,vbt_B2_day4,2022.2.4,Win32,60.04202942,,,,,,down,0,1.1869,,0.887963048,0.035185178,1,0,0,0,75,75,136,1,waarbij,images/br_waarbij.png,images/cb_waarbij.png,0,,,,,,,,,,,,,,,,,,,,,,
,,,,,00098,2023-11-11_13h57.21.762,vbt_B2_day4,2022.2.4,Win32,60.04202942,,,,,,down,0,3.1215,,0.887963048,0.034259266,1,0,0,0,76,76,186,1,voorraad,images/br_voorraad.png,images/cb_voorraad.png,1,voorraad,,,,,,,,,,,,,,,,,,,,,
,,,,,00098,2023-11-11_13h57.21.762,vbt_B2_day4,2022.2.4,Win32,60.04202942,,,,,,down,0,0.4266,,0.887963048,0.034259266,1,0,0,0,77,77,62,1,knaap,images/br_knaap.png,images/cb_knaap.png,0,,,,,,,,,,,,,,,,,,,,,,
,,,,,00098,2023-11-11_13h57.21.762,vbt_B2_day4,2022.2.4,Win32,60.04202942,,,,,,down,0,0.8596,,0.887963048,0.033333319,1,0,0,0,78,78,70,1,ijdel,images/br_ijdel.png,images/cb_ijdel.png,0,,,,,,,,,,,,,,,,,,,,,,
,,,,,00098,2023-11-11_13h57.21.762,vbt_B2_day4,2022.2.4,Win32,60.04202942,,,,,,down,0,2.9171,,0.887963048,0.029629637,1,0,0,0,79,79,178,1,huisdier,images/br_huisdier.png,images/cb_huisdier.png,0,,,,,,,,,,,,,,,,,,,,,,
,,,,,00098,2023-11-11_13h57.21.762,vbt_B2_day4,2022.2.4,Win32,60.04202942,,,,,,down,0,0.0346,,0.887963048,0.02870369,1,0,0,0,80,80,47,1,kabel,images/br_kabel.png,images/cb_kabel.png,0,,,,,,,,,,,,,,,,,,,,,,
,,,,,00098,2023-11-11_13h57.21.762,vbt_B2_day4,2022.2.4,Win32,60.04202942,,,,,,down,0,1.7343,,0.887963048,0.015740748,1,0,0,0,81,81,82,1,muziek,images/br_muziek.png,images/cb_muziek.png,0,,,,,,,,,,,,,,,,,,,,,,
,,,,,00098,2023-11-11_13h57.21.762,vbt_B2_day4,2022.2.4,Win32,60.04202942,,,,,,down,0,2.2852,,0.887963048,0.014814801,1,0,0,0,82,82,123,1,hiervan,images/br_hiervan.png,images/cb_hiervan.png,0,,,,,,,,,,,,,,,,,,,,,,
,,,,,00098,2023-11-11_13h57.21.762,vbt_B2_day4,2022.2.4,Win32,60.04202942,,,,,,down,0,0.4698,,0.887963048,0.001851859,1,0,0,0,83,83,100,1,geduld,images/br_geduld.png,images/cb_geduld.png,0,,,,,,,,,,,,,,,,,,,,,,
,,,,,00098,2023-11-11_13h57.21.762,vbt_B2_day4,2022.2.4,Win32,60.04202942,,,,,,down,0,0.7602,,0.887963048,-0.00462963,1,0,0,0,84,84,68,1,schat,images/br_schat.png,images/cb_schat.png,0,,,,,,,,,,,,,,,,,,,,,,
,,,,,00098,2023-11-11_13h57.21.762,vbt_B2_day4,2022.2.4,Win32,60.04202942,,,,,,down,0,2.8207,,0.887963048,-0.009259259,1,0,0,0,85,85,144,1,eetlust,images/br_eetlust.png,images/cb_eetlust.png,1,eetlust,,,,,,,,,,,,,,,,,,,,,
,,,,,00098,2023-11-11_13h57.21.762,vbt_B2_day4,2022.2.4,Win32,60.04202942,,,,,,down,0,0.2841,,0.887963048,-0.025000007,1,0,0,0,86,86,50,1,stoom,images/br_stoom.png,images/cb_stoom.png,0,,,,,,,,,,,,,,,,,,,,,,
,,,,,00098,2023-11-11_13h57.21.762,vbt_B2_day4,2022.2.4,Win32,60.04202942,,,,,,down,0,3.1435,,0.887963048,-0.033333355,1,0,0,0,87,87,79,1,nodig,images/br_nodig.png,images/cb_nodig.png,0,,,,,,,,,,,,,,,,,,,,,,
,,,,,00098,2023-11-11_13h57.21.762,vbt_B2_day4,2022.2.4,Win32,60.04202942,,,,,,down,0,1.9239,,0.886111083,-0.045370384,1,0,0,0,88,88,111,1,ticket,images/br_ticket.png,images/cb_ticket.png,0,,,,,,,,,,,,,,,,,,,,,,
,,,,,00098,2023-11-11_13h57.21.762,vbt_B2_day4,2022.2.4,Win32,60.04202942,,,,,,down,0,3.4839,,0.887037065,-0.050000014,1,0,0,0,89,89,154,1,aflopen,images/br_aflopen.png,images/cb_aflopen.png,0,,,,,,,,,,,,,,,,,,,,,,
,,,,,00098,2023-11-11_13h57.21.762,vbt_B2_day4,2022.2.4,Win32,60.04202942,,,,,,down,0,1.6536,,0.887037065,-0.050000014,1,0,0,0,90,90,137,1,trekker,images/br_trekker.png,images/cb_trekker.png,0,,,,,,,,,,,,,,,,,,,,,,
,,,,,00098,2023-11-11_13h57.21.762,vbt_B2_day4,2022.2.4,Win32,60.04202942,,,,,,down,0,2.6683,,0.87962963,-0.050000014,1,0,0,0,91,91,95,1,vreten,images/br_vreten.png,images/cb_vreten.png,0,,,,,,,,,,,,,,,,,,,,,,
,,,,,00098,2023-11-11_13h57.21.762,vbt_B2_day4,2022.2.4,Win32,60.04202942,,,,,,down,0,2.7057,,0.887963048,-0.059259273,1,0,0,0,92,92,194,1,driemaal,images/br_driemaal.png,images/cb_driemaal.png,0,,,,,,,,,,,,,,,,,,,,,,
,,,,,00098,2023-11-11_13h57.21.762,vbt_B2_day4,2022.2.4,Win32,60.04202942,,,,,,down,0,0.292,,0.887963048,-0.061111132,1,0,0,0,93,93,0,1,slak,images/br_slak.png,images/cb_slak.png,0,,,,,,,,,,,,,,,,,,,,,,
,,,,,00098,2023-11-11_13h57.21.762,vbt_B2_day4,2022.2.4,Win32,60.04202942,,,,,,down,0,1.6383,,0.887963048,-0.064814815,1,0,0,0,94,94,196,1,nakijken,images/br_nakijken.png,images/cb_nakijken.png,0,,,,,,,,,,,,,,,,,,,,,,
,,,,,00098,2023-11-11_13h57.21.762,vbt_B2_day4,2022.2.4,Win32,60.04202942,,,,,,down,0,3.0846,,0.887963048,-0.064814815,1,0,0,0,95,95,174,1,stemming,images/br_stemming.png,images/cb_stemming.png,0,,,,,,,,,,,,,,,,,,,,,,
,,,,,00098,2023-11-11_13h57.21.762,vbt_B2_day4,2022.2.4,Win32,60.04202942,,,,,,down,0,0.284,,0.887963048,-0.064814815,1,0,0,0,96,96,102,1,legaal,images/br_legaal.png,images/cb_legaal.png,0,,,,,,,,,,,,,,,,,,,,,,
,,,,,00098,2023-11-11_13h57.21.762,vbt_B2_day4,2022.2.4,Win32,60.04202942,,,,,,down,0,1.109,,0.887963048,-0.064814815,1,0,0,0,97,97,164,1,anarchie,images/br_anarchie.png,images/cb_anarchie.png,0,,,,,,,,,,,,,,,,,,,,,,
,,,,,00098,2023-11-11_13h57.21.762,vbt_B2_day4,2022.2.4,Win32,60.04202942,,,,,,down,0,1.6918,,0.887963048,-0.068518533,1,0,0,0,98,98,190,1,goedkoop,images/br_goedkoop.png,images/cb_goedkoop.png,0,,,,,,,,,,,,,,,,,,,,,,
,,,,,00098,2023-11-11_13h57.21.762,vbt_B2_day4,2022.2.4,Win32,60.04202942,,,,,,down,0,2.6241,,0.887963048,-0.068518533,1,0,0,0,99,99,23,1,zout,images/br_zout.png,images/cb_zout.png,0,,,,,,,,,,,,,,,,,,,,,,
,,,,,00098,2023-11-11_13h57.21.762,vbt_B2_day4,2022.2.4,Win32,60.04202942,,,,,,down,0,0.7854,,0.887963048,-0.069444444,1,0,0,0,100,100,57,1,steek,images/br_steek.png,images/cb_steek.png,0,,,,,,,,,,,,,,,,,,,,,,
,,,,,00098,2023-11-11_13h57.21.762,vbt_B2_day4,2022.2.4,Win32,60.04202942,,,,,,down,0,1.0898,,0.887963048,-0.069444444,1,0,0,0,101,101,189,1,aanraden,images/br_aanraden.png,images/cb_aanraden.png,0,,,,,,,,,,,,,,,,,,,,,,
,,,,,00098,2023-11-11_13h57.21.762,vbt_B2_day4,2022.2.4,Win32,60.04202942,,,,,,down,0,3.2567,,0.887963048,-0.071296303,1,0,0,0,102,102,92,1,geheim,images/br_geheim.png,images/cb_geheim.png,0,,,,,,,,,,,,,,,,,,,,,,
,,,,,00098,2023-11-11_13h57.21.762,vbt_B2_day4,2022.2.4,Win32,60.04202942,,,,,,down,0,0.3389,,0.887963048,-0.111111111,1,0,0,0,103,103,40,1,schep,images/br_schep.png,images/cb_schep.png,0,,,,,,,,,,,,,,,,,,,,,,
,,,,,00098,2023-11-11_13h57.21.762,vbt_B2_day4,2022.2.4,Win32,60.04202942,,,,,,down,0,0.3679,,0.887963048,-0.111111111,1,0,0,0,104,104,61,1,groen,images/br_groen.png,images/cb_groen.png,0,,,,,,,,,,,,,,,,,,,,,,
,,,,,00098,2023-11-11_13h57.21.762,vbt_B2_day4,2022.2.4,Win32,60.04202942,,,,,,down,0,0.1554,,0.887963048,-0.111111111,1,0,0,0,105,105,148,1,smullen,images/br_smullen.png,images/cb_smullen.png,0,,,,,,,,,,,,,,,,,,,,,,
,,,,,00098,2023-11-11_13h57.21.762,vbt_B2_day4,2022.2.4,Win32,60.04202942,,,,,,down,0,0.1516,,0.887963048,-0.111111111,1,0,0,0,106,106,170,1,schatten,images/br_schatten.png,images/cb_schatten.png,0,,,,,,,,,,,,,,,,,,,,,,
,,,,,00098,2023-11-11_13h57.21.762,vbt_B2_day4,2022.2.4,Win32,60.04202942,,,,,,down,0,3.2692,,0.887963048,-0.111111111,1,0,0,0,107,107,60,1,jasje,images/br_jasje.png,images/cb_jasje.png,0,,,,,,,,,,,,,,,,,,,,,,
,,,,,00098,2023-11-11_13h57.21.762,vbt_B2_day4,2022.2.4,Win32,60.04202942,,,,,,down,0,1.401,,0.887963048,-0.111111111,1,0,0,0,108,108,134,1,geliefd,images/br_geliefd.png,images/cb_geliefd.png,0,,,,,,,,,,,,,,,,,,,,,,
,,,,,00098,2023-11-11_13h57.21.762,vbt_B2_day4,2022.2.4,Win32,60.04202942,,,,,,down,0,0.1109,,0.887963048,-0.111111111,1,0,0,0,109,109,51,1,samen,images/br_samen.png,images/cb_samen.png,0,,,,,,,,,,,,,,,,,,,,,,
,,,,,00098,2023-11-11_13h57.21.762,vbt_B2_day4,2022.2.4,Win32,60.04202942,,,,,,down,0,1.2028,,0.887963048,-0.111111111,1,0,0,0,110,110,128,1,prikken,images/br_prikken.png,images/cb_prikken.png,0,,,,,,,,,,,,,,,,,,,,,,
,,,,,00098,2023-11-11_13h57.21.762,vbt_B2_day4,2022.2.4,Win32,60.04202942,,,,,,down,0,0.7173,,0.887963048,-0.111111111,1,0,0,0,111,111,74,1,graaf,images/br_graaf.png,images/cb_graaf.png,0,,,,,,,,,,,,,,,,,,,,,,
,,,,,00098,2023-11-11_13h57.21.762,vbt_B2_day4,2022.2.4,Win32,60.04202942,,,,,,down,0,3.6968,,0.887963048,-0.111111111,1,0,0,0,112,112,146,1,opkomen,images/br_opkomen.png,images/cb_opkomen.png,1,opkomen,,,,,,,,,,,,,,,,,,,,,
,,,,,00098,2023-11-11_13h57.21.762,vbt_B2_day4,2022.2.4,Win32,60.04202942,,,,,,down,0,4.1409,,0.887963048,-0.110185199,1,0,0,0,113,113,46,1,jagen,images/br_jagen.png,images/cb_jagen.png,0,,,,,,,,,,,,,,,,,,,,,,
,,,,,00098,2023-11-11_13h57.21.762,vbt_B2_day4,2022.2.4,Win32,60.04202942,,,,,,down,0,0.2746,,0.887963048,-0.110185199,1,0,0,0,114,114,48,1,steel,images/br_steel.png,images/cb_steel.png,0,,,,,,,,,,,,,,,,,,,,,,
,,,,,00098,2023-11-11_13h57.21.762,vbt_B2_day4,2022.2.4,Win32,60.04202942,,,,,,down,0,3.0195,,0.887963048,-0.110185199,1,0,0,0,115,115,106,1,zingen,images/br_zingen.png,images/cb_zingen.png,1,zingen,,,,,,,,,,,,,,,,,,,,,
,,,,,00098,2023-11-11_13h57.21.762,vbt_B2_day4,2022.2.4,Win32,60.04202942,,,,,,down,0,3.1403,,0.887963048,-0.110185199,1,0,0,0,116,116,160,1,daarheen,images/br_daarheen.png,images/cb_daarheen.png,0,,,,,,,,,,,,,,,,,,,,,,
,,,,,00098,2023-11-11_13h57.21.762,vbt_B2_day4,2022.2.4,Win32,60.04202942,,,,,,down,0,0.7097,,0.887963048,-0.110185199,1,0,0,0,117,117,80,1,kanjer,images/br_kanjer.png,images/cb_kanjer.png,0,,,,,,,,,,,,,,,,,,,,,,
,,,,,00098,2023-11-11_13h57.21.762,vbt_B2_day4,2022.2.4,Win32,60.04202942,,,,,,down,0,1.752,,0.887963048,-0.110185199,1,0,0,0,118,118,25,1,plek,images/br_plek.png,images/cb_plek.png,1,plek,,,,,,,,,,,,,,,,,,,,,
,,,,,00098,2023-11-11_13h57.21.762,vbt_B2_day4,2022.2.4,Win32,60.04202942,,,,,,down,0,0.6366,,0.887963048,-0.110185199,1,0,0,0,119,119,158,1,innemen,images/br_innemen.png,images/cb_innemen.png,0,,,,,,,,,,,,,,,,,,,,,,
,,,,,00098,2023-11-11_13h57.21.762,vbt_B2_day4,2022.2.4,Win32,60.04202942,,,,,,down,0,0.2506,,0.887963048,-0.110185199,1,0,0,0,120,120,139,1,stiekem,images/br_stiekem.png,images/cb_stiekem.png,0,,,,,,,,,,,,,,,,,,,,,,
,,,,,00098,2023-11-11_13h57.21.762,vbt_B2_day4,2022.2.4,Win32,60.04202942,,,,,,down,0,0.4357,,0.887963048,-0.110185199,1,0,0,0,121,121,83,1,mening,images/br_mening.png,images/cb_mening.png,0,,,,,,,,,,,,,,,,,,,,,,
,,,,,00098,2023-11-11_13h57.21.762,vbt_B2_day4,2022.2.4,Win32,60.04202942,,,,,,down,0,3.5667,,0.887963048,-0.110185199,1,0,0,0,122,122,153,1,vervoer,images/br_vervoer.png,images/cb_vervoer.png,0,,,,,,,,,,,,,,,,,,,,,,
,,,,,00098,2023-11-11_13h57.21.762,vbt_B2_day4,2022.2.4,Win32,60.04202942,,,,,,down,0,0.0009,,0.887963048,-0.110185199,1,0,0,0,123,123,38,1,baai,images/br_baai.png,images/cb_baai.png,0,,,,,,,,,,,,,,,,,,,,,,
,,,,,00098,2023-11-11_13h57.21.762,vbt_B2_day4,2022.2.4,Win32,60.04202942,,,,,,down,0,0.8708,,0.887963048,-0.09629631,1,0,0,0,124,124,129,1,verhaal,images/br_verhaal.png,images/cb_verhaal.png,0,,,,,,,,,,,,,,,,,,,,,,
,,,,,00098,2023-11-11_13h57.21.762,vbt_B2_day4,2022.2.4,Win32,60.04202942,,,,,,down,0,0.5532,,0.887963048,-0.174074102,1,0,0,0,125,125,58,1,tekst,images/br_tekst.png,images/cb_tekst.png,0,,,,,,,,,,,,,,,,,,,,,,
,,,,,00098,2023-11-11_13h57.21.762,vbt_B2_day4,2022.2.4,Win32,60.04202942,,,,,,down,0,0.467,,0.887963048,-0.171296296,1,0,0,0,126,126,4,1,moes,images/br_moes.png,images/cb_moes.png,0,,,,,,,,,,,,,,,,,,,,,,
,,,,,00098,2023-11-11_13h57.21.762,vbt_B2_day4,2022.2.4,Win32,60.04202942,,,,,,down,0,0.1363,,0.887963048,-0.185185185,1,0,0,0,127,127,34,1,vorm,images/br_vorm.png,images/cb_vorm.png,0,,,,,,,,,,,,,,,,,,,,,,
,,,,,00098,2023-11-11_13h57.21.762,vbt_B2_day4,2022.2.4,Win32,60.04202942,,,,,,down,0,0.0921,,0.887963048,-0.185185185,1,0,0,0,128,128,44,1,flits,images/br_flits.png,images/cb_flits.png,0,,,,,,,,,,,,,,,,,,,,,,
,,,,,00098,2023-11-11_13h57.21.762,vbt_B2_day4,2022.2.4,Win32,60.04202942,,,,,,down,0,0.2521,,0.887963048,-0.185185185,1,0,0,0,129,129,18,1,blik,images/br_blik.png,images/cb_blik.png,0,,,,,,,,,,,,,,,,,,,,,,
,,,,,00098,2023-11-11_13h57.21.762,vbt_B2_day4,2022.2.4,Win32,60.04202942,,,,,,down,0,0.3823,,0.887963048,-0.185185185,1,0,0,0,130,130,173,1,apparaat,images/br_apparaat.png,images/cb_apparaat.png,0,,,,,,,,,,,,,,,,,,,,,,
,,,,,00098,2023-11-11_13h57.21.762,vbt_B2_day4,2022.2.4,Win32,60.04202942,,,,,,down,0,0.1676,,0.887963048,-0.185185185,1,0,0,0,131,131,93,1,waarop,images/br_waarop.png,images/cb_waarop.png,0,,,,,,,,,,,,,,,,,,,,,,
,,,,,00098,2023-11-11_13h57.21.762,vbt_B2_day4,2022.2.4,Win32,60.04202942,,,,,,down,0,6.0834,,0.887963048,-0.185185185,1,0,0,0,132,132,133,1,seizoen,images/br_seizoen.png,images/cb_seizoen.png,0,,,,,,,,,,,,,,,,,,,,,,
,,,,,00098,2023-11-11_13h57.21.762,vbt_B2_day4,2022.2.4,Win32,60.04202942,,,,,,down,0,0.5355,,0.887963048,-0.185185185,1,0,0,0,133,133,131,1,opzicht,images/br_opzicht.png,images/cb_opzicht.png,0,,,,,,,,,,,,,,,,,,,,,,
,,,,,00098,2023-11-11_13h57.21.762,vbt_B2_day4,2022.2.4,Win32,60.04202942,,,,,,down,0,0.2676,,0.887963048,-0.185185185,1,0,0,0,134,134,19,1,geit,images/br_geit.png,images/cb_geit.png,0,,,,,,,,,,,,,,,,,,,,,,
,,,,,00098,2023-11-11_13h57.21.762,vbt_B2_day4,2022.2.4,Win32,60.04202942,,,,,,down,0,0.3678,,0.887963048,-0.185185185,1,0,0,0,135,135,7,1,geld,images/br_geld.png,images/cb_geld.png,0,,,,,,,,,,,,,,,,,,,,,,
,,,,,00098,2023-11-11_13h57.21.762,vbt_B2_day4,2022.2.4,Win32,60.04202942,,,,,,down,0,2.2873,,0.887963048,-0.185185185,1,0,0,0,136,136,198,1,bedoelen,images/br_bedoelen.png,images/cb_bedoelen.png,0,,,,,,,,,,,,,,,,,,,,,,
,,,,,00098,2023-11-11_13h57.21.762,vbt_B2_day4,2022.2.4,Win32,60.04202942,,,,,,down,0,1.7372,,0.887963048,-0.185185185,1,0,0,0,137,137,122,1,waarvan,images/br_waarvan.png,images/cb_waarvan.png,0,,,,,,,,,,,,,,,,,,,,,,
,,,,,00098,2023-11-11_13h57.21.762,vbt_B2_day4,2022.2.4,Win32,60.04202942,,,,,,down,0,1.3907,,0.887963048,-0.186111097,1,0,0,0,138,138,162,1,uitdelen,images/br_uitdelen.png,images/cb_uitdelen.png,0,,,,,,,,,,,,,,,,,,,,,,
,,,,,00098,2023-11-11_13h57.21.762,vbt_B2_day4,2022.2.4,Win32,60.04202942,,,,,,down,0,3.2031,,0.880555612,-0.205555598,1,0,0,0,139,139,14,1,rijp,images/br_rijp.png,images/cb_rijp.png,0,,,,,,,,,,,,,,,,,,,,,,
,,,,,00098,2023-11-11_13h57.21.762,vbt_B2_day4,2022.2.4,Win32,60.04202942,,,,,,down,0,0.0507,,0.880555612,-0.205555598,1,0,0,0,140,140,17,1,taal,images/br_taal.png,images/cb_taal.png,0,,,,,,,,,,,,,,,,,,,,,,
,,,,,00098,2023-11-11_13h57.21.762,vbt_B2_day4,2022.2.4,Win32,60.04202942,,,,,,down,0,3.0674,,0.880555612,-0.205555598,1,0,0,0,141,141,104,1,zweven,images/br_zweven.png,images/cb_zweven.png,1,zweven,,,,,,,,,,,,,,,,,,,,,
,,,,,00098,2023-11-11_13h57.21.762,vbt_B2_day4,2022.2.4,Win32,60.04202942,,,,,,down,0,0.6533,,0.880555612,-0.205555598,1,0,0,0,142,142,125,1,aanzien,images/br_aanzien.png,images/cb_aanzien.png,0,,,,,,,,,,,,,,,,,,,,,,
,,,,,00098,2023-11-11_13h57.21.762,vbt_B2_day4,2022.2.4,Win32,60.04202942,,,,,,down,0,0.3906,,0.880555612,-0.205555598,1,0,0,0,143,143,36,1,vuur,images/br_vuur.png,images/cb_vuur.png,0,,,,,,,,,,,,,,,,,,,,,,
,,,,,00098,2023-11-11_13h57.21.762,vbt_B2_day4,2022.2.4,Win32,60.04202942,,,,,,down,0,3.5203,,0.880555612,-0.205555598,1,0,0,0,144,144,152,1,afnemen,images/br_afnemen.png,images/cb_afnemen.png,0,,,,,,,,,,,,,,,,,,,,,,
,,,,,00098,2023-11-11_13h57.21.762,vbt_B2_day4,2022.2.4,Win32,60.04202942,,,,,,down,0,4.4963,,0.880555612,-0.205555598,1,0,0,0,145,145,191,1,opheffen,images/br_opheffen.png,images/cb_opheffen.png,0,,,,,,,,,,,,,,,,,,,,,,
,,,,,00098,2023-11-11_13h57.21.762,vbt_B2_day4,2022.2.4,Win32,60.04202942,,,,,,down,0,1.2177,,0.880555612,-0.205555598,1,0,0,0,146,146,182,1,bijkomen,images/br_bijkomen.png,images/cb_bijkomen.png,0,,,,,,,,,,,,,,,,,,,,,,
,,,,,00098,2023-11-11_13h57.21.762,vbt_B2_day4,2022.2.4,Win32,60.04202942,,,,,,down,0,0.7692,,0.880555612,-0.205555598,1,0,0,0,147,147,161,1,attentie,images/br_attentie.png,images/cb_attentie.png,0,,,,,,,,,,,,,,,,,,,,,,
,,,,,00098,2023-11-11_13h57.21.762,vbt_B2_day4,2022.2.4,Win32,60.04202942,,,,,,down,0,1.34,,0.880555612,-0.205555598,1,0,0,0,148,148,67,1,zwart,images/br_zwart.png,images/cb_zwart.png,1,zwart,,,,,,,,,,,,,,,,,,,,,
,,,,,00098,2023-11-11_13h57.21.762,vbt_B2_day4,2022.2.4,Win32,60.04202942,,,,,,down,0,0.5342,,0.880555612,-0.205555598,1,0,0,0,149,149,112,1,lukken,images/br_lukken.png,images/cb_lukken.png,0,,,,,,,,,,,,,,,,,,,,,,
,,,,,00098,2023-11-11_13h57.21.762,vbt_B2_day4,2022.2.4,Win32,60.04202942,,,,,,down,0,1.1407,,0.883333418,-0.205555598,1,0,0,0,150,150,113,1,koppen,images/br_koppen.png,images/cb_koppen.png,0,,,,,,,,,,,,,,,,,,,,,,
,,,,,00098,2023-11-11_13h57.21.762,vbt_B2_day4,2022.2.4,Win32,60.04202942,,,,,,down,0,1.1005,,0.887037065,-0.209259245,1,0,0,0,151,151,94,1,oceaan,images/br_oceaan.png,images/cb_oceaan.png,0,,,,,,,,,,,,,,,,,,,,,,
,,,,,00098,2023-11-11_13h57.21.762,vbt_B2_day4,2022.2.4,Win32,60.04202942,,,,,,down,0,3.0754,,0.887963048,-0.220370399,1,0,0,0,152,152,167,1,eenhoorn,images/br_eenhoorn.png,images/cb_eenhoorn.png,0,,,,,,,,,,,,,,,,,,,,,,
,,,,,00098,2023-11-11_13h57.21.762,vbt_B2_day4,2022.2.4,Win32,60.04202942,,,,,,down,0,3.3666,,0.887963048,-0.220370399,1,0,0,0,153,153,193,1,weeshuis,images/br_weeshuis.png,images/cb_weeshuis.png,0,,,,,,,,,,,,,,,,,,,,,,
,,,,,00098,2023-11-11_13h57.21.762,vbt_B2_day4,2022.2.4,Win32,60.04202942,,,,,,down,0,1.0016,,0.887963048,-0.22129631,1,0,0,0,154,154,177,1,maaltijd,images/br_maaltijd.png,images/cb_maaltijd.png,0,,,,,,,,,,,,,,,,,,,,,,
,,,,,00098,2023-11-11_13h57.21.762,vbt_B2_day4,2022.2.4,Win32,60.04202942,,,,,,down,0,0.3538,,0.887963048,-0.238888917,1,0,0,0,155,155,179,1,woestijn,images/br_woestijn.png,images/cb_woestijn.png,0,,,,,,,,,,,,,,,,,,,,,,
,,,,,00098,2023-11-11_13h57.21.762,vbt_B2_day4,2022.2.4,Win32,60.04202942,,,,,,down,0,0.2861,,0.887963048,-0.238888917,1,0,0,0,156,156,6,1,diep,images/br_diep.png,images/cb_diep.png,0,,,,,,,,,,,,,,,,,,,,,,
,,,,,00098,2023-11-11_13h57.21.762,vbt_B2_day4,2022.2.4,Win32,60.04202942,,,,,,down,0,0.8161,,0.887963048,-0.240740741,1,0,0,0,157,157,72,1,strak,images/br_strak.png,images/cb_strak.png,0,,,,,,,,,,,,,,,,,,,,,,
,,,,,00098,2023-11-11_13h57.21.762,vbt_B2_day4,2022.2.4,Win32,60.04202942,,,,,,down,0,0.3663,,0.887963048,-0.240740741,1,0,0,0,158,158,127,1,doodmoe,images/br_doodmoe.png,images/cb_doodmoe.png,0,,,,,,,,,,,,,,,,,,,,,,
,,,,,00098,2023-11-11_13h57.21.762,vbt_B2_day4,2022.2.4,Win32,60.04202942,,,,,,down,0,2.2172,,0.887963048,-0.247222265,1,0,0,0,159,159,101,1,staren,images/br_staren.png,images/cb_staren.png,0,,,,,,,,,,,,,,,,,,,,,,
,,,,,00098,2023-11-11_13h57.21.762,vbt_B2_day4,2022.2.4,Win32,60.04202942,,,,,,down,0,2.9322,,0.887963048,-0.247222265,1,0,0,0,160,160,8,1,knie,images/br_knie.png,images/cb_knie.png,0,,,,,,,,,,,,,,,,,,,,,,
,,,,,00098,2023-11-11_13h57.21.762,vbt_B2_day4,2022.2.4,Win32,60.04202942,,,,,,down,0,0.2686,,0.887963048,-0.249074088,1,0,0,0,161,161,109,1,totaal,images/br_totaal.png,images/cb_totaal.png,0,,,,,,,,,,,,,,,,,,,,,,
,,,,,00098,2023-11-11_13h57.21.762,vbt_B2_day4,2022.2.4,Win32,60.04202942,,,,,,down,0,0.551,,0.887963048,-0.249074088,1,0,0,0,162,162,150,1,gegeven,images/br_gegeven.png,images/cb_gegeven.png,0,,,,,,,,,,,,,,,,,,,,,,
,,,,,00098,2023-11-11_13h57.21.762,vbt_B2_day4,2022.2.4,Win32,60.04202942,,,,,,down,0,1.2044,,0.887963048,-0.249074088,1,0,0,0,163,163,159,1,sufferd,images/br_sufferd.png,images/cb_sufferd.png,0,,,,,,,,,,,,,,,,,,,,,,
,,,,,00098,2023-11-11_13h57.21.762,vbt_B2_day4,2022.2.4,Win32,60.04202942,,,,,,down,0,0.0025,,0.887963048,-0.249074088,1,0,0,0,164,164,21,1,mist,images/br_mist.png,images/cb_mist.png,0,,,,,,,,,,,,,,,,,,,,,,
,,,,,00098,2023-11-11_13h57.21.762,vbt_B2_day4,2022.2.4,Win32,60.04202942,,,,,,down,0,0.3847,,0.887037065,-0.251851894,1,0,0,0,165,165,53,1,baron,images/br_baron.png,images/cb_baron.png,0,,,,,,,,,,,,,,,,,,,,,,
,,,,,00098,2023-11-11_13h57.21.762,vbt_B2_day4,2022.2.4,Win32,60.04202942,,,,,,down,0,0.6717,,0.887037065,-0.251851894,1,0,0,0,166,166,42,1,bleek,images/br_bleek.png,images/cb_bleek.png,0,,,,,,,,,,,,,,,,,,,,,,
,,,,,00098,2023-11-11_13h57.21.762,vbt_B2_day4,2022.2.4,Win32,60.04202942,,,,,,down,0,2.0263,,0.887037065,-0.251851894,1,0,0,0,167,167,184,1,aandelen,images/br_aandelen.png,images/cb_aandelen.png,1,aandelen,,,,,,,,,,,,,,,,,,,,,
,,,,,00098,2023-11-11_13h57.21.762,vbt_B2_day4,2022.2.4,Win32,60.04202942,,,,,,down,0,1.5008,,0.887963048,-0.265740783,1,0,0,0,168,168,59,1,kring,images/br_kring.png,images/cb_kring.png,0,,,,,,,,,,,,,,,,,,,,,,
,,,,,00098,2023-11-11_13h57.21.762,vbt_B2_day4,2022.2.4,Win32,60.04202942,,,,,,down,0,2.3851,,0.887963048,-0.265740783,1,0,0,0,169,169,188,1,strekken,images/br_strekken.png,images/cb_strekken.png,0,,,,,,,,,,,,,,,,,,,,,,
,,,,,00098,2023-11-11_13h57.21.762,vbt_B2_day4,2022.2.4,Win32,60.04202942,,,,,,down,0,0.2516,,0.887963048,-0.264814801,1,0,0,0,170,170,151,1,aanzoek,images/br_aanzoek.png,images/cb_aanzoek.png,0,,,,,,,,,,,,,,,,,,,,,,
,,,,,00098,2023-11-11_13h57.21.762,vbt_B2_day4,2022.2.4,Win32,60.04202942,,,,,,down,0,8.3666,,0.887963048,-0.264814801,1,0,0,0,171,171,187,1,opkijken,images/br_opkijken.png,images/cb_opkijken.png,1,,,,,,,,,,,,,,,,,,,,,,
,,,,,00098,2023-11-11_13h57.21.762,vbt_B2_day4,2022.2.4,Win32,60.04202942,,,,,,down,0,11.2066,,0.887963048,-0.264814801,1,0,0,0,172,172,197,1,spanning,images/br_spanning.png,images/cb_spanning.png,0,,,,,,,,,,,,,,,,,,,,,,
,,,,,00098,2023-11-11_13h57.21.762,vbt_B2_day4,2022.2.4,Win32,60.04202942,,,,,,down,0,0.1442,,0.887963048,-0.280555584,1,0,0,0,173,173,132,1,grappen,images/br_grappen.png,images/cb_grappen.png,0,,,,,,,,,,,,,,,,,,,,,,
,,,,,00098,2023-11-11_13h57.21.762,vbt_B2_day4,2022.2.4,Win32,60.04202942,,,,,,down,0,0.3258,,0.887963048,-0.318518533,1,0,0,0,174,174,2,1,jaar,images/br_jaar.png,images/cb_jaar.png,0,,,,,,,,,,,,,,,,,,,,,,
,,,,,00098,2023-11-11_13h57.21.762,vbt_B2_day4,2022.2.4,Win32,60.04202942,,,,,,down,0,0.8053,,0.887963048,-0.325925968,1,0,0,0,175,175,41,1,maken,images/br_maken.png,images/cb_maken.png,0,,,,,,,,,,,,,,,,,,,,,,
,,,,,00098,2023-11-11_13h57.21.762,vbt_B2_day4,2022.2.4,Win32,60.04202942,,,,,,down,0,4.9671,,0.887963048,-0.332407422,1,0,0,0,176,176,185,1,mijnheer,images/br_mijnheer.png,images/cb_mijnheer.png,1,mijnheer,,,,,,,,,,,,,,,,,,,,,
,,,,,00098,2023-11-11_13h57.21.762,vbt_B2_day4,2022.2.4,Win32,60.04202942,,,,,,down,0,0.2405,,0.887963048,-0.333333333,1,0,0,0,177,177,171,1,aarzelen,images/br_aarzelen.png,images/cb_aarzelen.png,0,,,,,,,,,,,,,,,,,,,,,,
,,,,,00098,2023-11-11_13h57.21.762,vbt_B2_day4,2022.2.4,Win32,60.04202942,,,,,,down,0,0.3374,,0.887963048,-0.332407422,1,0,0,0,178,178,110,1,zuster,images/br_zuster.png,images/cb_zuster.png,0,,,,,,,,,,,,,,,,,,,,,,
,,,,,00098,2023-11-11_13h57.21.762,vbt_B2_day4,2022.2.4,Win32,60.04202942,,,,,,down,0,0.7766,,0.887963048,-0.332407422,1,0,0,0,179,179,52,1,wagon,images/br_wagon.png,images/cb_wagon.png,0,,,,,,,,,,,,,,,,,,,,,,
,,,,,00098,2023-11-11_13h57.21.762,vbt_B2_day4,2022.2.4,Win32,60.04202942,,,,,,down,0,0.1844,,0.887963048,-0.336111139,1,0,0,0,180,180,103,1,joggen,images/br_joggen.png,images/cb_joggen.png,0,,,,,,,,,,,,,,,,,,,,,,
,,,,,00098,2023-11-11_13h57.21.762,vbt_B2_day4,2022.2.4,Win32,60.04202942,,,,,,down,0,1.304,,0.887963048,-0.335185228,1,0,0,0,181,181,64,1,wegen,images/br_wegen.png,images/cb_wegen.png,1,wegen,,,,,,,,,,,,,,,,,,,,,
,,,,,00098,2023-11-11_13h57.21.762,vbt_B2_day4,2022.2.4,Win32,60.04202942,,,,,,down,0,3.536,,0.887963048,-0.335185228,1,0,0,0,182,182,91,1,gezond,images/br_gezond.png,images/cb_gezond.png,0,,,,,,,,,,,,,,,,,,,,,,
,,,,,00098,2023-11-11_13h57.21.762,vbt_B2_day4,2022.2.4,Win32,60.04202942,,,,,,down,0,1.0345,,0.887963048,-0.335185228,1,0,0,0,183,183,176,1,techniek,images/br_techniek.png,images/cb_techniek.png,0,,,,,,,,,,,,,,,,,,,,,,
,,,,,00098,2023-11-11_13h57.21.762,vbt_B2_day4,2022.2.4,Win32,60.04202942,,,,,,down,0,1.2862,,0.887963048,-0.335185228,1,0,0,0,184,184,181,1,toegeven,images/br_toegeven.png,images/cb_toegeven.png,0,,,,,,,,,,,,,,,,,,,,,,
,,,,,00098,2023-11-11_13h57.21.762,vbt_B2_day4,2022.2.4,Win32,60.04202942,,,,,,down,0,0.4681,,0.887963048,-0.335185228,1,0,0,0,185,185,172,1,weigeren,images/br_weigeren.png,images/cb_weigeren.png,0,,,,,,,,,,,,,,,,,,,,,,
,,,,,00098,2023-11-11_13h57.21.762,vbt_B2_day4,2022.2.4,Win32,60.04202942,,,,,,down,0,1.0925,,0.887963048,-0.335185228,1,0,0,0,186,186,183,1,getuigen,images/br_getuigen.png,images/cb_getuigen.png,0,,,,,,,,,,,,,,,,,,,,,,
,,,,,00098,2023-11-11_13h57.21.762,vbt_B2_day4,2022.2.4,Win32,60.04202942,,,,,,down,0,6.5979,,0.887963048,-0.333333333,1,0,0,0,187,187,107,1,maling,images/br_maling.png,images/cb_maling.png,1,maling,,,,,,,,,,,,,,,,,,,,,
,,,,,00098,2023-11-11_13h57.21.762,vbt_B2_day4,2022.2.4,Win32,60.04202942,,,,,,down,0,1.1959,,0.887963048,-0.333333333,1,0,0,0,188,188,118,1,vinger,images/br_vinger.png,images/cb_vinger.png,0,,,,,,,,,,,,,,,,,,,,,,
,,,,,00098,2023-11-11_13h57.21.762,vbt_B2_day4,2022.2.4,Win32,60.04202942,,,,,,down,0,2.9682,,0.887963048,-0.333333333,1,0,0,0,189,189,135,1,gedicht,images/br_gedicht.png,images/cb_gedicht.png,0,,,,,,,,,,,,,,,,,,,,,,
,,,,,00098,2023-11-11_13h57.21.762,vbt_B2_day4,2022.2.4,Win32,60.04202942,,,,,,down,0,1.4024,,0.887963048,-0.333333333,1,0,0,0,190,190,15,1,soda,images/br_soda.png,images/cb_soda.png,0,,,,,,,,,,,,,,,,,,,,,,
,,,,,00098,2023-11-11_13h57.21.762,vbt_B2_day4,2022.2.4,Win32,60.04202942,,,,,,down,0,2.4168,,0.887963048,-0.333333333,1,0,0,0,191,191,143,1,hechten,images/br_hechten.png,images/cb_hechten.png,0,,,,,,,,,,,,,,,,,,,,,,
,,,,,00098,2023-11-11_13h57.21.762,vbt_B2_day4,2022.2.4,Win32,60.04202942,,,,,,down,0,0.825,,0.887963048,-0.333333333,1,0,0,0,192,192,192,1,schaamte,images/br_schaamte.png,images/cb_schaamte.png,0,,,,,,,,,,,,,,,,,,,,,,
,,,,,00098,2023-11-11_13h57.21.762,vbt_B2_day4,2022.2.4,Win32,60.04202942,,,,,,down,0,0.3181,,0.887963048,-0.333333333,1,0,0,0,193,193,5,1,blad,images/br_blad.png,images/cb_blad.png,0,,,,,,,,,,,,,,,,,,,,,,
,,,,,00098,2023-11-11_13h57.21.762,vbt_B2_day4,2022.2.4,Win32,60.04202942,,,,,,down,0,3.3855,,0.887963048,-0.333333333,1,0,0,0,194,194,65,1,parel,images/br_parel.png,images/cb_parel.png,1,parel,,,,,,,,,,,,,,,,,,,,,
,,,,,00098,2023-11-11_13h57.21.762,vbt_B2_day4,2022.2.4,Win32,60.04202942,,,,,,down,0,0.9322,,0.887963048,-0.466666681,1,0,0,0,195,195,141,1,knielen,images/br_knielen.png,images/cb_knielen.png,0,,,,,,,,,,,,,,,,,,,,,,
,,,,,00098,2023-11-11_13h57.21.762,vbt_B2_day4,2022.2.4,Win32,60.04202942,,,,,,down,0,0.2993,,0.885185242,-0.499074088,1,0,0,0,196,196,73,1,volop,images/br_volop.png,images/cb_volop.png,0,,,,,,,,,,,,,,,,,,,,,,
,,,,,00098,2023-11-11_13h57.21.762,vbt_B2_day4,2022.2.4,Win32,60.04202942,,,,,,down,0,1.4579,,0.885185242,-0.499074088,1,0,0,0,197,197,157,1,uitlaat,images/br_uitlaat.png,images/cb_uitlaat.png,0,,,,,,,,,,,,,,,,,,,,,,
,,,,,00098,2023-11-11_13h57.21.762,vbt_B2_day4,2022.2.4,Win32,60.04202942,,,,,,down,0,0.7253,,0.885185242,-0.499074088,1,0,0,0,198,198,155,1,gerucht,images/br_gerucht.png,images/cb_gerucht.png,0,,,,,,,,,,,,,,,,,,,,,,
,,,,,00098,2023-11-11_13h57.21.762,vbt_B2_day4,2022.2.4,Win32,60.04202942,,,,,,down,0,0.3843,,0.885185242,-0.499074088,1,0,0,0,199,199,86,1,woning,images/br_woning.png,images/cb_woning.png,0,,,,,,,,,,,,,,,,,,,,,,
,,,,,00098,2023-11-11_13h57.21.762,vbt_B2_day4,2022.2.4,Win32,60.04202942,,,,,,,,,,,,,,,,,,,,,,,,,0.459259316,-0.01666666,1,0,0,,,,,,,,,,,,,,,,
,,,,,00098,2023-11-11_13h57.21.762,vbt_B2_day4,2022.2.4,Win32,60.04202942,,,,,,,,,,,,,,,,,,,,,,,,,,,,,,0.748148176,-0.087037051,1,0,0,,,,,,,,,,,
,,,,,00098,2023-11-11_13h57.21.762,vbt_B2_day4,2022.2.4,Win32,60.04202942,,,,,,,,,,,,,,,,,,,,wagon,images/br_wagon.png,images/cb_wagon.png,,wagon,,,,,,,,,,,0.328703704,0.221296293,1,0,0,wagon,0,0,0,4,1
,,,,,00098,2023-11-11_13h57.21.762,vbt_B2_day4,2022.2.4,Win32,60.04202942,,,,,,,,,,,,,,,,,,,,mekst,images/br_mekst.png,images/cb_mekst.png,,mekst,,,,,,,,,,,0.335185157,0.221296293,1,0,0,mekst,0,1,1,27,1
,,,,,00098,2023-11-11_13h57.21.762,vbt_B2_day4,2022.2.4,Win32,60.04202942,,,,,,,,,,,,,,,,,,,,opruimen,images/br_opruimen.png,images/cb_opruimen.png,,opruimen,,,,,,,,,,,0.335185157,0.221296293,1,0,0,opruimen,0,2,2,59,1
,,,,,00098,2023-11-11_13h57.21.762,vbt_B2_day4,2022.2.4,Win32,60.04202942,,,,,,,,,,,,,,,,,,,,grappen,images/br_grappen.png,images/cb_grappen.png,,grappen,,,,,,,,,,,0.335185157,0.221296293,1,0,0,grappen,0,3,3,12,1
,,,,,00098,2023-11-11_13h57.21.762,vbt_B2_day4,2022.2.4,Win32,60.04202942,,,,,,,,,,,,,,,,,,,,sulbon,images/br_sulbon.png,images/cb_sulbon.png,,sulbon,,,,,,,,,,,0.335185157,0.221296293,1,0,0,sulbon,0,4,4,31,1
,,,,,00098,2023-11-11_13h57.21.762,vbt_B2_day4,2022.2.4,Win32,60.04202942,,,,,,,,,,,,,,,,,,,,baron,images/br_baron.png,images/cb_baron.png,,baron,,,,,,,,,,,0.341666751,0.212962963,1,0,0,baron,0,5,5,5,1
,,,,,00098,2023-11-11_13h57.21.762,vbt_B2_day4,2022.2.4,Win32,60.04202942,,,,,,,,,,,,,,,,,,,,schenden,images/br_schenden.png,images/cb_schenden.png,,schemden,,,,,,,,,,,0.343518575,0.210185175,1,0,0,schemden,0,6,6,57,1
,,,,,00098,2023-11-11_13h57.21.762,vbt_B2_day4,2022.2.4,Win32,60.04202942,,,,,,,,,,,,,,,,,,,,tucket,images/br_tucket.png,images/cb_tucket.png,,tucket,,,,,,,,,,,0.343518575,0.210185175,1,0,0,tucket,0,7,7,30,1
,,,,,00098,2023-11-11_13h57.21.762,vbt_B2_day4,2022.2.4,Win32,60.04202942,,,,,,,,,,,,,,,,,,,,gedicht,images/br_gedicht.png,images/cb_gedicht.png,,gedicht,,,,,,,,,,,0.362037094,0.15370369,1,0,0,gedicht,0,8,8,15,1
,,,,,00098,2023-11-11_13h57.21.762,vbt_B2_day4,2022.2.4,Win32,60.04202942,,,,,,,,,,,,,,,,,,,,gebog,images/br_gebog.png,images/cb_gebog.png,,gebog,,,,,,,,,,,0.36018527,0.15648146,1,0,0,gebog,0,9,9,24,1
,,,,,00098,2023-11-11_13h57.21.762,vbt_B2_day4,2022.2.4,Win32,60.04202942,,,,,,,,,,,,,,,,,,,,apparaat,images/br_apparaat.png,images/cb_apparaat.png,,apparaat,,,,,,,,,,,0.36018527,0.15648146,1,0,0,apparaat,0,10,10,17,1
,,,,,00098,2023-11-11_13h57.21.762,vbt_B2_day4,2022.2.4,Win32,60.04202942,,,,,,,,,,,,,,,,,,,,weigeren,images/br_weigeren.png,images/cb_weigeren.png,,weigeren,,,,,,,,,,,0.357407464,0.163888896,1,0,0,weigeren,0,11,11,16,1
,,,,,00098,2023-11-11_13h57.21.762,vbt_B2_day4,2022.2.4,Win32,60.04202942,,,,,,,,,,,,,,,,,,,,seizoen,images/br_seizoen.png,images/cb_seizoen.png,,seizoen,,,,,,,,,,,0.357407464,0.163888896,1,0,0,seizoen,0,12,12,13,1
,,,,,00098,2023-11-11_13h57.21.762,vbt_B2_day4,2022.2.4,Win32,60.04202942,,,,,,,,,,,,,,,,,,,,midden,images/br_midden.png,images/cb_midden.png,,midden,,,,,,,,,,,0.377777806,0.151851831,1,0,0,midden,0,13,13,50,1
,,,,,00098,2023-11-11_13h57.21.762,vbt_B2_day4,2022.2.4,Win32,60.04202942,,,,,,,,,,,,,,,,,,,,heengaan,images/br_heengaan.png,images/cb_heengaan.png,,heengaan,,,,,,,,,,,0.377777806,0.151851831,1,0,0,heengaan,0,14,14,19,1
,,,,,00098,2023-11-11_13h57.21.762,vbt_B2_day4,2022.2.4,Win32,60.04202942,,,,,,,,,,,,,,,,,,,,seizoon,images/br_seizoon.png,images/cb_seizoon.png,,seizoon,,,,,,,,,,,0.419444473,0.151851831,1,0,0,seizoon,0,15,15,33,1
,,,,,00098,2023-11-11_13h57.21.762,vbt_B2_day4,2022.2.4,Win32,60.04202942,,,,,,,,,,,,,,,,,,,,broodje,images/br_broodje.png,images/cb_broodje.png,,broodje,,,,,,,,,,,0.442592621,0.139814801,1,0,0,broodje,0,16,16,55,1
,,,,,00098,2023-11-11_13h57.21.762,vbt_B2_day4,2022.2.4,Win32,60.04202942,,,,,,,,,,,,,,,,,,,,fran,images/br_fran.png,images/cb_fran.png,,fran,,,,,,,,,,,0.446296268,0.123148141,1,0,0,fran,0,17,17,22,1
,,,,,00098,2023-11-11_13h57.21.762,vbt_B2_day4,2022.2.4,Win32,60.04202942,,,,,,,,,,,,,,,,,,,,kaal,images/br_kaal.png,images/cb_kaal.png,,kaal,,,,,,,,,,,0.474074046,0.118518511,1,0,0,kaal,0,18,18,1,1
,,,,,00098,2023-11-11_13h57.21.762,vbt_B2_day4,2022.2.4,Win32,60.04202942,,,,,,,,,,,,,,,,,,,,wozing,images/br_wozing.png,images/cb_wozing.png,,wozing,,,,,,,,,,,0.474074046,0.118518511,1,0,0,wozing,0,19,19,28,1
,,,,,00098,2023-11-11_13h57.21.762,vbt_B2_day4,2022.2.4,Win32,60.04202942,,,,,,,,,,,,,,,,,,,,noodzaak,images/br_noodzaak.png,images/cb_noodzaak.png,,noodzaal,,,,,,,,,,,0.478703675,0.113888882,1,0,0,noodzaal,0,20,20,56,1
,,,,,00098,2023-11-11_13h57.21.762,vbt_B2_day4,2022.2.4,Win32,60.04202942,,,,,,,,,,,,,,,,,,,,drooien,images/br_drooien.png,images/cb_drooien.png,,drooien,,,,,,,,,,,0.479629658,0.11296297,1,0,0,drooien,0,21,21,32,1
,,,,,00098,2023-11-11_13h57.21.762,vbt_B2_day4,2022.2.4,Win32,60.04202942,,,,,,,,,,,,,,,,,,,,aanzwaag,images/br_aanzwaag.png,images/cb_aanzwaag.png,,aanzwaag,,,,,,,,,,,0.508333418,0.106481481,1,0,0,aanzwaag,0,22,22,38,1
,,,,,00098,2023-11-11_13h57.21.762,vbt_B2_day4,2022.2.4,Win32,60.04202942,,,,,,,,,,,,,,,,,,,,stemming,images/br_stemming.png,images/cb_stemming.png,,stemming,,,,,,,,,,,0.508333418,0.104629623,1,0,0,stemming,0,23,23,18,1
,,,,,00098,2023-11-11_13h57.21.762,vbt_B2_day4,2022.2.4,Win32,60.04202942,,,,,,,,,,,,,,,,,,,,zwek,images/br_zwek.png,images/cb_zwek.png,,zwek,,,,,,,,,,,0.510185242,0.101851852,1,0,0,zwek,0,24,24,20,1
,,,,,00098,2023-11-11_13h57.21.762,vbt_B2_day4,2022.2.4,Win32,60.04202942,,,,,,,,,,,,,,,,,,,,zaalrijk,images/br_zaalrijk.png,images/cb_zaalrijk.png,,zaalrijk,,,,,,,,,,,0.511111083,0.101851852,1,0,0,zaalrijk,0,25,25,37,1
,,,,,00098,2023-11-11_13h57.21.762,vbt_B2_day4,2022.2.4,Win32,60.04202942,,,,,,,,,,,,,,,,,,,,ezel,images/br_ezel.png,images/cb_ezel.png,,ezel,,,,,,,,,,,0.511111083,0.101851852,1,0,0,ezel,0,26,26,42,1
,,,,,00098,2023-11-11_13h57.21.762,vbt_B2_day4,2022.2.4,Win32,60.04202942,,,,,,,,,,,,,,,,,,,,gijf,images/br_gijf.png,images/cb_gijf.png,,gijf,,,,,,,,,,,0.515740712,0.085185192,1,0,0,gijf,0,27,27,23,1
,,,,,00098,2023-11-11_13h57.21.762,vbt_B2_day4,2022.2.4,Win32,60.04202942,,,,,,,,,,,,,,,,,,,,waarop,images/br_waarop.png,images/cb_waarop.png,,waarop,,,,,,,,,,,0.515740712,0.084259245,1,0,0,waarop,0,28,28,9,1
,,,,,00098,2023-11-11_13h57.21.762,vbt_B2_day4,2022.2.4,Win32,60.04202942,,,,,,,,,,,,,,,,,,,,gaaf,images/br_gaaf.png,images/cb_gaaf.png,,gaaf,,,,,,,,,,,0.515740712,0.083333333,1,0,0,gaaf,0,29,29,43,1
,,,,,00098,2023-11-11_13h57.21.762,vbt_B2_day4,2022.2.4,Win32,60.04202942,,,,,,,,,,,,,,,,,,,,opkicht,images/br_opkicht.png,images/cb_opkicht.png,,opzicht,,,,,,,,,,,0.515740712,0.083333333,1,0,0,opzicht,0,30,30,34,1
,,,,,00098,2023-11-11_13h57.21.762,vbt_B2_day4,2022.2.4,Win32,60.04202942,,,,,,,,,,,,,,,,,,,,snee,images/br_snee.png,images/cb_snee.png,,snee,,,,,,,,,,,0.519444501,0.078703704,1,0,0,snee,0,31,31,40,1
,,,,,00098,2023-11-11_13h57.21.762,vbt_B2_day4,2022.2.4,Win32,60.04202942,,,,,,,,,,,,,,,,,,,,vreten,images/br_vreten.png,images/cb_vreten.png,,vreten,,,,,,,,,,,0.519444501,0.078703704,1,0,0,vreten,0,32,32,11,1
,,,,,00098,2023-11-11_13h57.21.762,vbt_B2_day4,2022.2.4,Win32,60.04202942,,,,,,,,,,,,,,,,,,,,lappen,images/br_lappen.png,images/cb_lappen.png,,lappen,,,,,,,,,,,0.519444501,0.078703704,1,0,0,lappen,0,33,33,49,1
,,,,,00098,2023-11-11_13h57.21.762,vbt_B2_day4,2022.2.4,Win32,60.04202942,,,,,,,,,,,,,,,,,,,,warel,images/br_warel.png,images/cb_warel.png,,warel,,,,,,,,,,,0.525925954,0.078703704,1,0,0,warel,0,34,34,26,1
,,,,,00098,2023-11-11_13h57.21.762,vbt_B2_day4,2022.2.4,Win32,60.04202942,,,,,,,,,,,,,,,,,,,,pittig,images/br_pittig.png,images/cb_pittig.png,,pittig,,,,,,,,,,,0.55277775,0.067592586,1,0,0,pittig,0,35,35,51,1
,,,,,00098,2023-11-11_13h57.21.762,vbt_B2_day4,2022.2.4,Win32,60.04202942,,,,,,,,,,,,,,,,,,,,rijp,images/br_rijp.png,images/cb_rijp.png,,rijp,,,,,,,,,,,0.570370427,0.037962949,1,0,0,rijp,0,36,36,2,1
,,,,,00098,2023-11-11_13h57.21.762,vbt_B2_day4,2022.2.4,Win32,60.04202942,,,,,,,,,,,,,,,,,,,,kust,images/br_kust.png,images/cb_kust.png,,kust,,,,,,,,,,,-0.081481439,0.259259259,1,0,0,kust,0,37,37,0,1
,,,,,00098,2023-11-11_13h57.21.762,vbt_B2_day4,2022.2.4,Win32,60.04202942,,,,,,,,,,,,,,,,,,,,praat,images/br_praat.png,images/cb_praat.png,,praat,,,,,,,,,,,-0.056481467,0.250925929,1,0,0,praat,0,38,38,7,1
,,,,,00098,2023-11-11_13h57.21.762,vbt_B2_day4,2022.2.4,Win32,60.04202942,,,,,,,,,,,,,,,,,,,,flippen,images/br_flippen.png,images/cb_flippen.png,,flippen,,,,,,,,,,,-0.046296296,0.238888882,1,0,0,flippen,0,39,39,54,1
,,,,,00098,2023-11-11_13h57.21.762,vbt_B2_day4,2022.2.4,Win32,60.04202942,,,,,,,,,,,,,,,,,,,,bisschap,images/br_bisschap.png,images/cb_bisschap.png,,bisschap,,,,,,,,,,,-0.02870369,0.221296293,1,0,0,bisschap,0,40,40,36,1
,,,,,00098,2023-11-11_13h57.21.762,vbt_B2_day4,2022.2.4,Win32,60.04202942,,,,,,,,,,,,,,,,,,,,geheim,images/br_geheim.png,images/cb_geheim.png,,geheim,,,,,,,,,,,-0.027777778,0.221296293,1,0,0,geheim,0,41,41,8,1
,,,,,00098,2023-11-11_13h57.21.762,vbt_B2_day4,2022.2.4,Win32,60.04202942,,,,,,,,,,,,,,,,,,,,dalen,images/br_dalen.png,images/cb_dalen.png,,dalen,,,,,,,,,,,-0.016666624,0.210185175,1,0,0,dalen,0,42,42,46,1
,,,,,00098,2023-11-11_13h57.21.762,vbt_B2_day4,2022.2.4,Win32,60.04202942,,,,,,,,,,,,,,,,,,,,toevol,images/br_toevol.png,images/cb_toevol.png,,toevol,,,,,,,,,,,0.012962977,0.186111097,1,0,0,toevol,0,43,43,29,1
,,,,,00098,2023-11-11_13h57.21.762,vbt_B2_day4,2022.2.4,Win32,60.04202942,,,,,,,,,,,,,,,,,,,,drummer,images/br_drummer.png,images/cb_drummer.png,,drummer,,,,,,,,,,,0.217592593,0.2537037,1,0,0,drummer,0,44,44,53,1
,,,,,00098,2023-11-11_13h57.21.762,vbt_B2_day4,2022.2.4,Win32,60.04202942,,,,,,,,,,,,,,,,,,,,strok,images/br_strok.png,images/cb_strok.png,,strok,,,,,,,,,,,0.217592593,0.2537037,1,0,0,strok,0,45,45,25,1
,,,,,00098,2023-11-11_13h57.21.762,vbt_B2_day4,2022.2.4,Win32,60.04202942,,,,,,,,,,,,,,,,,,,,steen,images/br_steen.png,images/cb_steen.png,,steen,,,,,,,,,,,0.231481481,0.249074071,1,0,0,steen,0,46,46,44,1
,,,,,00098,2023-11-11_13h57.21.762,vbt_B2_day4,2022.2.4,Win32,60.04202942,,,,,,,,,,,,,,,,,,,,bruin,images/br_bruin.png,images/cb_bruin.png,,bruin,,,,,,,,,,,0.233333376,0.249074071,1,0,0,bruin,0,47,47,45,1
,,,,,00098,2023-11-11_13h57.21.762,vbt_B2_day4,2022.2.4,Win32,60.04202942,,,,,,,,,,,,,,,,,,,,gebit,images/br_gebit.png,images/cb_gebit.png,,gebit,,,,,,,,,,,0.233333376,0.249074071,1,0,0,gebit,0,48,48,6,1
,,,,,00098,2023-11-11_13h57.21.762,vbt_B2_day4,2022.2.4,Win32,60.04202942,,,,,,,,,,,,,,,,,,,,pijnlijk,images/br_pijnlijk.png,images/cb_pijnlijk.png,,pijnlijk,,,,,,,,,,,0.238888917,0.240740741,1,0,0,pijnlijk,0,49,49,58,1
,,,,,00098,2023-11-11_13h57.21.762,vbt_B2_day4,2022.2.4,Win32,60.04202942,,,,,,,,,,,,,,,,,,,,schotel,images/br_schotel.png,images/cb_schotel.png,,schotel,,,,,,,,,,,0.238888917,0.249074071,1,0,0,schotel,0,50,50,52,1
,,,,,00098,2023-11-11_13h57.21.762,vbt_B2_day4,2022.2.4,Win32,60.04202942,,,,,,,,,,,,,,,,,,,,getucht,images/br_getucht.png,images/cb_getucht.png,,getuckt,,,,,,,,,,,0.238888917,0.249074071,1,0,0,getuckt,0,51,51,35,1
,,,,,00098,2023-11-11_13h57.21.762,vbt_B2_day4,2022.2.4,Win32,60.04202942,,,,,,,,,,,,,,,,,,,,soda,images/br_soda.png,images/cb_soda.png,,soda,,,,,,,,,,,0.241666653,0.249074071,1,0,0,soda,0,52,52,3,1
,,,,,00098,2023-11-11_13h57.21.762,vbt_B2_day4,2022.2.4,Win32,60.04202942,,,,,,,,,,,,,,,,,,,,paalbaak,images/br_paalbaak.png,images/cb_paalbaak.png,,paalbaak,,,,,,,,,,,0.250925912,0.25,1,0,0,paalbaak,0,53,53,39,1
,,,,,00098,2023-11-11_13h57.21.762,vbt_B2_day4,2022.2.4,Win32,60.04202942,,,,,,,,,,,,,,,,,,,,haza,images/br_haza.png,images/cb_haza.png,,haza,,,,,,,,,,,0.250925912,0.250925929,1,0,0,haza,0,54,54,21,1
,,,,,00098,2023-11-11_13h57.21.762,vbt_B2_day4,2022.2.4,Win32,60.04202942,,,,,,,,,,,,,,,,,,,,oceaan,images/br_oceaan.png,images/cb_oceaan.png,,oceaan,,,,,,,,,,,0.250925912,0.250925929,1,0,0,oceaan,0,55,55,10,1
,,,,,00098,2023-11-11_13h57.21.762,vbt_B2_day4,2022.2.4,Win32,60.04202942,,,,,,,,,,,,,,,,,,,,gaan,images/br_gaan.png,images/cb_gaan.png,,gaan,,,,,,,,,,,0.264814801,0.249074071,1,0,0,gaan,0,56,56,41,1
,,,,,00098,2023-11-11_13h57.21.762,vbt_B2_day4,2022.2.4,Win32,60.04202942,,,,,,,,,,,,,,,,,,,,geliefd,images/br_geliefd.png,images/cb_geliefd.png,,geliefd,,,,,,,,,,,0.283333319,0.24537037,1,0,0,geliefd,0,57,57,14,1
,,,,,00098,2023-11-11_13h57.21.762,vbt_B2_day4,2022.2.4,Win32,60.04202942,,,,,,,,,,,,,,,,,,,,eerst,images/br_eerst.png,images/cb_eerst.png,,eerst,,,,,,,,,,,0.30277775,0.228703693,1,0,0,eerst,0,58,58,47,1
,,,,,00098,2023-11-11_13h57.21.762,vbt_B2_day4,2022.2.4,Win32,60.04202942,,,,,,,,,,,,,,,,,,,,dozijn,images/br_dozijn.png,images/cb_dozijn.png,,dozijn,,,,,,,,,,,0.30277775,0.228703693,1,0,0,dozijn,0,59,59,48,1
,,,,,00098,2023-11-11_13h57.21.762,vbt_B2_day4,2022.2.4,Win32,60.04202942,,,,,,,,,,,,,,,,,,,,,,,,,,,,,,,,,,,,,,,,,,,,,
