welcome_mouse.x,welcome_mouse.y,welcome_mouse.leftButton,welcome_mouse.midButton,welcome_mouse.rightButton,"ID",date,expName,psychopyVersion,OS,frameRate,trainInstr_mouse.x,trainInstr_mouse.y,trainInstr_mouse.leftButton,trainInstr_mouse.midButton,trainInstr_mouse.rightButton,translation_key.keys,translation_key.corr,translation_key.rt,word_rsp.text,trWrd_mouse.x,trWrd_mouse.y,trWrd_mouse.leftButton,trWrd_mouse.midButton,trWrd_mouse.rightButton,train_loop.thisRepN,train_loop.thisTrialN,train_loop.thisN,train_loop.thisIndex,train_loop.ran,nlWrd,brWrd,cbWrd,test,testResp,mouse.x,mouse.y,mouse.leftButton,mouse.midButton,mouse.rightButton,testInstr_mouse.x,testInstr_mouse.y,testInstr_mouse.leftButton,testInstr_mouse.midButton,testInstr_mouse.rightButton,test_mouse.x,test_mouse.y,test_mouse.leftButton,test_mouse.midButton,test_mouse.rightButton,test_response.text,test_loop.thisRepN,test_loop.thisTrialN,test_loop.thisN,test_loop.thisIndex,test_loop.ran
-0.037036981,-0.264814843,1,0,0,00018,2023-08-14_14h15.08.023,vbt_B2_day4,2022.2.4,Win32,60.0060006,,,,,,,,,,,,,,,,,,,,,,,,,,,,,,,,,,,,,,,,,,,,,
,,,,,00018,2023-08-14_14h15.08.023,vbt_B2_day4,2022.2.4,Win32,60.0060006,-0.037962935,-0.271296353,1,0,0,,,,,,,,,,,,,,,,,,,,,,,,,,,,,,,,,,,,,,,,
,,,,,00018,2023-08-14_14h15.08.023,vbt_B2_day4,2022.2.4,Win32,60.0060006,,,,,,down,0,3.4705,,-0.037962935,-0.271296353,1,0,0,0,0,0,176,1,techniek,images/br_techniek.png,images/cb_techniek.png,0,,,,,,,,,,,,,,,,,,,,,,
,,,,,00018,2023-08-14_14h15.08.023,vbt_B2_day4,2022.2.4,Win32,60.0060006,,,,,,down,0,2.3344,,-0.037962935,-0.271296353,1,0,0,0,1,1,65,1,parel,images/br_parel.png,images/cb_parel.png,1,parel,,,,,,,,,,,,,,,,,,,,,
,,,,,00018,2023-08-14_14h15.08.023,vbt_B2_day4,2022.2.4,Win32,60.0060006,,,,,,down,0,0.8441,,0.266666667,-0.010185199,1,0,0,0,2,2,83,1,mening,images/br_mening.png,images/cb_mening.png,0,,,,,,,,,,,,,,,,,,,,,,
,,,,,00018,2023-08-14_14h15.08.023,vbt_B2_day4,2022.2.4,Win32,60.0060006,,,,,,down,0,0.4825,,0.259259288,-0.004629644,1,0,0,0,3,3,166,1,strikken,images/br_strikken.png,images/cb_strikken.png,0,,,,,,,,,,,,,,,,,,,,,,
,,,,,00018,2023-08-14_14h15.08.023,vbt_B2_day4,2022.2.4,Win32,60.0060006,,,,,,down,0,0.4493,,0.259259288,-0.004629644,1,0,0,0,4,4,47,1,kabel,images/br_kabel.png,images/cb_kabel.png,0,,,,,,,,,,,,,,,,,,,,,,
,,,,,00018,2023-08-14_14h15.08.023,vbt_B2_day4,2022.2.4,Win32,60.0060006,,,,,,down,0,0.3415,,0.259259288,-0.004629644,1,0,0,0,5,5,34,1,vorm,images/br_vorm.png,images/cb_vorm.png,0,,,,,,,,,,,,,,,,,,,,,,
,,,,,00018,2023-08-14_14h15.08.023,vbt_B2_day4,2022.2.4,Win32,60.0060006,,,,,,down,0,0.4344,,0.259259288,-0.004629644,1,0,0,0,6,6,77,1,woede,images/br_woede.png,images/cb_woede.png,0,,,,,,,,,,,,,,,,,,,,,,
,,,,,00018,2023-08-14_14h15.08.023,vbt_B2_day4,2022.2.4,Win32,60.0060006,,,,,,down,0,4.367,,0.279629686,-0.267592621,1,0,0,0,7,7,23,1,zout,images/br_zout.png,images/cb_zout.png,0,,,,,,,,,,,,,,,,,,,,,,
,,,,,00018,2023-08-14_14h15.08.023,vbt_B2_day4,2022.2.4,Win32,60.0060006,,,,,,down,0,0.2054,,0.343518575,-0.10648151,1,0,0,0,8,8,29,1,baas,images/br_baas.png,images/cb_baas.png,0,,,,,,,,,,,,,,,,,,,,,,
,,,,,00018,2023-08-14_14h15.08.023,vbt_B2_day4,2022.2.4,Win32,60.0060006,,,,,,down,0,3.0878,,0.343518575,-0.10648151,1,0,0,0,9,9,154,1,aflopen,images/br_aflopen.png,images/cb_aflopen.png,0,,,,,,,,,,,,,,,,,,,,,,
,,,,,00018,2023-08-14_14h15.08.023,vbt_B2_day4,2022.2.4,Win32,60.0060006,,,,,,down,0,9.2477,,0.343518575,-0.10648151,1,0,0,0,10,10,107,1,maling,images/br_maling.png,images/cb_maling.png,1,maling,,,,,,,,,,,,,,,,,,,,,
,,,,,00018,2023-08-14_14h15.08.023,vbt_B2_day4,2022.2.4,Win32,60.0060006,,,,,,down,0,21.6088,,0.343518575,-0.10648151,1,0,0,0,11,11,118,1,vinger,images/br_vinger.png,images/cb_vinger.png,0,,,,,,,,,,,,,,,,,,,,,,
,,,,,00018,2023-08-14_14h15.08.023,vbt_B2_day4,2022.2.4,Win32,60.0060006,,,,,,down,0,1.035,,0.343518575,-0.10648151,1,0,0,0,12,12,133,1,seizoen,images/br_seizoen.png,images/cb_seizoen.png,0,,,,,,,,,,,,,,,,,,,,,,
,,,,,00018,2023-08-14_14h15.08.023,vbt_B2_day4,2022.2.4,Win32,60.0060006,,,,,,down,0,1.134,,0.35,-0.09629631,1,0,0,0,13,13,169,1,oprotten,images/br_oprotten.png,images/cb_oprotten.png,0,,,,,,,,,,,,,,,,,,,,,,
,,,,,00018,2023-08-14_14h15.08.023,vbt_B2_day4,2022.2.4,Win32,60.0060006,,,,,,down,0,17.4576,,0.35,-0.09629631,1,0,0,0,14,14,196,1,nakijken,images/br_nakijken.png,images/cb_nakijken.png,0,,,,,,,,,,,,,,,,,,,,,,
,,,,,00018,2023-08-14_14h15.08.023,vbt_B2_day4,2022.2.4,Win32,60.0060006,,,,,,down,0,2.4645,,0.35,-0.09629631,1,0,0,0,15,15,159,1,sufferd,images/br_sufferd.png,images/cb_sufferd.png,0,,,,,,,,,,,,,,,,,,,,,,
,,,,,00018,2023-08-14_14h15.08.023,vbt_B2_day4,2022.2.4,Win32,60.0060006,,,,,,down,0,0.0106,,0.35,-0.09629631,1,0,0,0,16,16,42,1,bleek,images/br_bleek.png,images/cb_bleek.png,0,,,,,,,,,,,,,,,,,,,,,,
,,,,,00018,2023-08-14_14h15.08.023,vbt_B2_day4,2022.2.4,Win32,60.0060006,,,,,,down,0,0.9096,,0.35,-0.09629631,1,0,0,0,17,17,19,1,geit,images/br_geit.png,images/cb_geit.png,0,,,,,,,,,,,,,,,,,,,,,,
,,,,,00018,2023-08-14_14h15.08.023,vbt_B2_day4,2022.2.4,Win32,60.0060006,,,,,,down,0,0.7365,,0.35,-0.09629631,1,0,0,0,18,18,26,1,leuk,images/br_leuk.png,images/cb_leuk.png,1,leuk,,,,,,,,,,,,,,,,,,,,,
,,,,,00018,2023-08-14_14h15.08.023,vbt_B2_day4,2022.2.4,Win32,60.0060006,,,,,,down,0,1.217,,0.35,-0.094444444,1,0,0,0,19,19,12,1,kust,images/br_kust.png,images/cb_kust.png,0,,,,,,,,,,,,,,,,,,,,,,
,,,,,00018,2023-08-14_14h15.08.023,vbt_B2_day4,2022.2.4,Win32,60.0060006,,,,,,down,0,1.5679,,0.35,-0.094444444,1,0,0,0,20,20,136,1,waarbij,images/br_waarbij.png,images/cb_waarbij.png,0,,,,,,,,,,,,,,,,,,,,,,
,,,,,00018,2023-08-14_14h15.08.023,vbt_B2_day4,2022.2.4,Win32,60.0060006,,,,,,down,0,21.5243,,0.35648151,-0.109259288,1,0,0,0,21,21,9,1,hier,images/br_hier.png,images/cb_hier.png,0,,,,,,,,,,,,,,,,,,,,,,
,,,,,00018,2023-08-14_14h15.08.023,vbt_B2_day4,2022.2.4,Win32,60.0060006,,,,,,down,0,1.8877,,0.35648151,-0.109259288,1,0,0,0,22,22,199,1,beseffen,images/br_beseffen.png,images/cb_beseffen.png,0,,,,,,,,,,,,,,,,,,,,,,
,,,,,00018,2023-08-14_14h15.08.023,vbt_B2_day4,2022.2.4,Win32,60.0060006,,,,,,down,0,1.8838,,0.35648151,-0.109259288,1,0,0,0,23,23,81,1,dubbel,images/br_dubbel.png,images/cb_dubbel.png,0,,,,,,,,,,,,,,,,,,,,,,
,,,,,00018,2023-08-14_14h15.08.023,vbt_B2_day4,2022.2.4,Win32,60.0060006,,,,,,down,0,0.4656,,0.35648151,-0.109259288,1,0,0,0,24,24,55,1,praat,images/br_praat.png,images/cb_praat.png,0,,,,,,,,,,,,,,,,,,,,,,
,,,,,00018,2023-08-14_14h15.08.023,vbt_B2_day4,2022.2.4,Win32,60.0060006,,,,,,down,0,0.067,,0.35648151,-0.109259288,1,0,0,0,25,25,148,1,smullen,images/br_smullen.png,images/cb_smullen.png,0,,,,,,,,,,,,,,,,,,,,,,
,,,,,00018,2023-08-14_14h15.08.023,vbt_B2_day4,2022.2.4,Win32,60.0060006,,,,,,down,0,3.5249,,0.35648151,-0.109259288,1,0,0,0,26,26,40,1,schep,images/br_schep.png,images/cb_schep.png,0,,,,,,,,,,,,,,,,,,,,,,
,,,,,00018,2023-08-14_14h15.08.023,vbt_B2_day4,2022.2.4,Win32,60.0060006,,,,,,down,0,15.8404,,0.35648151,-0.109259288,1,0,0,0,27,27,194,1,driemaal,images/br_driemaal.png,images/cb_driemaal.png,0,,,,,,,,,,,,,,,,,,,,,,
,,,,,00018,2023-08-14_14h15.08.023,vbt_B2_day4,2022.2.4,Win32,60.0060006,,,,,,down,0,0.7025,,0.35648151,-0.109259288,1,0,0,0,28,28,105,1,wijlen,images/br_wijlen.png,images/cb_wijlen.png,1,wijlen,,,,,,,,,,,,,,,,,,,,,
,,,,,00018,2023-08-14_14h15.08.023,vbt_B2_day4,2022.2.4,Win32,60.0060006,,,,,,down,0,15.327,,0.339814843,-0.109259288,1,0,0,0,29,29,35,1,lust,images/br_lust.png,images/cb_lust.png,0,,,,,,,,,,,,,,,,,,,,,,
,,,,,00018,2023-08-14_14h15.08.023,vbt_B2_day4,2022.2.4,Win32,60.0060006,,,,,,down,0,0.6397,,0.347222222,-0.10648151,1,0,0,0,30,30,117,1,kennis,images/br_kennis.png,images/cb_kennis.png,0,,,,,,,,,,,,,,,,,,,,,,
,,,,,00018,2023-08-14_14h15.08.023,vbt_B2_day4,2022.2.4,Win32,60.0060006,,,,,,down,0,6.1546,,0.347222222,-0.10648151,1,0,0,0,31,31,178,1,huisdier,images/br_huisdier.png,images/cb_huisdier.png,0,,,,,,,,,,,,,,,,,,,,,,
,,,,,00018,2023-08-14_14h15.08.023,vbt_B2_day4,2022.2.4,Win32,60.0060006,,,,,,down,0,11.5055,,0.349074131,-0.119444444,1,0,0,0,32,32,165,1,feestdag,images/br_feestdag.png,images/cb_feestdag.png,0,,,,,,,,,,,,,,,,,,,,,,
,,,,,00018,2023-08-14_14h15.08.023,vbt_B2_day4,2022.2.4,Win32,60.0060006,,,,,,down,0,2.1339,,0.362963019,-0.113888889,1,0,0,0,33,33,60,1,jasje,images/br_jasje.png,images/cb_jasje.png,0,,,,,,,,,,,,,,,,,,,,,,
,,,,,00018,2023-08-14_14h15.08.023,vbt_B2_day4,2022.2.4,Win32,60.0060006,,,,,,down,0,2.8944,,0.370370399,-0.101851866,1,0,0,0,34,34,158,1,innemen,images/br_innemen.png,images/cb_innemen.png,0,,,,,,,,,,,,,,,,,,,,,,
,,,,,00018,2023-08-14_14h15.08.023,vbt_B2_day4,2022.2.4,Win32,60.0060006,,,,,,down,0,8.6875,,0.376851908,-0.087962977,1,0,0,0,35,35,86,1,woning,images/br_woning.png,images/cb_woning.png,0,,,,,,,,,,,,,,,,,,,,,,
,,,,,00018,2023-08-14_14h15.08.023,vbt_B2_day4,2022.2.4,Win32,60.0060006,,,,,,down,0,0.4997,,0.376851908,-0.087962977,1,0,0,0,36,36,64,1,wegen,images/br_wegen.png,images/cb_wegen.png,1,wegen,,,,,,,,,,,,,,,,,,,,,
,,,,,00018,2023-08-14_14h15.08.023,vbt_B2_day4,2022.2.4,Win32,60.0060006,,,,,,down,0,3.9815,,0.376851908,-0.087962977,1,0,0,0,37,37,146,1,opkomen,images/br_opkomen.png,images/cb_opkomen.png,1,opkomen,,,,,,,,,,,,,,,,,,,,,
,,,,,00018,2023-08-14_14h15.08.023,vbt_B2_day4,2022.2.4,Win32,60.0060006,,,,,,down,0,0.0502,,0.336111111,-0.069444444,1,0,0,0,38,38,59,1,kring,images/br_kring.png,images/cb_kring.png,0,,,,,,,,,,,,,,,,,,,,,,
,,,,,00018,2023-08-14_14h15.08.023,vbt_B2_day4,2022.2.4,Win32,60.0060006,,,,,,down,0,0.3007,,0.336111111,-0.069444444,1,0,0,0,39,39,62,1,knaap,images/br_knaap.png,images/cb_knaap.png,0,,,,,,,,,,,,,,,,,,,,,,
,,,,,00018,2023-08-14_14h15.08.023,vbt_B2_day4,2022.2.4,Win32,60.0060006,,,,,,down,0,23.5374,,0.336111111,-0.069444444,1,0,0,0,40,40,143,1,hechten,images/br_hechten.png,images/cb_hechten.png,0,,,,,,,,,,,,,,,,,,,,,,
,,,,,00018,2023-08-14_14h15.08.023,vbt_B2_day4,2022.2.4,Win32,60.0060006,,,,,,down,0,3.5564,,0.336111111,-0.069444444,1,0,0,0,41,41,153,1,vervoer,images/br_vervoer.png,images/cb_vervoer.png,0,,,,,,,,,,,,,,,,,,,,,,
,,,,,00018,2023-08-14_14h15.08.023,vbt_B2_day4,2022.2.4,Win32,60.0060006,,,,,,down,0,0.2665,,0.336111111,-0.069444444,1,0,0,0,42,42,120,1,klimmen,images/br_klimmen.png,images/cb_klimmen.png,0,,,,,,,,,,,,,,,,,,,,,,
,,,,,00018,2023-08-14_14h15.08.023,vbt_B2_day4,2022.2.4,Win32,60.0060006,,,,,,down,0,0.588,,0.326851908,-0.07129631,1,0,0,0,43,43,25,1,plek,images/br_plek.png,images/cb_plek.png,1,plek,,,,,,,,,,,,,,,,,,,,,
,,,,,00018,2023-08-14_14h15.08.023,vbt_B2_day4,2022.2.4,Win32,60.0060006,,,,,,down,0,9.8328,,0.328703732,-0.062037065,1,0,0,0,44,44,11,1,mode,images/br_mode.png,images/cb_mode.png,0,,,,,,,,,,,,,,,,,,,,,,
,,,,,00018,2023-08-14_14h15.08.023,vbt_B2_day4,2022.2.4,Win32,60.0060006,,,,,,down,0,4.3508,,0.328703732,-0.062037065,1,0,0,0,45,45,69,1,waken,images/br_waken.png,images/cb_waken.png,0,,,,,,,,,,,,,,,,,,,,,,
,,,,,00018,2023-08-14_14h15.08.023,vbt_B2_day4,2022.2.4,Win32,60.0060006,,,,,,down,0,0.1227,,0.328703732,-0.062037065,1,0,0,0,46,46,53,1,baron,images/br_baron.png,images/cb_baron.png,0,,,,,,,,,,,,,,,,,,,,,,
,,,,,00018,2023-08-14_14h15.08.023,vbt_B2_day4,2022.2.4,Win32,60.0060006,,,,,,down,0,0.1238,,0.328703732,-0.062037065,1,0,0,0,47,47,109,1,totaal,images/br_totaal.png,images/cb_totaal.png,0,,,,,,,,,,,,,,,,,,,,,,
,,,,,00018,2023-08-14_14h15.08.023,vbt_B2_day4,2022.2.4,Win32,60.0060006,,,,,,down,0,3.2423,,0.328703732,-0.062037065,1,0,0,0,48,48,189,1,aanraden,images/br_aanraden.png,images/cb_aanraden.png,0,,,,,,,,,,,,,,,,,,,,,,
,,,,,00018,2023-08-14_14h15.08.023,vbt_B2_day4,2022.2.4,Win32,60.0060006,,,,,,down,0,0.7002,,0.328703732,-0.062037065,1,0,0,0,49,49,33,1,vlek,images/br_vlek.png,images/cb_vlek.png,0,,,,,,,,,,,,,,,,,,,,,,
,,,,,00018,2023-08-14_14h15.08.023,vbt_B2_day4,2022.2.4,Win32,60.0060006,,,,,,down,0,2.7323,,0.328703732,-0.062037065,1,0,0,0,50,50,138,1,akkoord,images/br_akkoord.png,images/cb_akkoord.png,0,,,,,,,,,,,,,,,,,,,,,,
,,,,,00018,2023-08-14_14h15.08.023,vbt_B2_day4,2022.2.4,Win32,60.0060006,,,,,,down,0,1.8208,,0.325,-0.061111111,1,0,0,0,51,51,49,1,laken,images/br_laken.png,images/cb_laken.png,0,,,,,,,,,,,,,,,,,,,,,,
,,,,,00018,2023-08-14_14h15.08.023,vbt_B2_day4,2022.2.4,Win32,60.0060006,,,,,,down,0,5.1639,,0.325,-0.061111111,1,0,0,0,52,52,6,1,diep,images/br_diep.png,images/cb_diep.png,0,,,,,,,,,,,,,,,,,,,,,,
,,,,,00018,2023-08-14_14h15.08.023,vbt_B2_day4,2022.2.4,Win32,60.0060006,,,,,,down,0,2.9987,,0.33148151,-0.053703732,1,0,0,0,53,53,142,1,snuiven,images/br_snuiven.png,images/cb_snuiven.png,0,,,,,,,,,,,,,,,,,,,,,,
,,,,,00018,2023-08-14_14h15.08.023,vbt_B2_day4,2022.2.4,Win32,60.0060006,,,,,,down,0,1.0948,,0.330555556,-0.040740755,1,0,0,0,54,54,87,1,toeval,images/br_toeval.png,images/cb_toeval.png,0,,,,,,,,,,,,,,,,,,,,,,
,,,,,00018,2023-08-14_14h15.08.023,vbt_B2_day4,2022.2.4,Win32,60.0060006,,,,,,down,0,3.6169,,0.330555556,-0.040740755,1,0,0,0,55,55,116,1,besmet,images/br_besmet.png,images/cb_besmet.png,0,,,,,,,,,,,,,,,,,,,,,,
,,,,,00018,2023-08-14_14h15.08.023,vbt_B2_day4,2022.2.4,Win32,60.0060006,,,,,,down,0,1.9903,,0.326851908,-0.05,1,0,0,0,56,56,27,1,dans,images/br_dans.png,images/cb_dans.png,1,dans,,,,,,,,,,,,,,,,,,,,,
,,,,,00018,2023-08-14_14h15.08.023,vbt_B2_day4,2022.2.4,Win32,60.0060006,,,,,,down,0,0.2672,,0.326851908,-0.05,1,0,0,0,57,57,8,1,knie,images/br_knie.png,images/cb_knie.png,0,,,,,,,,,,,,,,,,,,,,,,
,,,,,00018,2023-08-14_14h15.08.023,vbt_B2_day4,2022.2.4,Win32,60.0060006,,,,,,down,0,0.1779,,0.326851908,-0.05,1,0,0,0,58,58,125,1,aanzien,images/br_aanzien.png,images/cb_aanzien.png,0,,,,,,,,,,,,,,,,,,,,,,
,,,,,00018,2023-08-14_14h15.08.023,vbt_B2_day4,2022.2.4,Win32,60.0060006,,,,,,down,0,1.3163,,0.326851908,-0.05,1,0,0,0,59,59,103,1,joggen,images/br_joggen.png,images/cb_joggen.png,0,,,,,,,,,,,,,,,,,,,,,,
,,,,,00018,2023-08-14_14h15.08.023,vbt_B2_day4,2022.2.4,Win32,60.0060006,,,,,,down,0,1.317,,0.326851908,-0.05,1,0,0,0,60,60,180,1,openbaar,images/br_openbaar.png,images/cb_openbaar.png,0,,,,,,,,,,,,,,,,,,,,,,
,,,,,00018,2023-08-14_14h15.08.023,vbt_B2_day4,2022.2.4,Win32,60.0060006,,,,,,down,0,6.6008,,0.324074131,-0.040740755,1,0,0,0,61,61,163,1,schuilen,images/br_schuilen.png,images/cb_schuilen.png,0,,,,,,,,,,,,,,,,,,,,,,
,,,,,00018,2023-08-14_14h15.08.023,vbt_B2_day4,2022.2.4,Win32,60.0060006,,,,,,down,0,0.4618,,0.337037065,-0.022222222,1,0,0,0,62,62,13,1,kaal,images/br_kaal.png,images/cb_kaal.png,0,,,,,,,,,,,,,,,,,,,,,,
,,,,,00018,2023-08-14_14h15.08.023,vbt_B2_day4,2022.2.4,Win32,60.0060006,,,,,,down,0,32.8133,,0.337037065,-0.022222222,1,0,0,0,63,63,58,1,tekst,images/br_tekst.png,images/cb_tekst.png,0,,,,,,,,,,,,,,,,,,,,,,
,,,,,00018,2023-08-14_14h15.08.023,vbt_B2_day4,2022.2.4,Win32,60.0060006,,,,,,down,0,0.3214,,0.337037065,-0.022222222,1,0,0,0,64,64,43,1,klauw,images/br_klauw.png,images/cb_klauw.png,0,,,,,,,,,,,,,,,,,,,,,,
,,,,,00018,2023-08-14_14h15.08.023,vbt_B2_day4,2022.2.4,Win32,60.0060006,,,,,,down,0,5.2192,,0.337037065,-0.022222222,1,0,0,0,65,65,168,1,bisschop,images/br_bisschop.png,images/cb_bisschop.png,0,,,,,,,,,,,,,,,,,,,,,,
,,,,,00018,2023-08-14_14h15.08.023,vbt_B2_day4,2022.2.4,Win32,60.0060006,,,,,,down,0,0.2415,,0.337037065,-0.022222222,1,0,0,0,66,66,57,1,steek,images/br_steek.png,images/cb_steek.png,0,,,,,,,,,,,,,,,,,,,,,,
,,,,,00018,2023-08-14_14h15.08.023,vbt_B2_day4,2022.2.4,Win32,60.0060006,,,,,,down,0,1.2497,,0.337037065,-0.022222222,1,0,0,0,67,67,91,1,gezond,images/br_gezond.png,images/cb_gezond.png,0,,,,,,,,,,,,,,,,,,,,,,
,,,,,00018,2023-08-14_14h15.08.023,vbt_B2_day4,2022.2.4,Win32,60.0060006,,,,,,down,0,4.0999,,0.337037065,-0.022222222,1,0,0,0,68,68,99,1,koffie,images/br_koffie.png,images/cb_koffie.png,0,,,,,,,,,,,,,,,,,,,,,,
,,,,,00018,2023-08-14_14h15.08.023,vbt_B2_day4,2022.2.4,Win32,60.0060006,,,,,,down,0,4.3153,,0.337037065,-0.022222222,1,0,0,0,69,69,114,1,vullen,images/br_vullen.png,images/cb_vullen.png,0,,,,,,,,,,,,,,,,,,,,,,
,,,,,00018,2023-08-14_14h15.08.023,vbt_B2_day4,2022.2.4,Win32,60.0060006,,,,,,down,0,3.0294,,0.337037065,-0.022222222,1,0,0,0,70,70,172,1,weigeren,images/br_weigeren.png,images/cb_weigeren.png,0,,,,,,,,,,,,,,,,,,,,,,
,,,,,00018,2023-08-14_14h15.08.023,vbt_B2_day4,2022.2.4,Win32,60.0060006,,,,,,down,0,3.696,,0.332407464,-0.033333333,1,0,0,0,71,71,187,1,opkijken,images/br_opkijken.png,images/cb_opkijken.png,1,opkijken,,,,,,,,,,,,,,,,,,,,,
,,,,,00018,2023-08-14_14h15.08.023,vbt_B2_day4,2022.2.4,Win32,60.0060006,,,,,,down,0,0.5368,,0.333333333,-0.032407422,1,0,0,0,72,72,195,1,middelen,images/br_middelen.png,images/cb_middelen.png,0,,,,,,,,,,,,,,,,,,,,,,
,,,,,00018,2023-08-14_14h15.08.023,vbt_B2_day4,2022.2.4,Win32,60.0060006,,,,,,down,0,4.1224,,0.329629686,-0.034259288,1,0,0,0,73,73,185,1,mijnheer,images/br_mijnheer.png,images/cb_mijnheer.png,1,mijnheer,,,,,,,,,,,,,,,,,,,,,
,,,,,00018,2023-08-14_14h15.08.023,vbt_B2_day4,2022.2.4,Win32,60.0060006,,,,,,down,0,0.2334,,0.354629686,-0.012037065,1,0,0,0,74,74,56,1,traag,images/br_traag.png,images/cb_traag.png,0,,,,,,,,,,,,,,,,,,,,,,
,,,,,00018,2023-08-14_14h15.08.023,vbt_B2_day4,2022.2.4,Win32,60.0060006,,,,,,down,0,5.3311,,0.361111111,-0.00648151,1,0,0,0,75,75,123,1,hiervan,images/br_hiervan.png,images/cb_hiervan.png,0,,,,,,,,,,,,,,,,,,,,,,
,,,,,00018,2023-08-14_14h15.08.023,vbt_B2_day4,2022.2.4,Win32,60.0060006,,,,,,down,0,1.993,,0.359259288,-0.010185199,1,0,0,0,76,76,97,1,loyaal,images/br_loyaal.png,images/cb_loyaal.png,0,,,,,,,,,,,,,,,,,,,,,,
,,,,,00018,2023-08-14_14h15.08.023,vbt_B2_day4,2022.2.4,Win32,60.0060006,,,,,,down,0,5.1992,,0.364814843,-0.010185199,1,0,0,0,77,77,93,1,waarop,images/br_waarop.png,images/cb_waarop.png,0,,,,,,,,,,,,,,,,,,,,,,
,,,,,00018,2023-08-14_14h15.08.023,vbt_B2_day4,2022.2.4,Win32,60.0060006,,,,,,down,0,3.1067,,0.364814843,-0.010185199,1,0,0,0,78,78,156,1,rechten,images/br_rechten.png,images/cb_rechten.png,0,,,,,,,,,,,,,,,,,,,,,,
,,,,,00018,2023-08-14_14h15.08.023,vbt_B2_day4,2022.2.4,Win32,60.0060006,,,,,,down,0,8.8371,,0.364814843,-0.012962977,1,0,0,0,79,79,44,1,flits,images/br_flits.png,images/cb_flits.png,0,,,,,,,,,,,,,,,,,,,,,,
,,,,,00018,2023-08-14_14h15.08.023,vbt_B2_day4,2022.2.4,Win32,60.0060006,,,,,,down,0,4.6128,,0.357407464,-0.020370399,1,0,0,0,80,80,104,1,zweven,images/br_zweven.png,images/cb_zweven.png,1,zweven,,,,,,,,,,,,,,,,,,,,,
,,,,,00018,2023-08-14_14h15.08.023,vbt_B2_day4,2022.2.4,Win32,60.0060006,,,,,,down,0,0.3934,,0.358333333,-0.028703732,1,0,0,0,81,81,113,1,koppen,images/br_koppen.png,images/cb_koppen.png,0,,,,,,,,,,,,,,,,,,,,,,
,,,,,00018,2023-08-14_14h15.08.023,vbt_B2_day4,2022.2.4,Win32,60.0060006,,,,,,down,0,11.788,,0.358333333,-0.028703732,1,0,0,0,82,82,130,1,keihard,images/br_keihard.png,images/cb_keihard.png,0,,,,,,,,,,,,,,,,,,,,,,
,,,,,00018,2023-08-14_14h15.08.023,vbt_B2_day4,2022.2.4,Win32,60.0060006,,,,,,down,0,15.2592,,0.358333333,-0.028703732,1,0,0,0,83,83,162,1,uitdelen,images/br_uitdelen.png,images/cb_uitdelen.png,0,,,,,,,,,,,,,,,,,,,,,,
,,,,,00018,2023-08-14_14h15.08.023,vbt_B2_day4,2022.2.4,Win32,60.0060006,,,,,,down,0,1.8805,,0.347222222,-0.025925954,1,0,0,0,84,84,67,1,zwart,images/br_zwart.png,images/cb_zwart.png,1,zwart,,,,,,,,,,,,,,,,,,,,,
,,,,,00018,2023-08-14_14h15.08.023,vbt_B2_day4,2022.2.4,Win32,60.0060006,,,,,,down,0,4.4658,,0.334259288,-0.022222222,1,0,0,0,85,85,111,1,ticket,images/br_ticket.png,images/cb_ticket.png,0,,,,,,,,,,,,,,,,,,,,,,
,,,,,00018,2023-08-14_14h15.08.023,vbt_B2_day4,2022.2.4,Win32,60.0060006,,,,,,down,0,0.1702,,0.35648151,0.000925912,1,0,0,0,86,86,89,1,slapen,images/br_slapen.png,images/cb_slapen.png,0,,,,,,,,,,,,,,,,,,,,,,
,,,,,00018,2023-08-14_14h15.08.023,vbt_B2_day4,2022.2.4,Win32,60.0060006,,,,,,down,0,1.5379,,0.35648151,0.000925912,1,0,0,0,87,87,192,1,schaamte,images/br_schaamte.png,images/cb_schaamte.png,0,,,,,,,,,,,,,,,,,,,,,,
,,,,,00018,2023-08-14_14h15.08.023,vbt_B2_day4,2022.2.4,Win32,60.0060006,,,,,,down,0,0.2867,,0.360185242,0.009259245,1,0,0,0,88,88,15,1,soda,images/br_soda.png,images/cb_soda.png,0,,,,,,,,,,,,,,,,,,,,,,
,,,,,00018,2023-08-14_14h15.08.023,vbt_B2_day4,2022.2.4,Win32,60.0060006,,,,,,down,0,6.817,,0.360185242,0.009259245,1,0,0,0,89,89,131,1,opzicht,images/br_opzicht.png,images/cb_opzicht.png,0,,,,,,,,,,,,,,,,,,,,,,
,,,,,00018,2023-08-14_14h15.08.023,vbt_B2_day4,2022.2.4,Win32,60.0060006,,,,,,down,0,0.0003,,0.366666667,0.009259245,1,0,0,0,90,90,173,1,apparaat,images/br_apparaat.png,images/cb_apparaat.png,0,,,,,,,,,,,,,,,,,,,,,,
,,,,,00018,2023-08-14_14h15.08.023,vbt_B2_day4,2022.2.4,Win32,60.0060006,,,,,,down,0,1.3877,,0.366666667,0.009259245,1,0,0,0,91,91,121,1,twijfel,images/br_twijfel.png,images/cb_twijfel.png,0,,,,,,,,,,,,,,,,,,,,,,
,,,,,00018,2023-08-14_14h15.08.023,vbt_B2_day4,2022.2.4,Win32,60.0060006,,,,,,down,0,1.8828,,0.366666667,0.009259245,1,0,0,0,92,92,98,1,kreeft,images/br_kreeft.png,images/cb_kreeft.png,0,,,,,,,,,,,,,,,,,,,,,,
,,,,,00018,2023-08-14_14h15.08.023,vbt_B2_day4,2022.2.4,Win32,60.0060006,,,,,,down,0,14.6931,,0.349074131,0.009259245,1,0,0,0,93,93,157,1,uitlaat,images/br_uitlaat.png,images/cb_uitlaat.png,0,,,,,,,,,,,,,,,,,,,,,,
,,,,,00018,2023-08-14_14h15.08.023,vbt_B2_day4,2022.2.4,Win32,60.0060006,,,,,,down,0,1.6497,,0.361111111,0.012037023,1,0,0,0,94,94,129,1,verhaal,images/br_verhaal.png,images/cb_verhaal.png,0,,,,,,,,,,,,,,,,,,,,,,
,,,,,00018,2023-08-14_14h15.08.023,vbt_B2_day4,2022.2.4,Win32,60.0060006,,,,,,down,0,0.1993,,0.361111111,0.012037023,1,0,0,0,95,95,161,1,attentie,images/br_attentie.png,images/cb_attentie.png,0,,,,,,,,,,,,,,,,,,,,,,
,,,,,00018,2023-08-14_14h15.08.023,vbt_B2_day4,2022.2.4,Win32,60.0060006,,,,,,down,0,1.3344,,0.361111111,0.012037023,1,0,0,0,96,96,63,1,flirt,images/br_flirt.png,images/cb_flirt.png,0,,,,,,,,,,,,,,,,,,,,,,
,,,,,00018,2023-08-14_14h15.08.023,vbt_B2_day4,2022.2.4,Win32,60.0060006,,,,,,down,0,8.8516,,0.360185242,0.012037023,1,0,0,0,97,97,80,1,kanjer,images/br_kanjer.png,images/cb_kanjer.png,0,,,,,,,,,,,,,,,,,,,,,,
,,,,,00018,2023-08-14_14h15.08.023,vbt_B2_day4,2022.2.4,Win32,60.0060006,,,,,,down,0,1.783,,0.360185242,0.012037023,1,0,0,0,98,98,132,1,grappen,images/br_grappen.png,images/cb_grappen.png,0,,,,,,,,,,,,,,,,,,,,,,
,,,,,00018,2023-08-14_14h15.08.023,vbt_B2_day4,2022.2.4,Win32,60.0060006,,,,,,down,0,0.1449,,0.362037065,0.017592578,1,0,0,0,99,99,28,1,stal,images/br_stal.png,images/cb_stal.png,0,,,,,,,,,,,,,,,,,,,,,,
,,,,,00018,2023-08-14_14h15.08.023,vbt_B2_day4,2022.2.4,Win32,60.0060006,,,,,,down,0,0.1679,,0.362037065,0.017592578,1,0,0,0,100,100,0,1,slak,images/br_slak.png,images/cb_slak.png,0,,,,,,,,,,,,,,,,,,,,,,
,,,,,00018,2023-08-14_14h15.08.023,vbt_B2_day4,2022.2.4,Win32,60.0060006,,,,,,down,0,2.2427,,0.362037065,0.017592578,1,0,0,0,101,101,32,1,palm,images/br_palm.png,images/cb_palm.png,0,,,,,,,,,,,,,,,,,,,,,,
,,,,,00018,2023-08-14_14h15.08.023,vbt_B2_day4,2022.2.4,Win32,60.0060006,,,,,,down,0,0.256,,0.362037065,0.017592578,1,0,0,0,102,102,182,1,bijkomen,images/br_bijkomen.png,images/cb_bijkomen.png,0,,,,,,,,,,,,,,,,,,,,,,
,,,,,00018,2023-08-14_14h15.08.023,vbt_B2_day4,2022.2.4,Win32,60.0060006,,,,,,down,0,2.137,,0.362037065,0.017592578,1,0,0,0,103,103,68,1,schat,images/br_schat.png,images/cb_schat.png,0,,,,,,,,,,,,,,,,,,,,,,
,,,,,00018,2023-08-14_14h15.08.023,vbt_B2_day4,2022.2.4,Win32,60.0060006,,,,,,down,0,1.649,,0.362037065,0.017592578,1,0,0,0,104,104,184,1,aandelen,images/br_aandelen.png,images/cb_aandelen.png,1,aandelen,,,,,,,,,,,,,,,,,,,,,
,,,,,00018,2023-08-14_14h15.08.023,vbt_B2_day4,2022.2.4,Win32,60.0060006,,,,,,down,0,10.7248,,0.364814843,0.024074046,1,0,0,0,105,105,82,1,muziek,images/br_muziek.png,images/cb_muziek.png,0,,,,,,,,,,,,,,,,,,,,,,
,,,,,00018,2023-08-14_14h15.08.023,vbt_B2_day4,2022.2.4,Win32,60.0060006,,,,,,down,0,0.2954,,0.364814843,0.024074046,1,0,0,0,106,106,151,1,aanzoek,images/br_aanzoek.png,images/cb_aanzoek.png,0,,,,,,,,,,,,,,,,,,,,,,
,,,,,00018,2023-08-14_14h15.08.023,vbt_B2_day4,2022.2.4,Win32,60.0060006,,,,,,down,0,3.3883,,0.364814843,0.024074046,1,0,0,0,107,107,160,1,daarheen,images/br_daarheen.png,images/cb_daarheen.png,0,,,,,,,,,,,,,,,,,,,,,,
,,,,,00018,2023-08-14_14h15.08.023,vbt_B2_day4,2022.2.4,Win32,60.0060006,,,,,,down,0,0.8682,,0.364814843,0.024074046,1,0,0,0,108,108,84,1,lokken,images/br_lokken.png,images/cb_lokken.png,0,,,,,,,,,,,,,,,,,,,,,,
,,,,,00018,2023-08-14_14h15.08.023,vbt_B2_day4,2022.2.4,Win32,60.0060006,,,,,,down,0,4.5966,,0.364814843,0.024074046,1,0,0,0,109,109,198,1,bedoelen,images/br_bedoelen.png,images/cb_bedoelen.png,0,,,,,,,,,,,,,,,,,,,,,,
,,,,,00018,2023-08-14_14h15.08.023,vbt_B2_day4,2022.2.4,Win32,60.0060006,,,,,,down,0,0.5109,,0.364814843,0.024074046,1,0,0,0,110,110,21,1,mist,images/br_mist.png,images/cb_mist.png,0,,,,,,,,,,,,,,,,,,,,,,
,,,,,00018,2023-08-14_14h15.08.023,vbt_B2_day4,2022.2.4,Win32,60.0060006,,,,,,down,0,0.9919,,0.360185242,0.037962935,1,0,0,0,111,111,134,1,geliefd,images/br_geliefd.png,images/cb_geliefd.png,0,,,,,,,,,,,,,,,,,,,,,,
,,,,,00018,2023-08-14_14h15.08.023,vbt_B2_day4,2022.2.4,Win32,60.0060006,,,,,,down,0,38.0992,,0.348148176,0.037962935,1,0,0,0,112,112,127,1,doodmoe,images/br_doodmoe.png,images/cb_doodmoe.png,0,,,,,,,,,,,,,,,,,,,,,,
,,,,,00018,2023-08-14_14h15.08.023,vbt_B2_day4,2022.2.4,Win32,60.0060006,,,,,,down,0,0.6401,,0.348148176,0.037962935,1,0,0,0,113,113,137,1,trekker,images/br_trekker.png,images/cb_trekker.png,0,,,,,,,,,,,,,,,,,,,,,,
,,,,,00018,2023-08-14_14h15.08.023,vbt_B2_day4,2022.2.4,Win32,60.0060006,,,,,,down,0,0.6661,,0.348148176,0.037962935,1,0,0,0,114,114,4,1,moes,images/br_moes.png,images/cb_moes.png,0,,,,,,,,,,,,,,,,,,,,,,
,,,,,00018,2023-08-14_14h15.08.023,vbt_B2_day4,2022.2.4,Win32,60.0060006,,,,,,down,0,6.1972,,0.348148176,0.037962935,1,0,0,0,115,115,135,1,gedicht,images/br_gedicht.png,images/cb_gedicht.png,0,,,,,,,,,,,,,,,,,,,,,,
,,,,,00018,2023-08-14_14h15.08.023,vbt_B2_day4,2022.2.4,Win32,60.0060006,,,,,,down,0,0.641,,0.348148176,0.037962935,1,0,0,0,116,116,74,1,graaf,images/br_graaf.png,images/cb_graaf.png,0,,,,,,,,,,,,,,,,,,,,,,
,,,,,00018,2023-08-14_14h15.08.023,vbt_B2_day4,2022.2.4,Win32,60.0060006,,,,,,down,0,1.8841,,0.339814843,0.037962935,1,0,0,0,117,117,102,1,legaal,images/br_legaal.png,images/cb_legaal.png,0,,,,,,,,,,,,,,,,,,,,,,
,,,,,00018,2023-08-14_14h15.08.023,vbt_B2_day4,2022.2.4,Win32,60.0060006,,,,,,down,0,10.443,,0.339814843,0.037962935,1,0,0,0,118,118,197,1,spanning,images/br_spanning.png,images/cb_spanning.png,0,,,,,,,,,,,,,,,,,,,,,,
,,,,,00018,2023-08-14_14h15.08.023,vbt_B2_day4,2022.2.4,Win32,60.0060006,,,,,,down,0,7.293,,0.353703732,0.029629601,1,0,0,0,119,119,144,1,eetlust,images/br_eetlust.png,images/cb_eetlust.png,1,eetlust,,,,,,,,,,,,,,,,,,,,,
,,,,,00018,2023-08-14_14h15.08.023,vbt_B2_day4,2022.2.4,Win32,60.0060006,,,,,,down,0,0.8135,,0.345370399,0.037962935,1,0,0,0,120,120,179,1,woestijn,images/br_woestijn.png,images/cb_woestijn.png,0,,,,,,,,,,,,,,,,,,,,,,
,,,,,00018,2023-08-14_14h15.08.023,vbt_B2_day4,2022.2.4,Win32,60.0060006,,,,,,down,0,0.2678,,0.345370399,0.037962935,1,0,0,0,121,121,17,1,taal,images/br_taal.png,images/cb_taal.png,0,,,,,,,,,,,,,,,,,,,,,,
,,,,,00018,2023-08-14_14h15.08.023,vbt_B2_day4,2022.2.4,Win32,60.0060006,,,,,,down,0,0.6879,,0.345370399,0.037962935,1,0,0,0,122,122,3,1,mand,images/br_mand.png,images/cb_mand.png,0,,,,,,,,,,,,,,,,,,,,,,
,,,,,00018,2023-08-14_14h15.08.023,vbt_B2_day4,2022.2.4,Win32,60.0060006,,,,,,down,0,3.8339,,0.360185242,0.040740712,1,0,0,0,123,123,181,1,toegeven,images/br_toegeven.png,images/cb_toegeven.png,0,,,,,,,,,,,,,,,,,,,,,,
,,,,,00018,2023-08-14_14h15.08.023,vbt_B2_day4,2022.2.4,Win32,60.0060006,,,,,,down,0,2.5661,,0.371296353,0.04351849,1,0,0,0,124,124,46,1,jagen,images/br_jagen.png,images/cb_jagen.png,0,,,,,,,,,,,,,,,,,,,,,,
,,,,,00018,2023-08-14_14h15.08.023,vbt_B2_day4,2022.2.4,Win32,60.0060006,,,,,,down,0,9.9946,,0.371296353,0.04351849,1,0,0,0,125,125,167,1,eenhoorn,images/br_eenhoorn.png,images/cb_eenhoorn.png,0,,,,,,,,,,,,,,,,,,,,,,
,,,,,00018,2023-08-14_14h15.08.023,vbt_B2_day4,2022.2.4,Win32,60.0060006,,,,,,down,0,0.3332,,0.371296353,0.04351849,1,0,0,0,126,126,193,1,weeshuis,images/br_weeshuis.png,images/cb_weeshuis.png,0,,,,,,,,,,,,,,,,,,,,,,
,,,,,00018,2023-08-14_14h15.08.023,vbt_B2_day4,2022.2.4,Win32,60.0060006,,,,,,down,0,2.9868,,0.371296353,0.04351849,1,0,0,0,127,127,76,1,afval,images/br_afval.png,images/cb_afval.png,0,,,,,,,,,,,,,,,,,,,,,,
,,,,,00018,2023-08-14_14h15.08.023,vbt_B2_day4,2022.2.4,Win32,60.0060006,,,,,,down,0,1.7605,,0.379629686,0.05370369,1,0,0,0,128,128,30,1,uien,images/br_uien.png,images/cb_uien.png,0,,,,,,,,,,,,,,,,,,,,,,
,,,,,00018,2023-08-14_14h15.08.023,vbt_B2_day4,2022.2.4,Win32,60.0060006,,,,,,down,0,2.392,,0.379629686,0.05370369,1,0,0,0,129,129,51,1,samen,images/br_samen.png,images/cb_samen.png,0,,,,,,,,,,,,,,,,,,,,,,
,,,,,00018,2023-08-14_14h15.08.023,vbt_B2_day4,2022.2.4,Win32,60.0060006,,,,,,down,0,0.7599,,0.379629686,0.05370369,1,0,0,0,130,130,122,1,waarvan,images/br_waarvan.png,images/cb_waarvan.png,0,,,,,,,,,,,,,,,,,,,,,,
,,,,,00018,2023-08-14_14h15.08.023,vbt_B2_day4,2022.2.4,Win32,60.0060006,,,,,,down,0,0.2995,,0.379629686,0.05370369,1,0,0,0,131,131,149,1,redding,images/br_redding.png,images/cb_redding.png,0,,,,,,,,,,,,,,,,,,,,,,
,,,,,00018,2023-08-14_14h15.08.023,vbt_B2_day4,2022.2.4,Win32,60.0060006,,,,,,down,0,3.1474,,0.379629686,0.05370369,1,0,0,0,132,132,186,1,voorraad,images/br_voorraad.png,images/cb_voorraad.png,1,voorraad,,,,,,,,,,,,,,,,,,,,,
,,,,,00018,2023-08-14_14h15.08.023,vbt_B2_day4,2022.2.4,Win32,60.0060006,,,,,,down,0,2.2805,,0.379629686,0.05370369,1,0,0,0,133,133,152,1,afnemen,images/br_afnemen.png,images/cb_afnemen.png,0,,,,,,,,,,,,,,,,,,,,,,
,,,,,00018,2023-08-14_14h15.08.023,vbt_B2_day4,2022.2.4,Win32,60.0060006,,,,,,down,0,2.4484,,0.38148151,0.057407379,1,0,0,0,134,134,155,1,gerucht,images/br_gerucht.png,images/cb_gerucht.png,0,,,,,,,,,,,,,,,,,,,,,,
,,,,,00018,2023-08-14_14h15.08.023,vbt_B2_day4,2022.2.4,Win32,60.0060006,,,,,,down,0,0.0679,,0.38148151,0.057407379,1,0,0,0,135,135,119,1,liefje,images/br_liefje.png,images/cb_liefje.png,0,,,,,,,,,,,,,,,,,,,,,,
,,,,,00018,2023-08-14_14h15.08.023,vbt_B2_day4,2022.2.4,Win32,60.0060006,,,,,,down,0,4.0894,,0.38148151,0.057407379,1,0,0,0,136,136,54,1,gebit,images/br_gebit.png,images/cb_gebit.png,0,,,,,,,,,,,,,,,,,,,,,,
,,,,,00018,2023-08-14_14h15.08.023,vbt_B2_day4,2022.2.4,Win32,60.0060006,,,,,,down,0,5.1568,,0.38148151,0.057407379,1,0,0,0,137,137,92,1,geheim,images/br_geheim.png,images/cb_geheim.png,0,,,,,,,,,,,,,,,,,,,,,,
,,,,,00018,2023-08-14_14h15.08.023,vbt_B2_day4,2022.2.4,Win32,60.0060006,,,,,,down,0,5.8635,,0.385185242,0.056481467,1,0,0,0,138,138,174,1,stemming,images/br_stemming.png,images/cb_stemming.png,0,,,,,,,,,,,,,,,,,,,,,,
,,,,,00018,2023-08-14_14h15.08.023,vbt_B2_day4,2022.2.4,Win32,60.0060006,,,,,,down,0,2.5149,,0.372222222,0.069444444,1,0,0,0,139,139,190,1,goedkoop,images/br_goedkoop.png,images/cb_goedkoop.png,0,,,,,,,,,,,,,,,,,,,,,,
,,,,,00018,2023-08-14_14h15.08.023,vbt_B2_day4,2022.2.4,Win32,60.0060006,,,,,,down,0,5.0318,,0.372222222,0.069444444,1,0,0,0,140,140,90,1,geluid,images/br_geluid.png,images/cb_geluid.png,0,,,,,,,,,,,,,,,,,,,,,,
,,,,,00018,2023-08-14_14h15.08.023,vbt_B2_day4,2022.2.4,Win32,60.0060006,,,,,,down,0,7.9628,,0.372222222,0.069444444,1,0,0,0,141,141,175,1,heengaan,images/br_heengaan.png,images/cb_heengaan.png,0,,,,,,,,,,,,,,,,,,,,,,
,,,,,00018,2023-08-14_14h15.08.023,vbt_B2_day4,2022.2.4,Win32,60.0060006,,,,,,down,0,6.3266,,0.372222222,0.069444444,1,0,0,0,142,142,70,1,ijdel,images/br_ijdel.png,images/cb_ijdel.png,0,,,,,,,,,,,,,,,,,,,,,,
,,,,,00018,2023-08-14_14h15.08.023,vbt_B2_day4,2022.2.4,Win32,60.0060006,,,,,,down,0,7.9482,,0.372222222,0.069444444,1,0,0,0,143,143,139,1,stiekem,images/br_stiekem.png,images/cb_stiekem.png,0,,,,,,,,,,,,,,,,,,,,,,
,,,,,00018,2023-08-14_14h15.08.023,vbt_B2_day4,2022.2.4,Win32,60.0060006,,,,,,down,0,0.134,,0.386111111,0.089814801,1,0,0,0,144,144,150,1,gegeven,images/br_gegeven.png,images/cb_gegeven.png,0,,,,,,,,,,,,,,,,,,,,,,
,,,,,00018,2023-08-14_14h15.08.023,vbt_B2_day4,2022.2.4,Win32,60.0060006,,,,,,down,0,0.6456,,0.414814843,0.117592578,1,0,0,0,145,145,52,1,wagon,images/br_wagon.png,images/cb_wagon.png,0,,,,,,,,,,,,,,,,,,,,,,
,,,,,00018,2023-08-14_14h15.08.023,vbt_B2_day4,2022.2.4,Win32,60.0060006,,,,,,down,0,0.3892,,0.414814843,0.117592578,1,0,0,0,146,146,18,1,blik,images/br_blik.png,images/cb_blik.png,0,,,,,,,,,,,,,,,,,,,,,,
,,,,,00018,2023-08-14_14h15.08.023,vbt_B2_day4,2022.2.4,Win32,60.0060006,,,,,,down,0,4.1537,,0.414814843,0.117592578,1,0,0,0,147,147,85,1,heilig,images/br_heilig.png,images/cb_heilig.png,0,,,,,,,,,,,,,,,,,,,,,,
,,,,,00018,2023-08-14_14h15.08.023,vbt_B2_day4,2022.2.4,Win32,60.0060006,,,,,,down,0,3.8166,,0.414814843,0.117592578,1,0,0,0,148,148,88,1,boeien,images/br_boeien.png,images/cb_boeien.png,0,,,,,,,,,,,,,,,,,,,,,,
,,,,,00018,2023-08-14_14h15.08.023,vbt_B2_day4,2022.2.4,Win32,60.0060006,,,,,,down,0,0.2251,,0.414814843,0.117592578,1,0,0,0,149,149,50,1,stoom,images/br_stoom.png,images/cb_stoom.png,0,,,,,,,,,,,,,,,,,,,,,,
,,,,,00018,2023-08-14_14h15.08.023,vbt_B2_day4,2022.2.4,Win32,60.0060006,,,,,,down,0,2.8071,,0.414814843,0.117592578,1,0,0,0,150,150,191,1,opheffen,images/br_opheffen.png,images/cb_opheffen.png,0,,,,,,,,,,,,,,,,,,,,,,
,,,,,00018,2023-08-14_14h15.08.023,vbt_B2_day4,2022.2.4,Win32,60.0060006,,,,,,down,0,0.0944,,0.414814843,0.117592578,1,0,0,0,151,151,10,1,leek,images/br_leek.png,images/cb_leek.png,0,,,,,,,,,,,,,,,,,,,,,,
,,,,,00018,2023-08-14_14h15.08.023,vbt_B2_day4,2022.2.4,Win32,60.0060006,,,,,,down,0,1.3375,,0.414814843,0.117592578,1,0,0,0,152,152,100,1,geduld,images/br_geduld.png,images/cb_geduld.png,0,,,,,,,,,,,,,,,,,,,,,,
,,,,,00018,2023-08-14_14h15.08.023,vbt_B2_day4,2022.2.4,Win32,60.0060006,,,,,,down,0,0.4669,,0.414814843,0.117592578,1,0,0,0,153,153,101,1,staren,images/br_staren.png,images/cb_staren.png,0,,,,,,,,,,,,,,,,,,,,,,
,,,,,00018,2023-08-14_14h15.08.023,vbt_B2_day4,2022.2.4,Win32,60.0060006,,,,,,down,0,0.0674,,0.414814843,0.117592578,1,0,0,0,154,154,31,1,poes,images/br_poes.png,images/cb_poes.png,0,,,,,,,,,,,,,,,,,,,,,,
,,,,,00018,2023-08-14_14h15.08.023,vbt_B2_day4,2022.2.4,Win32,60.0060006,,,,,,down,0,0.0005,,0.414814843,0.117592578,1,0,0,0,155,155,2,1,jaar,images/br_jaar.png,images/cb_jaar.png,0,,,,,,,,,,,,,,,,,,,,,,
,,,,,00018,2023-08-14_14h15.08.023,vbt_B2_day4,2022.2.4,Win32,60.0060006,,,,,,down,0,3.0735,,0.414814843,0.117592578,1,0,0,0,156,156,72,1,strak,images/br_strak.png,images/cb_strak.png,0,,,,,,,,,,,,,,,,,,,,,,
,,,,,00018,2023-08-14_14h15.08.023,vbt_B2_day4,2022.2.4,Win32,60.0060006,,,,,,down,0,4.3376,,0.414814843,0.117592578,1,0,0,0,157,157,24,1,jurk,images/br_jurk.png,images/cb_jurk.png,1,jurk,,,,,,,,,,,,,,,,,,,,,
,,,,,00018,2023-08-14_14h15.08.023,vbt_B2_day4,2022.2.4,Win32,60.0060006,,,,,,down,0,0.2163,,0.424074131,0.120370356,1,0,0,0,158,158,115,1,kleren,images/br_kleren.png,images/cb_kleren.png,0,,,,,,,,,,,,,,,,,,,,,,
,,,,,00018,2023-08-14_14h15.08.023,vbt_B2_day4,2022.2.4,Win32,60.0060006,,,,,,down,0,0.13,,0.424074131,0.120370356,1,0,0,0,159,159,16,1,ziek,images/br_ziek.png,images/cb_ziek.png,0,,,,,,,,,,,,,,,,,,,,,,
,,,,,00018,2023-08-14_14h15.08.023,vbt_B2_day4,2022.2.4,Win32,60.0060006,,,,,,down,0,0.0717,,0.424074131,0.120370356,1,0,0,0,160,160,20,1,site,images/br_site.png,images/cb_site.png,0,,,,,,,,,,,,,,,,,,,,,,
,,,,,00018,2023-08-14_14h15.08.023,vbt_B2_day4,2022.2.4,Win32,60.0060006,,,,,,down,0,0.051,,0.424074131,0.120370356,1,0,0,0,161,161,112,1,lukken,images/br_lukken.png,images/cb_lukken.png,0,,,,,,,,,,,,,,,,,,,,,,
,,,,,00018,2023-08-14_14h15.08.023,vbt_B2_day4,2022.2.4,Win32,60.0060006,,,,,,down,0,0.4926,,0.424074131,0.120370356,1,0,0,0,162,162,79,1,nodig,images/br_nodig.png,images/cb_nodig.png,0,,,,,,,,,,,,,,,,,,,,,,
,,,,,00018,2023-08-14_14h15.08.023,vbt_B2_day4,2022.2.4,Win32,60.0060006,,,,,,down,0,1.3798,,0.424074131,0.120370356,1,0,0,0,163,163,110,1,zuster,images/br_zuster.png,images/cb_zuster.png,0,,,,,,,,,,,,,,,,,,,,,,
,,,,,00018,2023-08-14_14h15.08.023,vbt_B2_day4,2022.2.4,Win32,60.0060006,,,,,,down,0,1.8369,,0.424074131,0.120370356,1,0,0,0,164,164,73,1,volop,images/br_volop.png,images/cb_volop.png,0,,,,,,,,,,,,,,,,,,,,,,
,,,,,00018,2023-08-14_14h15.08.023,vbt_B2_day4,2022.2.4,Win32,60.0060006,,,,,,down,0,0.1105,,0.424074131,0.120370356,1,0,0,0,165,165,41,1,maken,images/br_maken.png,images/cb_maken.png,0,,,,,,,,,,,,,,,,,,,,,,
,,,,,00018,2023-08-14_14h15.08.023,vbt_B2_day4,2022.2.4,Win32,60.0060006,,,,,,down,0,0.4423,,0.424074131,0.120370356,1,0,0,0,166,166,94,1,oceaan,images/br_oceaan.png,images/cb_oceaan.png,0,,,,,,,,,,,,,,,,,,,,,,
,,,,,00018,2023-08-14_14h15.08.023,vbt_B2_day4,2022.2.4,Win32,60.0060006,,,,,,down,0,0.1352,,0.424074131,0.120370356,1,0,0,0,167,167,22,1,stof,images/br_stof.png,images/cb_stof.png,0,,,,,,,,,,,,,,,,,,,,,,
,,,,,00018,2023-08-14_14h15.08.023,vbt_B2_day4,2022.2.4,Win32,60.0060006,,,,,,down,0,11.2877,,0.424074131,0.120370356,1,0,0,0,168,168,164,1,anarchie,images/br_anarchie.png,images/cb_anarchie.png,0,,,,,,,,,,,,,,,,,,,,,,
,,,,,00018,2023-08-14_14h15.08.023,vbt_B2_day4,2022.2.4,Win32,60.0060006,,,,,,down,0,0.234,,0.428703732,0.122222222,1,0,0,0,169,169,188,1,strekken,images/br_strekken.png,images/cb_strekken.png,0,,,,,,,,,,,,,,,,,,,,,,
,,,,,00018,2023-08-14_14h15.08.023,vbt_B2_day4,2022.2.4,Win32,60.0060006,,,,,,down,0,1.1928,,0.428703732,0.122222222,1,0,0,0,170,170,78,1,leren,images/br_leren.png,images/cb_leren.png,0,,,,,,,,,,,,,,,,,,,,,,
,,,,,00018,2023-08-14_14h15.08.023,vbt_B2_day4,2022.2.4,Win32,60.0060006,,,,,,down,0,0.076,,0.428703732,0.122222222,1,0,0,0,171,171,14,1,rijp,images/br_rijp.png,images/cb_rijp.png,0,,,,,,,,,,,,,,,,,,,,,,
,,,,,00018,2023-08-14_14h15.08.023,vbt_B2_day4,2022.2.4,Win32,60.0060006,,,,,,down,0,0.3246,,0.428703732,0.122222222,1,0,0,0,172,172,36,1,vuur,images/br_vuur.png,images/cb_vuur.png,0,,,,,,,,,,,,,,,,,,,,,,
,,,,,00018,2023-08-14_14h15.08.023,vbt_B2_day4,2022.2.4,Win32,60.0060006,,,,,,down,0,0.1499,,0.428703732,0.122222222,1,0,0,0,173,173,5,1,blad,images/br_blad.png,images/cb_blad.png,0,,,,,,,,,,,,,,,,,,,,,,
,,,,,00018,2023-08-14_14h15.08.023,vbt_B2_day4,2022.2.4,Win32,60.0060006,,,,,,down,0,6.6363,,0.428703732,0.122222222,1,0,0,0,174,174,66,1,lever,images/br_lever.png,images/cb_lever.png,1,lever,,,,,,,,,,,,,,,,,,,,,
,,,,,00018,2023-08-14_14h15.08.023,vbt_B2_day4,2022.2.4,Win32,60.0060006,,,,,,down,0,6.7696,,0.429629686,0.101851824,1,0,0,0,175,175,147,1,komisch,images/br_komisch.png,images/cb_komisch.png,1,komisch,,,,,,,,,,,,,,,,,,,,,
,,,,,00018,2023-08-14_14h15.08.023,vbt_B2_day4,2022.2.4,Win32,60.0060006,,,,,,down,0,0.2723,,0.429629686,0.101851824,1,0,0,0,176,176,108,1,excuus,images/br_excuus.png,images/cb_excuus.png,0,,,,,,,,,,,,,,,,,,,,,,
,,,,,00018,2023-08-14_14h15.08.023,vbt_B2_day4,2022.2.4,Win32,60.0060006,,,,,,down,0,0.0529,,0.429629686,0.101851824,1,0,0,0,177,177,128,1,prikken,images/br_prikken.png,images/cb_prikken.png,0,,,,,,,,,,,,,,,,,,,,,,
,,,,,00018,2023-08-14_14h15.08.023,vbt_B2_day4,2022.2.4,Win32,60.0060006,,,,,,down,0,1.8008,,0.429629686,0.101851824,1,0,0,0,178,178,37,1,mijn,images/br_mijn.png,images/cb_mijn.png,0,,,,,,,,,,,,,,,,,,,,,,
,,,,,00018,2023-08-14_14h15.08.023,vbt_B2_day4,2022.2.4,Win32,60.0060006,,,,,,down,0,0.0497,,0.429629686,0.101851824,1,0,0,0,179,179,48,1,steel,images/br_steel.png,images/cb_steel.png,0,,,,,,,,,,,,,,,,,,,,,,
,,,,,00018,2023-08-14_14h15.08.023,vbt_B2_day4,2022.2.4,Win32,60.0060006,,,,,,down,0,0.703,,0.429629686,0.101851824,1,0,0,0,180,180,141,1,knielen,images/br_knielen.png,images/cb_knielen.png,0,,,,,,,,,,,,,,,,,,,,,,
,,,,,00018,2023-08-14_14h15.08.023,vbt_B2_day4,2022.2.4,Win32,60.0060006,,,,,,down,0,0.095,,0.429629686,0.101851824,1,0,0,0,181,181,171,1,aarzelen,images/br_aarzelen.png,images/cb_aarzelen.png,0,,,,,,,,,,,,,,,,,,,,,,
,,,,,00018,2023-08-14_14h15.08.023,vbt_B2_day4,2022.2.4,Win32,60.0060006,,,,,,down,0,20.1003,,0.433333333,0.101851824,1,0,0,0,182,182,145,1,invloed,images/br_invloed.png,images/cb_invloed.png,1,invloed,,,,,,,,,,,,,,,,,,,,,
,,,,,00018,2023-08-14_14h15.08.023,vbt_B2_day4,2022.2.4,Win32,60.0060006,,,,,,down,0,2.0271,,0.433333333,0.101851824,1,0,0,0,183,183,170,1,schatten,images/br_schatten.png,images/cb_schatten.png,0,,,,,,,,,,,,,,,,,,,,,,
,,,,,00018,2023-08-14_14h15.08.023,vbt_B2_day4,2022.2.4,Win32,60.0060006,,,,,,down,0,50.5613,,0.432407464,0.076851824,1,0,0,0,184,184,45,1,piste,images/br_piste.png,images/cb_piste.png,0,,,,,,,,,,,,,,,,,,,,,,
,,,,,00018,2023-08-14_14h15.08.023,vbt_B2_day4,2022.2.4,Win32,60.0060006,,,,,,down,0,0.2098,,0.433333333,0.076851824,1,0,0,0,185,185,177,1,maaltijd,images/br_maaltijd.png,images/cb_maaltijd.png,0,,,,,,,,,,,,,,,,,,,,,,
,,,,,00018,2023-08-14_14h15.08.023,vbt_B2_day4,2022.2.4,Win32,60.0060006,,,,,,down,0,0.2191,,0.433333333,0.076851824,1,0,0,0,186,186,61,1,groen,images/br_groen.png,images/cb_groen.png,0,,,,,,,,,,,,,,,,,,,,,,
,,,,,00018,2023-08-14_14h15.08.023,vbt_B2_day4,2022.2.4,Win32,60.0060006,,,,,,down,0,0.9458,,0.433333333,0.076851824,1,0,0,0,187,187,126,1,kasteel,images/br_kasteel.png,images/cb_kasteel.png,0,,,,,,,,,,,,,,,,,,,,,,
,,,,,00018,2023-08-14_14h15.08.023,vbt_B2_day4,2022.2.4,Win32,60.0060006,,,,,,down,0,0.3921,,0.433333333,0.076851824,1,0,0,0,188,188,96,1,slagen,images/br_slagen.png,images/cb_slagen.png,0,,,,,,,,,,,,,,,,,,,,,,
,,,,,00018,2023-08-14_14h15.08.023,vbt_B2_day4,2022.2.4,Win32,60.0060006,,,,,,down,0,2.0222,,0.433333333,0.076851824,1,0,0,0,189,189,140,1,blijven,images/br_blijven.png,images/cb_blijven.png,0,,,,,,,,,,,,,,,,,,,,,,
,,,,,00018,2023-08-14_14h15.08.023,vbt_B2_day4,2022.2.4,Win32,60.0060006,,,,,,down,0,1.3679,,0.433333333,0.076851824,1,0,0,0,190,190,38,1,baai,images/br_baai.png,images/cb_baai.png,0,,,,,,,,,,,,,,,,,,,,,,
,,,,,00018,2023-08-14_14h15.08.023,vbt_B2_day4,2022.2.4,Win32,60.0060006,,,,,,down,0,0.4166,,0.444444444,0.081481467,1,0,0,0,191,191,39,1,laag,images/br_laag.png,images/cb_laag.png,0,,,,,,,,,,,,,,,,,,,,,,
,,,,,00018,2023-08-14_14h15.08.023,vbt_B2_day4,2022.2.4,Win32,60.0060006,,,,,,down,0,2.3414,,0.434259288,0.098148134,1,0,0,0,192,192,106,1,zingen,images/br_zingen.png,images/cb_zingen.png,1,zingen,,,,,,,,,,,,,,,,,,,,,
,,,,,00018,2023-08-14_14h15.08.023,vbt_B2_day4,2022.2.4,Win32,60.0060006,,,,,,down,0,0.353,,0.433333333,0.099074046,1,0,0,0,193,193,7,1,geld,images/br_geld.png,images/cb_geld.png,0,,,,,,,,,,,,,,,,,,,,,,
,,,,,00018,2023-08-14_14h15.08.023,vbt_B2_day4,2022.2.4,Win32,60.0060006,,,,,,down,0,0.0079,,0.433333333,0.106481467,1,0,0,0,194,194,1,1,zaal,images/br_zaal.png,images/cb_zaal.png,0,,,,,,,,,,,,,,,,,,,,,,
,,,,,00018,2023-08-14_14h15.08.023,vbt_B2_day4,2022.2.4,Win32,60.0060006,,,,,,down,0,0.7093,,0.433333333,0.106481467,1,0,0,0,195,195,75,1,snoep,images/br_snoep.png,images/cb_snoep.png,0,,,,,,,,,,,,,,,,,,,,,,
,,,,,00018,2023-08-14_14h15.08.023,vbt_B2_day4,2022.2.4,Win32,60.0060006,,,,,,down,0,1.8218,,0.433333333,0.106481467,1,0,0,0,196,196,183,1,getuigen,images/br_getuigen.png,images/cb_getuigen.png,0,,,,,,,,,,,,,,,,,,,,,,
,,,,,00018,2023-08-14_14h15.08.023,vbt_B2_day4,2022.2.4,Win32,60.0060006,,,,,,down,0,0.2297,,0.433333333,0.106481467,1,0,0,0,197,197,124,1,bloeien,images/br_bloeien.png,images/cb_bloeien.png,0,,,,,,,,,,,,,,,,,,,,,,
,,,,,00018,2023-08-14_14h15.08.023,vbt_B2_day4,2022.2.4,Win32,60.0060006,,,,,,down,0,0.5846,,0.433333333,0.106481467,1,0,0,0,198,198,71,1,bever,images/br_bever.png,images/cb_bever.png,0,,,,,,,,,,,,,,,,,,,,,,
,,,,,00018,2023-08-14_14h15.08.023,vbt_B2_day4,2022.2.4,Win32,60.0060006,,,,,,down,0,10.1686,,0.433333333,0.106481467,1,0,0,0,199,199,95,1,vreten,images/br_vreten.png,images/cb_vreten.png,0,,,,,,,,,,,,,,,,,,,,,,
,,,,,00018,2023-08-14_14h15.08.023,vbt_B2_day4,2022.2.4,Win32,60.0060006,,,,,,,,,,,,,,,,,,,,,,,,,0.411111111,0.089814801,1,0,0,,,,,,,,,,,,,,,,
,,,,,00018,2023-08-14_14h15.08.023,vbt_B2_day4,2022.2.4,Win32,60.0060006,,,,,,,,,,,,,,,,,,,,,,,,,,,,,,0.411111111,0.089814801,1,0,0,,,,,,,,,,,
,,,,,00018,2023-08-14_14h15.08.023,vbt_B2_day4,2022.2.4,Win32,60.0060006,,,,,,,,,,,,,,,,,,,,bisschap,images/br_bisschap.png,images/cb_bisschap.png,,bisschop,,,,,,,,,,,0.411111111,0.089814801,1,0,0,bisschop,0,0,0,36,1
,,,,,00018,2023-08-14_14h15.08.023,vbt_B2_day4,2022.2.4,Win32,60.0060006,,,,,,,,,,,,,,,,,,,,gaaf,images/br_gaaf.png,images/cb_gaaf.png,,gaaf,,,,,,,,,,,0.411111111,0.089814801,1,0,0,gaaf,0,1,1,43,1
,,,,,00018,2023-08-14_14h15.08.023,vbt_B2_day4,2022.2.4,Win32,60.0060006,,,,,,,,,,,,,,,,,,,,snee,images/br_snee.png,images/cb_snee.png,,snee,,,,,,,,,,,0.411111111,0.089814801,1,0,0,snee,0,2,2,40,1
,,,,,00018,2023-08-14_14h15.08.023,vbt_B2_day4,2022.2.4,Win32,60.0060006,,,,,,,,,,,,,,,,,,,,opkicht,images/br_opkicht.png,images/cb_opkicht.png,,opkich,,,,,,,,,,,0.411111111,0.089814801,1,0,0,opkich,0,3,3,34,1
,,,,,00018,2023-08-14_14h15.08.023,vbt_B2_day4,2022.2.4,Win32,60.0060006,,,,,,,,,,,,,,,,,,,,flippen,images/br_flippen.png,images/cb_flippen.png,,flippen,,,,,,,,,,,0.411111111,0.089814801,1,0,0,flippen,0,4,4,54,1
,,,,,00018,2023-08-14_14h15.08.023,vbt_B2_day4,2022.2.4,Win32,60.0060006,,,,,,,,,,,,,,,,,,,,geliefd,images/br_geliefd.png,images/cb_geliefd.png,,geliefd,,,,,,,,,,,0.411111111,0.089814801,1,0,0,geliefd,0,5,5,14,1
,,,,,00018,2023-08-14_14h15.08.023,vbt_B2_day4,2022.2.4,Win32,60.0060006,,,,,,,,,,,,,,,,,,,,grappen,images/br_grappen.png,images/cb_grappen.png,,grappen,,,,,,,,,,,0.411111111,0.089814801,1,0,0,grappen,0,6,6,12,1
,,,,,00018,2023-08-14_14h15.08.023,vbt_B2_day4,2022.2.4,Win32,60.0060006,,,,,,,,,,,,,,,,,,,,wagon,images/br_wagon.png,images/cb_wagon.png,,wagon,,,,,,,,,,,0.411111111,0.089814801,1,0,0,wagon,0,7,7,4,1
,,,,,00018,2023-08-14_14h15.08.023,vbt_B2_day4,2022.2.4,Win32,60.0060006,,,,,,,,,,,,,,,,,,,,kust,images/br_kust.png,images/cb_kust.png,,kust,,,,,,,,,,,0.411111111,0.089814801,1,0,0,kust,0,8,8,0,1
,,,,,00018,2023-08-14_14h15.08.023,vbt_B2_day4,2022.2.4,Win32,60.0060006,,,,,,,,,,,,,,,,,,,,gebog,images/br_gebog.png,images/cb_gebog.png,,gebog,,,,,,,,,,,0.411111111,0.089814801,1,0,0,gebog,0,9,9,24,1
,,,,,00018,2023-08-14_14h15.08.023,vbt_B2_day4,2022.2.4,Win32,60.0060006,,,,,,,,,,,,,,,,,,,,rijp,images/br_rijp.png,images/cb_rijp.png,,rijp,,,,,,,,,,,0.411111111,0.089814801,1,0,0,rijp,0,10,10,2,1
,,,,,00018,2023-08-14_14h15.08.023,vbt_B2_day4,2022.2.4,Win32,60.0060006,,,,,,,,,,,,,,,,,,,,oceaan,images/br_oceaan.png,images/cb_oceaan.png,,oceaan,,,,,,,,,,,0.411111111,0.089814801,1,0,0,oceaan,0,11,11,10,1
,,,,,00018,2023-08-14_14h15.08.023,vbt_B2_day4,2022.2.4,Win32,60.0060006,,,,,,,,,,,,,,,,,,,,stemming,images/br_stemming.png,images/cb_stemming.png,,stemming,,,,,,,,,,,0.411111111,0.089814801,1,0,0,stemming,0,12,12,18,1
,,,,,00018,2023-08-14_14h15.08.023,vbt_B2_day4,2022.2.4,Win32,60.0060006,,,,,,,,,,,,,,,,,,,,aanzwaag,images/br_aanzwaag.png,images/cb_aanzwaag.png,,aanzwaag,,,,,,,,,,,0.411111111,0.089814801,1,0,0,aanzwaag,0,13,13,38,1
,,,,,00018,2023-08-14_14h15.08.023,vbt_B2_day4,2022.2.4,Win32,60.0060006,,,,,,,,,,,,,,,,,,,,zaalrijk,images/br_zaalrijk.png,images/cb_zaalrijk.png,,zaal..,,,,,,,,,,,0.412037065,0.084259245,1,0,0,zaal..,0,14,14,37,1
,,,,,00018,2023-08-14_14h15.08.023,vbt_B2_day4,2022.2.4,Win32,60.0060006,,,,,,,,,,,,,,,,,,,,eerst,images/br_eerst.png,images/cb_eerst.png,,eerst,,,,,,,,,,,0.412037065,0.084259245,1,0,0,eerst,0,15,15,47,1
,,,,,00018,2023-08-14_14h15.08.023,vbt_B2_day4,2022.2.4,Win32,60.0060006,,,,,,,,,,,,,,,,,,,,apparaat,images/br_apparaat.png,images/cb_apparaat.png,,apparaat,,,,,,,,,,,0.412037065,0.084259245,1,0,0,apparaat,0,16,16,17,1
,,,,,00018,2023-08-14_14h15.08.023,vbt_B2_day4,2022.2.4,Win32,60.0060006,,,,,,,,,,,,,,,,,,,,baron,images/br_baron.png,images/cb_baron.png,,baron,,,,,,,,,,,0.412037065,0.084259245,1,0,0,baron,0,17,17,5,1
,,,,,00018,2023-08-14_14h15.08.023,vbt_B2_day4,2022.2.4,Win32,60.0060006,,,,,,,,,,,,,,,,,,,,schotel,images/br_schotel.png,images/cb_schotel.png,,scho..,,,,,,,,,,,0.412037065,0.084259245,1,0,0,scho..,0,18,18,52,1
,,,,,00018,2023-08-14_14h15.08.023,vbt_B2_day4,2022.2.4,Win32,60.0060006,,,,,,,,,,,,,,,,,,,,heengaan,images/br_heengaan.png,images/cb_heengaan.png,,heengaan,,,,,,,,,,,0.412037065,0.084259245,1,0,0,heengaan,0,19,19,19,1
,,,,,00018,2023-08-14_14h15.08.023,vbt_B2_day4,2022.2.4,Win32,60.0060006,,,,,,,,,,,,,,,,,,,,toevol,images/br_toevol.png,images/cb_toevol.png,,toeval,,,,,,,,,,,0.412037065,0.084259245,1,0,0,toeval,0,20,20,29,1
,,,,,00018,2023-08-14_14h15.08.023,vbt_B2_day4,2022.2.4,Win32,60.0060006,,,,,,,,,,,,,,,,,,,,schenden,images/br_schenden.png,images/cb_schenden.png,,......,,,,,,,,,,,0.412037065,0.084259245,1,0,0,......,0,21,21,57,1
,,,,,00018,2023-08-14_14h15.08.023,vbt_B2_day4,2022.2.4,Win32,60.0060006,,,,,,,,,,,,,,,,,,,,geheim,images/br_geheim.png,images/cb_geheim.png,,geheim,,,,,,,,,,,0.412037065,0.084259245,1,0,0,geheim,0,22,22,8,1
,,,,,00018,2023-08-14_14h15.08.023,vbt_B2_day4,2022.2.4,Win32,60.0060006,,,,,,,,,,,,,,,,,,,,praat,images/br_praat.png,images/cb_praat.png,,praat,,,,,,,,,,,0.412037065,0.084259245,1,0,0,praat,0,23,23,7,1
,,,,,00018,2023-08-14_14h15.08.023,vbt_B2_day4,2022.2.4,Win32,60.0060006,,,,,,,,,,,,,,,,,,,,paalbaak,images/br_paalbaak.png,images/cb_paalbaak.png,,paalbaak,,,,,,,,,,,0.413888889,0.081481467,1,0,0,paalbaak,0,24,24,39,1
,,,,,00018,2023-08-14_14h15.08.023,vbt_B2_day4,2022.2.4,Win32,60.0060006,,,,,,,,,,,,,,,,,,,,ezel,images/br_ezel.png,images/cb_ezel.png,,ezel,,,,,,,,,,,0.413888889,0.081481467,1,0,0,ezel,0,25,25,42,1
,,,,,00018,2023-08-14_14h15.08.023,vbt_B2_day4,2022.2.4,Win32,60.0060006,,,,,,,,,,,,,,,,,,,,seizoen,images/br_seizoen.png,images/cb_seizoen.png,,seizoen,,,,,,,,,,,0.413888889,0.081481467,1,0,0,seizoen,0,26,26,13,1
,,,,,00018,2023-08-14_14h15.08.023,vbt_B2_day4,2022.2.4,Win32,60.0060006,,,,,,,,,,,,,,,,,,,,tucket,images/br_tucket.png,images/cb_tucket.png,,tubket,,,,,,,,,,,0.413888889,0.081481467,1,0,0,tubket,0,27,27,30,1
,,,,,00018,2023-08-14_14h15.08.023,vbt_B2_day4,2022.2.4,Win32,60.0060006,,,,,,,,,,,,,,,,,,,,pittig,images/br_pittig.png,images/cb_pittig.png,,pittig,,,,,,,,,,,0.413888889,0.081481467,1,0,0,pittig,0,28,28,51,1
,,,,,00018,2023-08-14_14h15.08.023,vbt_B2_day4,2022.2.4,Win32,60.0060006,,,,,,,,,,,,,,,,,,,,mekst,images/br_mekst.png,images/cb_mekst.png,,mekst,,,,,,,,,,,0.412037065,0.081481467,1,0,0,mekst,0,29,29,27,1
,,,,,00018,2023-08-14_14h15.08.023,vbt_B2_day4,2022.2.4,Win32,60.0060006,,,,,,,,,,,,,,,,,,,,weigeren,images/br_weigeren.png,images/cb_weigeren.png,,weigeren,,,,,,,,,,,0.412037065,0.081481467,1,0,0,weigeren,0,30,30,16,1
,,,,,00018,2023-08-14_14h15.08.023,vbt_B2_day4,2022.2.4,Win32,60.0060006,,,,,,,,,,,,,,,,,,,,bruin,images/br_bruin.png,images/cb_bruin.png,,bruin,,,,,,,,,,,0.412037065,0.081481467,1,0,0,bruin,0,31,31,45,1
,,,,,00018,2023-08-14_14h15.08.023,vbt_B2_day4,2022.2.4,Win32,60.0060006,,,,,,,,,,,,,,,,,,,,seizoon,images/br_seizoon.png,images/cb_seizoon.png,,seizoon,,,,,,,,,,,0.412037065,0.081481467,1,0,0,seizoon,0,32,32,33,1
,,,,,00018,2023-08-14_14h15.08.023,vbt_B2_day4,2022.2.4,Win32,60.0060006,,,,,,,,,,,,,,,,,,,,gebit,images/br_gebit.png,images/cb_gebit.png,,gebit,,,,,,,,,,,0.412037065,0.081481467,1,0,0,gebit,0,33,33,6,1
,,,,,00018,2023-08-14_14h15.08.023,vbt_B2_day4,2022.2.4,Win32,60.0060006,,,,,,,,,,,,,,,,,,,,kaal,images/br_kaal.png,images/cb_kaal.png,,kaal,,,,,,,,,,,0.412037065,0.081481467,1,0,0,kaal,0,34,34,1,1
,,,,,00018,2023-08-14_14h15.08.023,vbt_B2_day4,2022.2.4,Win32,60.0060006,,,,,,,,,,,,,,,,,,,,waarop,images/br_waarop.png,images/cb_waarop.png,,waarop,,,,,,,,,,,0.412037065,0.081481467,1,0,0,waarop,0,35,35,9,1
,,,,,00018,2023-08-14_14h15.08.023,vbt_B2_day4,2022.2.4,Win32,60.0060006,,,,,,,,,,,,,,,,,,,,gedicht,images/br_gedicht.png,images/cb_gedicht.png,,gedicht,,,,,,,,,,,0.412037065,0.081481467,1,0,0,gedicht,0,36,36,15,1
,,,,,00018,2023-08-14_14h15.08.023,vbt_B2_day4,2022.2.4,Win32,60.0060006,,,,,,,,,,,,,,,,,,,,lappen,images/br_lappen.png,images/cb_lappen.png,,lappen,,,,,,,,,,,0.412037065,0.081481467,1,0,0,lappen,0,37,37,49,1
,,,,,00018,2023-08-14_14h15.08.023,vbt_B2_day4,2022.2.4,Win32,60.0060006,,,,,,,,,,,,,,,,,,,,zwek,images/br_zwek.png,images/cb_zwek.png,,zwek,,,,,,,,,,,0.412037065,0.081481467,1,0,0,zwek,0,38,38,20,1
,,,,,00018,2023-08-14_14h15.08.023,vbt_B2_day4,2022.2.4,Win32,60.0060006,,,,,,,,,,,,,,,,,,,,gaan,images/br_gaan.png,images/cb_gaan.png,,gaan,,,,,,,,,,,0.411111111,0.080555556,1,0,0,gaan,0,39,39,41,1
,,,,,00018,2023-08-14_14h15.08.023,vbt_B2_day4,2022.2.4,Win32,60.0060006,,,,,,,,,,,,,,,,,,,,dalen,images/br_dalen.png,images/cb_dalen.png,,dalen,,,,,,,,,,,0.411111111,0.080555556,1,0,0,dalen,0,40,40,46,1
,,,,,00018,2023-08-14_14h15.08.023,vbt_B2_day4,2022.2.4,Win32,60.0060006,,,,,,,,,,,,,,,,,,,,dozijn,images/br_dozijn.png,images/cb_dozijn.png,,dozijn,,,,,,,,,,,0.411111111,0.080555556,1,0,0,dozijn,0,41,41,48,1
,,,,,00018,2023-08-14_14h15.08.023,vbt_B2_day4,2022.2.4,Win32,60.0060006,,,,,,,,,,,,,,,,,,,,getucht,images/br_getucht.png,images/cb_getucht.png,,getucht,,,,,,,,,,,0.411111111,0.080555556,1,0,0,getucht,0,42,42,35,1
,,,,,00018,2023-08-14_14h15.08.023,vbt_B2_day4,2022.2.4,Win32,60.0060006,,,,,,,,,,,,,,,,,,,,midden,images/br_midden.png,images/cb_midden.png,,midden,,,,,,,,,,,0.411111111,0.080555556,1,0,0,midden,0,43,43,50,1
,,,,,00018,2023-08-14_14h15.08.023,vbt_B2_day4,2022.2.4,Win32,60.0060006,,,,,,,,,,,,,,,,,,,,broodje,images/br_broodje.png,images/cb_broodje.png,,broo..i,,,,,,,,,,,0.411111111,0.080555556,1,0,0,broo..i,0,44,44,55,1
,,,,,00018,2023-08-14_14h15.08.023,vbt_B2_day4,2022.2.4,Win32,60.0060006,,,,,,,,,,,,,,,,,,,,steen,images/br_steen.png,images/cb_steen.png,,steen,,,,,,,,,,,0.411111111,0.080555556,1,0,0,steen,0,45,45,44,1
,,,,,00018,2023-08-14_14h15.08.023,vbt_B2_day4,2022.2.4,Win32,60.0060006,,,,,,,,,,,,,,,,,,,,warel,images/br_warel.png,images/cb_warel.png,,warel,,,,,,,,,,,0.411111111,0.080555556,1,0,0,warel,0,46,46,26,1
,,,,,00018,2023-08-14_14h15.08.023,vbt_B2_day4,2022.2.4,Win32,60.0060006,,,,,,,,,,,,,,,,,,,,noodzaak,images/br_noodzaak.png,images/cb_noodzaak.png,,.oonzaak,,,,,,,,,,,0.402777778,0.073148134,1,0,0,.oonzaak,0,47,47,56,1
,,,,,00018,2023-08-14_14h15.08.023,vbt_B2_day4,2022.2.4,Win32,60.0060006,,,,,,,,,,,,,,,,,,,,vreten,images/br_vreten.png,images/cb_vreten.png,,vreten,,,,,,,,,,,0.402777778,0.073148134,1,0,0,vreten,0,48,48,11,1
,,,,,00018,2023-08-14_14h15.08.023,vbt_B2_day4,2022.2.4,Win32,60.0060006,,,,,,,,,,,,,,,,,,,,drummer,images/br_drummer.png,images/cb_drummer.png,,drummet,,,,,,,,,,,0.402777778,0.073148134,1,0,0,drummet,0,49,49,53,1
,,,,,00018,2023-08-14_14h15.08.023,vbt_B2_day4,2022.2.4,Win32,60.0060006,,,,,,,,,,,,,,,,,,,,gijf,images/br_gijf.png,images/cb_gijf.png,,geif,,,,,,,,,,,0.402777778,0.073148134,1,0,0,geif,0,50,50,23,1
,,,,,00018,2023-08-14_14h15.08.023,vbt_B2_day4,2022.2.4,Win32,60.0060006,,,,,,,,,,,,,,,,,,,,strok,images/br_strok.png,images/cb_strok.png,,strok,,,,,,,,,,,0.402777778,0.073148134,1,0,0,strok,0,51,51,25,1
,,,,,00018,2023-08-14_14h15.08.023,vbt_B2_day4,2022.2.4,Win32,60.0060006,,,,,,,,,,,,,,,,,,,,pijnlijk,images/br_pijnlijk.png,images/cb_pijnlijk.png,,pijnlijk,,,,,,,,,,,0.402777778,0.073148134,1,0,0,pijnlijk,0,52,52,58,1
,,,,,00018,2023-08-14_14h15.08.023,vbt_B2_day4,2022.2.4,Win32,60.0060006,,,,,,,,,,,,,,,,,,,,opruimen,images/br_opruimen.png,images/cb_opruimen.png,,opruimen,,,,,,,,,,,0.402777778,0.073148134,1,0,0,opruimen,0,53,53,59,1
,,,,,00018,2023-08-14_14h15.08.023,vbt_B2_day4,2022.2.4,Win32,60.0060006,,,,,,,,,,,,,,,,,,,,haza,images/br_haza.png,images/cb_haza.png,,haza,,,,,,,,,,,0.402777778,0.073148134,1,0,0,haza,0,54,54,21,1
,,,,,00018,2023-08-14_14h15.08.023,vbt_B2_day4,2022.2.4,Win32,60.0060006,,,,,,,,,,,,,,,,,,,,wozing,images/br_wozing.png,images/cb_wozing.png,,wozing,,,,,,,,,,,0.402777778,0.073148134,1,0,0,wozing,0,55,55,28,1
,,,,,00018,2023-08-14_14h15.08.023,vbt_B2_day4,2022.2.4,Win32,60.0060006,,,,,,,,,,,,,,,,,,,,fran,images/br_fran.png,images/cb_fran.png,,fran,,,,,,,,,,,0.402777778,0.073148134,1,0,0,fran,0,56,56,22,1
,,,,,00018,2023-08-14_14h15.08.023,vbt_B2_day4,2022.2.4,Win32,60.0060006,,,,,,,,,,,,,,,,,,,,soda,images/br_soda.png,images/cb_soda.png,,soda,,,,,,,,,,,0.402777778,0.073148134,1,0,0,soda,0,57,57,3,1
,,,,,00018,2023-08-14_14h15.08.023,vbt_B2_day4,2022.2.4,Win32,60.0060006,,,,,,,,,,,,,,,,,,,,drooien,images/br_drooien.png,images/cb_drooien.png,,drooien,,,,,,,,,,,0.402777778,0.073148134,1,0,0,drooien,0,58,58,32,1
,,,,,00018,2023-08-14_14h15.08.023,vbt_B2_day4,2022.2.4,Win32,60.0060006,,,,,,,,,,,,,,,,,,,,sulbon,images/br_sulbon.png,images/cb_sulbon.png,,sulbo.,,,,,,,,,,,0.402777778,0.073148134,1,0,0,sulbo.,0,59,59,31,1
,,,,,00018,2023-08-14_14h15.08.023,vbt_B2_day4,2022.2.4,Win32,60.0060006,,,,,,,,,,,,,,,,,,,,,,,,,,,,,,,,,,,,,,,,,,,,,
